"trial_type","trial_index","time_elapsed","internal_node_id","subject","exp_part","prolific_PID","study_ID","session_ID","use","rt","stimulus","key_press","button_pressed","responses","question_order","trial_part","correct","resp_map","correct_resp","probe_condition","category","image","forget_condition","list","trial_num","block_num","block","response","test_part","n_span","sequence","num_spaces"
"pavlovia","0","6","0.0-0.0","0cmxg3hwc3wbkre","","5f0e22f2f5e4e1139be7ae38","5f60e3c0a3b16e07647b2ff9","5f60f6426f6e56025c121a56","false","","","","","","","","","","","","","","","","","","","","","","",""
"html-keyboard-response","1","32935","0.0-1.0-0.0-0.0","0cmxg3hwc3wbkre","welcome","5f0e22f2f5e4e1139be7ae38","5f60e3c0a3b16e07647b2ff9","5f60f6426f6e56025c121a56","false","32928","<div align=left>Dear participant, <br> thank you for participating in an online study of the Cognition, Action, and Sustainability Unit of the University of Freiburg! <br> <br>The aim of this study is to examine our ability to remember previously learned information. <br>Our goal is to find out, whether our memory improves, when we only remember information that is relevant to us. <br>The experiment will take about 35 minutes to complete. <br> <br>Please, note that you can only participate in this study if you are using a device with a keyboard (PC, Laptop etc.) <br>and not if you are using a mobile device such as a tablet or smartphone.<br> <br>Press 'SPACE' to proceed to the experiment. </div>","32","","","","","","","","","","","","","","","","","","","",""
"html-keyboard-response","2","57215","0.0-1.0-0.0-1.0","0cmxg3hwc3wbkre","welcome","5f0e22f2f5e4e1139be7ae38","5f60e3c0a3b16e07647b2ff9","5f60f6426f6e56025c121a56","false","24279.000000000007","<div align=left><strong> Time Course of this experiment: </strong> <br><br> <strong> 1.</strong>  First, please fill in some information regarding your demographic data. <br><br> <strong> 2.</strong>  Next, your task will be to classify everyday objects. <br>In addition, you will be asked to remember certain objects and recall them later. <br>Working on these tasks requires your undivided attention and concentration.<br>It is therefore essential that you eliminate any sources of distraction in your  <br>environment and ensure that you will not be disturbed. <br><br><strong> 3.</strong>  At the end of the experiment, you will be asked to answer a few additional questions. <br> <br><strong> Important:</strong> After finishing the experiment, only close the browser window <br> by clicking on the 'end the experiment'-button when you are asked to do so. <br>Closing the browser window prematurely will make the allocation of your participation credit impossible. <br><br> Press 'SPACE' to start the experiment. </div>","32","","","","","","","","","","","","","","","","","","","",""
"html-button-response","3","81341","0.0-1.0-0.0-2.0","0cmxg3hwc3wbkre","welcome","5f0e22f2f5e4e1139be7ae38","5f60e3c0a3b16e07647b2ff9","5f60f6426f6e56025c121a56","true","24106","<div align=left><strong> Informed consent </strong>  <br>The aim of our research is to better understand human behavior and mental processes. <br>In the following study your behavior (e.g. choices, reaction times) will be studied. <br> <br><strong> Voluntariness and Anonymity </strong> <br>Your participation in this study is  <strong> voluntary</strong>.<br>You may withdraw your consent to participate at any time without providing a reason for doing so and without fear of prejudice. <br><br>As no personal data will be collected, <strong>your data and your person cannot be connected after data collection</strong> – the data-set is anonymous. <br>Respectively, deletion of your data will not be possible after data collection has been completed, as we cannot retrace your data-set.<br>The results and anonymized data collected in this study will be published as a scientific publication. <br>This will happen in an <strong>anonymized format</strong>, so that no data can be traced back to a specific person. <br> <br>The anonymized data of this study will be made available to other researchers and/or in a data archive on the Internet as a means of transparency and to enable subsequent re-use. By doing so, this study follows the recommendations of the Deutsche Forschungsgemeinschaft (DFG, German Research Foundation) and Deutsche Gesellschaft für Psychologie (DGPS, German Psychological Society) regarding quality assurance in research.<br>If you have any questions now or after the experiment, please contact our team (experiments@cs.uni-freiburg.de).<br><br><br>I hereby declare, that I understand the above described conditions of participation and I agree to participate under these conditions. <br><br> </div>","","0","","","","","","","","","","","","","","","","","","",""
"html-keyboard-response","4","121773","0.0-1.0-0.0-3.0","0cmxg3hwc3wbkre","welcome","5f0e22f2f5e4e1139be7ae38","5f60e3c0a3b16e07647b2ff9","5f60f6426f6e56025c121a56","false","40433","<div align=left><strong> General information concerning the experiment </strong>  <br> <br>Please follow the instructions:<ol> <li><strong> Do not leave this tab (your browser window) during the experiment and do not reload this tab! </strong>  <br>If you do switch tabs/windows during the experiment (to check your mail or visit another website, for example), <br>the experiment will end automatically and you will <strong>not receive credit</strong> for your participation. <br>Repeated participation or resumption of the experiment is impossible.</li> <br><li>Please close all other programs for the duration of your participation. </li> <br><li>Please mute or turn off your phone and put it out of your reach. </li> <br><li>Please also take off any disturbing accessories (such as wristwatches, bracelets, etc.). </li> <br><li>If you have music playing in the background, please turn it off now. </li> <br></ol>Thank you! <br>Press 'SPACE' to continue. </div>","32","","","","","","","","","","","","","","","","","","","",""
"survey-text","5","126934","0.0-1.0-1.0-0.0","0cmxg3hwc3wbkre","demographics","5f0e22f2f5e4e1139be7ae38","5f60e3c0a3b16e07647b2ff9","5f60f6426f6e56025c121a56","true","5135.000000000015","","","","{""age"":""28""}","","","","","","","","","","","","","","","","","",""
"survey-multi-choice","6","175875","0.0-1.0-1.0-1.0","0cmxg3hwc3wbkre","demographics","5f0e22f2f5e4e1139be7ae38","5f60e3c0a3b16e07647b2ff9","5f60f6426f6e56025c121a56","true","48940","","","","{""gender"":""male"",""school"":""others"",""education"":""Completed university degree or equivalent""}","[0,1,2]","","","","","","","","","","","","","","","","",""
"html-keyboard-response","7","191382","0.0-1.0-2.0","0cmxg3hwc3wbkre","instructions","5f0e22f2f5e4e1139be7ae38","5f60e3c0a3b16e07647b2ff9","5f60f6426f6e56025c121a56","false","15505","<div align=left> The experiment is now about to start: <br> <br>In the following part, you will be presented pictures of everyday objects. <br>Your first task is to <strong>classify these objects. </strong> <br> <br> You will classify them either as mechanical or non-mechanical objects. <br> <br>Objects that include any kind of technical mechanism (for example, wheels, switches, levers, <br> electronic components) fall under the category of <strong>mechanical</strong> objects. <br>Only objects without any kind of technical mechanism should be classified as <strong>non-mechanical</strong>. <br><br>Press 'SPACE' to continue. </div>","32","","","","","","","","","","","","","","","","","","","",""
"html-keyboard-response","8","286661","0.0-2.0-0.0","0cmxg3hwc3wbkre","instructions","5f0e22f2f5e4e1139be7ae38","5f60e3c0a3b16e07647b2ff9","5f60f6426f6e56025c121a56","false","95280","<div align=justify>You will classify the objects using the <strong>'S'</strong> and the <strong>'L'</strong> keys on your keyboard.<br>For doing so, please place your <strong>left index finger</strong> on the <strong>'S'</strong> key and place your <strong>right index finger</strong> on the <strong>'L'</strong> key. <br><br> Each trial starts with an instruction, indicating which key ('S'/'L') you need to press to classify <br>the object as mechanical (letter M) or non-mechanical (letter N).<br>The instruction <strong>M + N</strong> indicates that, in the current trial, by pressing the left key ('S') you classify the displayed object as mechanical (M) <br> and by pressing the right key ('L') you classify the object as non-mechanical (N). <br>The instruction <strong>N + M</strong> on the other hand indicates that by pressing the left key ('S') you classify the displayed object as non-mechanical (N) <br> and by pressing the right key ('L') you classify the object as mechanical (M). <br><br>Please press the key corresponding to the correct classification as fast as possible as soon as the object is displayed and try to avoid making mistakes.<br>If you do not respond within a 2 second window, a corresponding feedback will be displayed and the next trial will start.<br> The experiment is divided into multiple blocks to give you the opportunity to take a break after each block. <br>First, you can now practice this task. <br><br>Please place your <strong>LEFT INDEX FINGER</strong> on the 'S' key and your <strong>RIGHT INDEX FINGER</strong> on the 'L' key now. <br><br>Press SPACE to continue.</div>","32","","","","","","","","","","","","","","","","","","","",""
"html-keyboard-response","9","303192","0.0-2.0-1.0","0cmxg3hwc3wbkre","instructions","5f0e22f2f5e4e1139be7ae38","5f60e3c0a3b16e07647b2ff9","5f60f6426f6e56025c121a56","false","16529","<div align=left> You will now have time to practice this task.<br><br>Remember: <br> <br><li>Please place your index fingers on the <strong>'S'</strong> and <strong>'L'</strong> keys <br>to respond as fast and accurately as possible.</li><li>Every picture can be classified as either mechanical or non-mechanical.</li><li>If you do not respond in time or commit an error, you will receive a corresponding feedback. </li><li> Please try to respond as <strong> fast </strong> and as <strong> accurately as possible </strong> .<br><li>To ensure optimal results, please minimize distractions and stay focused. </li><br><br>Press SPACE to continue.</div>","32","","","","","","","","","","","","","","","","","","","",""
"html-keyboard-response","10","303898","0.0-2.0-2.0-0.0","0cmxg3hwc3wbkre","practice_no_cue","5f0e22f2f5e4e1139be7ae38","5f60e3c0a3b16e07647b2ff9","5f60f6426f6e56025c121a56","false","null","<span style=""color: black; font-size: 48px"">N + M</span>","null","","","","resp_prompt","","","","","","","","","","","","","","","",""
"categorize-image","11","306407","0.0-2.0-2.0-1.0","0cmxg3hwc3wbkre","practice_no_cue","5f0e22f2f5e4e1139be7ae38","5f60e3c0a3b16e07647b2ff9","5f60f6426f6e56025c121a56","true","null","./Stimuli/ImagesPractice/SM61.jpg","null","","","","test","false","N + M","76","","SM","SM61.jpg","forget","old","1","1","start","too_slow","","","",""
"html-keyboard-response","12","307110","0.0-2.0-2.0-0.1","0cmxg3hwc3wbkre","practice_no_cue","5f0e22f2f5e4e1139be7ae38","5f60e3c0a3b16e07647b2ff9","5f60f6426f6e56025c121a56","false","null","<span style=""color: black; font-size: 48px"">M + N</span>","null","","","","resp_prompt","","","","","","","","","","","","","","","",""
"categorize-image","13","308681","0.0-2.0-2.0-1.1","0cmxg3hwc3wbkre","practice_no_cue","5f0e22f2f5e4e1139be7ae38","5f60e3c0a3b16e07647b2ff9","5f60f6426f6e56025c121a56","true","1066","./Stimuli/ImagesPractice/LN109.jpg","76","","","","test","true","M + N","76","","LN","LN109.jpg","remember","old","2","1","start","right","","","",""
"html-keyboard-response","14","309386","0.0-2.0-2.0-0.2","0cmxg3hwc3wbkre","practice_no_cue","5f0e22f2f5e4e1139be7ae38","5f60e3c0a3b16e07647b2ff9","5f60f6426f6e56025c121a56","false","null","<span style=""color: black; font-size: 48px"">N + M</span>","null","","","","resp_prompt","","","","","","","","","","","","","","","",""
"categorize-image","15","311020","0.0-2.0-2.0-1.2","0cmxg3hwc3wbkre","practice_no_cue","5f0e22f2f5e4e1139be7ae38","5f60e3c0a3b16e07647b2ff9","5f60f6426f6e56025c121a56","true","1127","./Stimuli/ImagesPractice/SM62.jpg","83","","","","test","false","N + M","76","","SM","SM62.jpg","remember","old","3","1","start","left","","","",""
"html-keyboard-response","16","311725","0.0-2.0-2.0-0.3","0cmxg3hwc3wbkre","practice_no_cue","5f0e22f2f5e4e1139be7ae38","5f60e3c0a3b16e07647b2ff9","5f60f6426f6e56025c121a56","false","null","<span style=""color: black; font-size: 48px"">M + N</span>","null","","","","resp_prompt","","","","","","","","","","","","","","","",""
"categorize-image","17","313319","0.0-2.0-2.0-1.3","0cmxg3hwc3wbkre","practice_no_cue","5f0e22f2f5e4e1139be7ae38","5f60e3c0a3b16e07647b2ff9","5f60f6426f6e56025c121a56","true","1089","./Stimuli/ImagesPractice/LM147.jpg","83","","","","test","true","M + N","83","","LM","LM147.jpg","forget","old","4","1","start","left","","","",""
"html-keyboard-response","18","314022","0.0-2.0-2.0-0.4","0cmxg3hwc3wbkre","practice_no_cue","5f0e22f2f5e4e1139be7ae38","5f60e3c0a3b16e07647b2ff9","5f60f6426f6e56025c121a56","false","null","<span style=""color: black; font-size: 48px"">M + N</span>","null","","","","resp_prompt","","","","","","","","","","","","","","","",""
"categorize-image","19","315365","0.0-2.0-2.0-1.4","0cmxg3hwc3wbkre","practice_no_cue","5f0e22f2f5e4e1139be7ae38","5f60e3c0a3b16e07647b2ff9","5f60f6426f6e56025c121a56","true","836.0000000000582","./Stimuli/ImagesPractice/LM224.jpg","83","","","","test","true","M + N","83","","LM","LM224.jpg","remember","old","5","1","start","left","","","",""
"html-keyboard-response","20","316070","0.0-2.0-2.0-0.5","0cmxg3hwc3wbkre","practice_no_cue","5f0e22f2f5e4e1139be7ae38","5f60e3c0a3b16e07647b2ff9","5f60f6426f6e56025c121a56","false","null","<span style=""color: black; font-size: 48px"">N + M</span>","null","","","","resp_prompt","","","","","","","","","","","","","","","",""
"categorize-image","21","317690","0.0-2.0-2.0-1.5","0cmxg3hwc3wbkre","practice_no_cue","5f0e22f2f5e4e1139be7ae38","5f60e3c0a3b16e07647b2ff9","5f60f6426f6e56025c121a56","true","1114","./Stimuli/ImagesPractice/LM55.jpg","76","","","","test","true","N + M","76","","LM","LM55.jpg","forget","old","6","1","start","right","","","",""
"html-keyboard-response","22","318396","0.0-2.0-2.0-0.6","0cmxg3hwc3wbkre","practice_no_cue","5f0e22f2f5e4e1139be7ae38","5f60e3c0a3b16e07647b2ff9","5f60f6426f6e56025c121a56","false","null","<span style=""color: black; font-size: 48px"">N + M</span>","null","","","","resp_prompt","","","","","","","","","","","","","","","",""
"categorize-image","23","320205","0.0-2.0-2.0-1.6","0cmxg3hwc3wbkre","practice_no_cue","5f0e22f2f5e4e1139be7ae38","5f60e3c0a3b16e07647b2ff9","5f60f6426f6e56025c121a56","true","1303","./Stimuli/ImagesPractice/SM35.jpg","83","","","","test","false","N + M","76","","SM","SM35.jpg","forget","old","7","1","start","left","","","",""
"html-keyboard-response","24","320910","0.0-2.0-2.0-0.7","0cmxg3hwc3wbkre","practice_no_cue","5f0e22f2f5e4e1139be7ae38","5f60e3c0a3b16e07647b2ff9","5f60f6426f6e56025c121a56","false","null","<span style=""color: black; font-size: 48px"">M + N</span>","null","","","","resp_prompt","","","","","","","","","","","","","","","",""
"categorize-image","25","323050","0.0-2.0-2.0-1.7","0cmxg3hwc3wbkre","practice_no_cue","5f0e22f2f5e4e1139be7ae38","5f60e3c0a3b16e07647b2ff9","5f60f6426f6e56025c121a56","true","1637","./Stimuli/ImagesPractice/SN205.jpg","76","","","","test","true","M + N","76","","SN","SN205.jpg","remember","old","8","1","start","right","","","",""
"html-keyboard-response","26","323756","0.0-2.0-2.0-0.8","0cmxg3hwc3wbkre","practice_no_cue","5f0e22f2f5e4e1139be7ae38","5f60e3c0a3b16e07647b2ff9","5f60f6426f6e56025c121a56","false","null","<span style=""color: black; font-size: 48px"">N + M</span>","null","","","","resp_prompt","","","","","","","","","","","","","","","",""
"categorize-image","27","325448","0.0-2.0-2.0-1.8","0cmxg3hwc3wbkre","practice_no_cue","5f0e22f2f5e4e1139be7ae38","5f60e3c0a3b16e07647b2ff9","5f60f6426f6e56025c121a56","true","1186","./Stimuli/ImagesPractice/SM37.jpg","83","","","","test","false","N + M","76","","SM","SM37.jpg","remember","old","9","1","start","left","","","",""
"html-keyboard-response","28","326151","0.0-2.0-2.0-0.9","0cmxg3hwc3wbkre","practice_no_cue","5f0e22f2f5e4e1139be7ae38","5f60e3c0a3b16e07647b2ff9","5f60f6426f6e56025c121a56","false","null","<span style=""color: black; font-size: 48px"">N + M</span>","null","","","","resp_prompt","","","","","","","","","","","","","","","",""
"categorize-image","29","327946","0.0-2.0-2.0-1.9","0cmxg3hwc3wbkre","practice_no_cue","5f0e22f2f5e4e1139be7ae38","5f60e3c0a3b16e07647b2ff9","5f60f6426f6e56025c121a56","true","1291.0000000000582","./Stimuli/ImagesPractice/LN2.jpg","83","","","","test","true","N + M","83","","LN","LN2.jpg","forget","old","10","1","start","left","","","",""
"html-keyboard-response","30","328651","0.0-2.0-2.0-0.10","0cmxg3hwc3wbkre","practice_no_cue","5f0e22f2f5e4e1139be7ae38","5f60e3c0a3b16e07647b2ff9","5f60f6426f6e56025c121a56","false","null","<span style=""color: black; font-size: 48px"">M + N</span>","null","","","","resp_prompt","","","","","","","","","","","","","","","",""
"categorize-image","31","330383","0.0-2.0-2.0-1.10","0cmxg3hwc3wbkre","practice_no_cue","5f0e22f2f5e4e1139be7ae38","5f60e3c0a3b16e07647b2ff9","5f60f6426f6e56025c121a56","true","1226.0000000000582","./Stimuli/ImagesPractice/LN17.jpg","76","","","","test","true","M + N","76","","LN","LN17.jpg","forget","old","11","1","start","right","","","",""
"html-keyboard-response","32","331088","0.0-2.0-2.0-0.11","0cmxg3hwc3wbkre","practice_no_cue","5f0e22f2f5e4e1139be7ae38","5f60e3c0a3b16e07647b2ff9","5f60f6426f6e56025c121a56","false","null","<span style=""color: black; font-size: 48px"">M + N</span>","null","","","","resp_prompt","","","","","","","","","","","","","","","",""
"categorize-image","33","332647","0.0-2.0-2.0-1.11","0cmxg3hwc3wbkre","practice_no_cue","5f0e22f2f5e4e1139be7ae38","5f60e3c0a3b16e07647b2ff9","5f60f6426f6e56025c121a56","true","1055","./Stimuli/ImagesPractice/SM97.jpg","83","","","","test","true","M + N","83","","SM","SM97.jpg","forget","old","12","1","start","left","","","",""
"html-keyboard-response","34","333352","0.0-2.0-2.0-0.12","0cmxg3hwc3wbkre","practice_no_cue","5f0e22f2f5e4e1139be7ae38","5f60e3c0a3b16e07647b2ff9","5f60f6426f6e56025c121a56","false","null","<span style=""color: black; font-size: 48px"">N + M</span>","null","","","","resp_prompt","","","","","","","","","","","","","","","",""
"categorize-image","35","335046","0.0-2.0-2.0-1.12","0cmxg3hwc3wbkre","practice_no_cue","5f0e22f2f5e4e1139be7ae38","5f60e3c0a3b16e07647b2ff9","5f60f6426f6e56025c121a56","true","1190","./Stimuli/ImagesPractice/SN220.jpg","83","","","","test","true","N + M","83","","SN","SN220.jpg","remember","old","13","1","start","left","","","",""
"html-keyboard-response","36","335751","0.0-2.0-2.0-0.13","0cmxg3hwc3wbkre","practice_no_cue","5f0e22f2f5e4e1139be7ae38","5f60e3c0a3b16e07647b2ff9","5f60f6426f6e56025c121a56","false","null","<span style=""color: black; font-size: 48px"">M + N</span>","null","","","","resp_prompt","","","","","","","","","","","","","","","",""
"categorize-image","37","337246","0.0-2.0-2.0-1.13","0cmxg3hwc3wbkre","practice_no_cue","5f0e22f2f5e4e1139be7ae38","5f60e3c0a3b16e07647b2ff9","5f60f6426f6e56025c121a56","true","988","./Stimuli/ImagesPractice/SN76.jpg","76","","","","test","true","M + N","76","","SN","SN76.jpg","forget","old","14","1","start","right","","","",""
"html-keyboard-response","38","337952","0.0-2.0-2.0-0.14","0cmxg3hwc3wbkre","practice_no_cue","5f0e22f2f5e4e1139be7ae38","5f60e3c0a3b16e07647b2ff9","5f60f6426f6e56025c121a56","false","null","<span style=""color: black; font-size: 48px"">M + N</span>","null","","","","resp_prompt","","","","","","","","","","","","","","","",""
"categorize-image","39","339651","0.0-2.0-2.0-1.14","0cmxg3hwc3wbkre","practice_no_cue","5f0e22f2f5e4e1139be7ae38","5f60e3c0a3b16e07647b2ff9","5f60f6426f6e56025c121a56","true","1195","./Stimuli/ImagesPractice/SN75.jpg","76","","","","test","true","M + N","76","","SN","SN75.jpg","remember","old","15","1","start","right","","","",""
"html-keyboard-response","40","340356","0.0-2.0-2.0-0.15","0cmxg3hwc3wbkre","practice_no_cue","5f0e22f2f5e4e1139be7ae38","5f60e3c0a3b16e07647b2ff9","5f60f6426f6e56025c121a56","false","null","<span style=""color: black; font-size: 48px"">N + M</span>","null","","","","resp_prompt","","","","","","","","","","","","","","","",""
"categorize-image","41","342264","0.0-2.0-2.0-1.15","0cmxg3hwc3wbkre","practice_no_cue","5f0e22f2f5e4e1139be7ae38","5f60e3c0a3b16e07647b2ff9","5f60f6426f6e56025c121a56","true","1402","./Stimuli/ImagesPractice/LN72.jpg","83","","","","test","true","N + M","83","","LN","LN72.jpg","remember","old","16","1","start","left","","","",""
"html-keyboard-response","42","349313","0.0-2.0-3.0","0cmxg3hwc3wbkre","break","5f0e22f2f5e4e1139be7ae38","5f60e3c0a3b16e07647b2ff9","5f60f6426f6e56025c121a56","false","7046","<p style='font-size: 32px;'>Break</><br><br><br><br><br><p style='font-size: 24px;'>In the last block, you committed 3 errors and did not respond in time on 1 trials.
</p><p style='font-size: 24px;'>Try to respond as fast and accurately as possible in the next block as well! </p><p style='font-size: 24px;'>Press SPACE to continue.</p>","32","","","","","","","","","","","","","","","","","","","",""
"html-keyboard-response","43","357160","0.0-2.0-4.0","0cmxg3hwc3wbkre","instructions","5f0e22f2f5e4e1139be7ae38","5f60e3c0a3b16e07647b2ff9","5f60f6426f6e56025c121a56","false","7845","<div align=left> Great!<br><br>Are you ready to continue?<br><br>If you want to reread the instructions and redo the practice trials, <br>please press „Z“. <br><br>Press SPACE to CONTINUE with the experiment when you are ready. </div>","32","","","","","","","","","","","","","","","","","","","",""
"html-keyboard-response","44","399643","0.0-3.0-0.0","0cmxg3hwc3wbkre","instructions","5f0e22f2f5e4e1139be7ae38","5f60e3c0a3b16e07647b2ff9","5f60f6426f6e56025c121a56","false","42483","<div align=left>Great!<br> <strong>Attention</strong>! You will now receive a second, additional task! <br><br>To this point it was you <strong>first task</strong> to correctly <strong>classify objects</strong>. <br><br>As mentioned in the beginning, we aim to examine how well humans can remember previously learned information.<br>We would like to find out whether our memory improves if we only remember information that is relevant to us. <br><br>Therefore, your <strong>second task</strong> will be to <strong>remember</strong> the pictures you are to categorize. <br> After the learning phase, there will be a memory test phase, in which you will be asked to indicate whether you have seen a picture before or not. <br>Some, but not all pictures shown in the learning phase will appear in the memory test phase.<br>After classifying a picture, you will be told whether you should remember it for the memory test phase or not. <br>Thus, some pictures can be forgotten, whereas others have to be remembered. <br><br>Note: From now on, feedback will only be displayed if you responded incorrectly or not in time.<br><br>Press SPACE to continue.</div>","32","","","","","","","","","","","","","","","","","","","",""
"html-keyboard-response","45","401858","0.0-3.0-1.0","0cmxg3hwc3wbkre","instructions","5f0e22f2f5e4e1139be7ae38","5f60e3c0a3b16e07647b2ff9","5f60f6426f6e56025c121a56","false","2210","<div align=left>In the following part, you will thus have to remember only some pictures. <br>Immediately after seeing and classifying the picture, a symbol will be displayed, indicating whether you should remember or forget the previous picture. <br><br>A <span style='color: dodgerblue; font-size: 28px'>O</span> indicates REMEMBER. That means, you have to remember this picture, because it will be tested later. <br><br>A <span style='color: darkorange; font-size:28px'>Ø</span> indicates FORGET. You do not have to remember this picture. <br><br> As you will have to remember a lot of pictures, it will be hard for you to remember all of them. <br>It will put you at an advantage if you instantly forget the pictures you are not asked to remember. <br> This will make it easier for you to remember the pictures that will be tested afterwards. <br><br>Press SPACE to continue.</div>","32","","","","","","","","","","","","","","","","","","","",""
"html-keyboard-response","46","406928","0.0-3.0-2.0","0cmxg3hwc3wbkre","instructions","5f0e22f2f5e4e1139be7ae38","5f60e3c0a3b16e07647b2ff9","5f60f6426f6e56025c121a56","false","5069","<div align=left> Now you have the chance to practice both tasks together.<br><br>Remember: <br> <br><li>Please place your index fingers on the <strong>'S'</strong> and <strong>'L'</strong> keys <br>to respond as fast and accurately as possible.</li><li>Every picture can be classified as either mechanical or non-mechanical.</li><li>If you do not respond in time or commit an error, you will receive a corresponding feedback. <br>Please try to respond as <strong> fast </strong> and as <strong> accurately as possible </strong>.</li><li> Please remember only the to-be-remembered <span style='color: dodgerblue; font-size: 28px'>O</span> pictures. <br></li><li> Please minimize distractions and stay focused. </li><br><br>Press SPACE to START</div>","32","","","","","","","","","","","","","","","","","","","",""
"html-keyboard-response","47","407630","0.0-3.0-3.0-0.0","0cmxg3hwc3wbkre","practice_cue","5f0e22f2f5e4e1139be7ae38","5f60e3c0a3b16e07647b2ff9","5f60f6426f6e56025c121a56","false","null","<span style=""color: black; font-size: 48px"">M + N</span>","null","","","","resp_prompt","","","","","","","","","","","","","","","",""
"categorize-image","48","409635","0.0-3.0-3.0-1.0","0cmxg3hwc3wbkre","practice_cue","5f0e22f2f5e4e1139be7ae38","5f60e3c0a3b16e07647b2ff9","5f60f6426f6e56025c121a56","true","null","./Stimuli/ImagesPractice/LM147.jpg","null","","","","test","false","M + N","83","","LM","LM147.jpg","forget","old","17","2","practice_forget","too_slow","","","",""
"html-keyboard-response","49","410139","0.0-3.0-3.0-2.0-0.0","0cmxg3hwc3wbkre","practice_cue","5f0e22f2f5e4e1139be7ae38","5f60e3c0a3b16e07647b2ff9","5f60f6426f6e56025c121a56","false","null","<span style=""color: red; font-size: 48px"">Too slow!</span>","null","","","","feedback","","","","","","","","","","","","","","","",""
"html-keyboard-response","50","412144","0.0-3.0-3.0-3.0","0cmxg3hwc3wbkre","practice_cue","5f0e22f2f5e4e1139be7ae38","5f60e3c0a3b16e07647b2ff9","5f60f6426f6e56025c121a56","false","null","<div style=""align-items: center; display: flex; color: darkorange; font-size: 90px""><b>ø</b></div>","null","","","","forget_cue","","","","","","","","","","","","","","","",""
"html-keyboard-response","51","412847","0.0-3.0-3.0-0.1","0cmxg3hwc3wbkre","practice_cue","5f0e22f2f5e4e1139be7ae38","5f60e3c0a3b16e07647b2ff9","5f60f6426f6e56025c121a56","false","null","<span style=""color: black; font-size: 48px"">M + N</span>","null","","","","resp_prompt","","","","","","","","","","","","","","","",""
"categorize-image","52","413814","0.0-3.0-3.0-1.1","0cmxg3hwc3wbkre","practice_cue","5f0e22f2f5e4e1139be7ae38","5f60e3c0a3b16e07647b2ff9","5f60f6426f6e56025c121a56","true","963","./Stimuli/ImagesPractice/SN76.jpg","76","","","","test","true","M + N","76","","SN","SN76.jpg","forget","old","18","2","practice_forget","right","","","",""
"html-keyboard-response","53","415816","0.0-3.0-3.0-3.1","0cmxg3hwc3wbkre","practice_cue","5f0e22f2f5e4e1139be7ae38","5f60e3c0a3b16e07647b2ff9","5f60f6426f6e56025c121a56","false","null","<div style=""align-items: center; display: flex; color: darkorange; font-size: 90px""><b>ø</b></div>","null","","","","forget_cue","","","","","","","","","","","","","","","",""
"html-keyboard-response","54","416519","0.0-3.0-3.0-0.2","0cmxg3hwc3wbkre","practice_cue","5f0e22f2f5e4e1139be7ae38","5f60e3c0a3b16e07647b2ff9","5f60f6426f6e56025c121a56","false","null","<span style=""color: black; font-size: 48px"">M + N</span>","null","","","","resp_prompt","","","","","","","","","","","","","","","",""
"categorize-image","55","417552","0.0-3.0-3.0-1.2","0cmxg3hwc3wbkre","practice_cue","5f0e22f2f5e4e1139be7ae38","5f60e3c0a3b16e07647b2ff9","5f60f6426f6e56025c121a56","true","1030","./Stimuli/ImagesPractice/SM97.jpg","83","","","","test","true","M + N","83","","SM","SM97.jpg","forget","old","19","2","practice_forget","left","","","",""
"html-keyboard-response","56","419555","0.0-3.0-3.0-3.2","0cmxg3hwc3wbkre","practice_cue","5f0e22f2f5e4e1139be7ae38","5f60e3c0a3b16e07647b2ff9","5f60f6426f6e56025c121a56","false","null","<div style=""align-items: center; display: flex; color: darkorange; font-size: 90px""><b>ø</b></div>","null","","","","forget_cue","","","","","","","","","","","","","","","",""
"html-keyboard-response","57","420259","0.0-3.0-3.0-0.3","0cmxg3hwc3wbkre","practice_cue","5f0e22f2f5e4e1139be7ae38","5f60e3c0a3b16e07647b2ff9","5f60f6426f6e56025c121a56","false","null","<span style=""color: black; font-size: 48px"">M + N</span>","null","","","","resp_prompt","","","","","","","","","","","","","","","",""
"categorize-image","58","421360","0.0-3.0-3.0-1.3","0cmxg3hwc3wbkre","practice_cue","5f0e22f2f5e4e1139be7ae38","5f60e3c0a3b16e07647b2ff9","5f60f6426f6e56025c121a56","true","1097","./Stimuli/ImagesPractice/SN205.jpg","76","","","","test","true","M + N","76","","SN","SN205.jpg","remember","old","20","2","practice_forget","right","","","",""
"html-keyboard-response","59","423365","0.0-3.0-3.0-3.3","0cmxg3hwc3wbkre","practice_cue","5f0e22f2f5e4e1139be7ae38","5f60e3c0a3b16e07647b2ff9","5f60f6426f6e56025c121a56","false","null","<div style=""align-items: center; display: flex; color: dodgerblue; font-size: 90px""><b>o</b></div>","null","","","","forget_cue","","","","","","","","","","","","","","","",""
"html-keyboard-response","60","424070","0.0-3.0-3.0-0.4","0cmxg3hwc3wbkre","practice_cue","5f0e22f2f5e4e1139be7ae38","5f60e3c0a3b16e07647b2ff9","5f60f6426f6e56025c121a56","false","null","<span style=""color: black; font-size: 48px"">M + N</span>","null","","","","resp_prompt","","","","","","","","","","","","","","","",""
"categorize-image","61","425357","0.0-3.0-3.0-1.4","0cmxg3hwc3wbkre","practice_cue","5f0e22f2f5e4e1139be7ae38","5f60e3c0a3b16e07647b2ff9","5f60f6426f6e56025c121a56","true","1285","./Stimuli/ImagesPractice/SN75.jpg","83","","","","test","false","M + N","76","","SN","SN75.jpg","remember","old","21","2","practice_forget","left","","","",""
"html-keyboard-response","62","425860","0.0-3.0-3.0-2.4-0.4","0cmxg3hwc3wbkre","practice_cue","5f0e22f2f5e4e1139be7ae38","5f60e3c0a3b16e07647b2ff9","5f60f6426f6e56025c121a56","false","null","<span style=""color: red; font-size: 48px"">Error!</span>","null","","","","feedback","","","","","","","","","","","","","","","",""
"html-keyboard-response","63","427863","0.0-3.0-3.0-3.4","0cmxg3hwc3wbkre","practice_cue","5f0e22f2f5e4e1139be7ae38","5f60e3c0a3b16e07647b2ff9","5f60f6426f6e56025c121a56","false","null","<div style=""align-items: center; display: flex; color: dodgerblue; font-size: 90px""><b>o</b></div>","null","","","","forget_cue","","","","","","","","","","","","","","","",""
"html-keyboard-response","64","428566","0.0-3.0-3.0-0.5","0cmxg3hwc3wbkre","practice_cue","5f0e22f2f5e4e1139be7ae38","5f60e3c0a3b16e07647b2ff9","5f60f6426f6e56025c121a56","false","null","<span style=""color: black; font-size: 48px"">N + M</span>","null","","","","resp_prompt","","","","","","","","","","","","","","","",""
"categorize-image","65","429807","0.0-3.0-3.0-1.5","0cmxg3hwc3wbkre","practice_cue","5f0e22f2f5e4e1139be7ae38","5f60e3c0a3b16e07647b2ff9","5f60f6426f6e56025c121a56","true","1238","./Stimuli/ImagesPractice/LN2.jpg","83","","","","test","true","N + M","83","","LN","LN2.jpg","forget","old","22","2","practice_forget","left","","","",""
"html-keyboard-response","66","431809","0.0-3.0-3.0-3.5","0cmxg3hwc3wbkre","practice_cue","5f0e22f2f5e4e1139be7ae38","5f60e3c0a3b16e07647b2ff9","5f60f6426f6e56025c121a56","false","null","<div style=""align-items: center; display: flex; color: darkorange; font-size: 90px""><b>ø</b></div>","null","","","","forget_cue","","","","","","","","","","","","","","","",""
"html-keyboard-response","67","432514","0.0-3.0-3.0-0.6","0cmxg3hwc3wbkre","practice_cue","5f0e22f2f5e4e1139be7ae38","5f60e3c0a3b16e07647b2ff9","5f60f6426f6e56025c121a56","false","null","<span style=""color: black; font-size: 48px"">N + M</span>","null","","","","resp_prompt","","","","","","","","","","","","","","","",""
"categorize-image","68","434136","0.0-3.0-3.0-1.6","0cmxg3hwc3wbkre","practice_cue","5f0e22f2f5e4e1139be7ae38","5f60e3c0a3b16e07647b2ff9","5f60f6426f6e56025c121a56","true","1619","./Stimuli/ImagesPractice/LM55.jpg","76","","","","test","true","N + M","76","","LM","LM55.jpg","forget","old","23","2","practice_forget","right","","","",""
"html-keyboard-response","69","436138","0.0-3.0-3.0-3.6","0cmxg3hwc3wbkre","practice_cue","5f0e22f2f5e4e1139be7ae38","5f60e3c0a3b16e07647b2ff9","5f60f6426f6e56025c121a56","false","null","<div style=""align-items: center; display: flex; color: darkorange; font-size: 90px""><b>ø</b></div>","null","","","","forget_cue","","","","","","","","","","","","","","","",""
"html-keyboard-response","70","436840","0.0-3.0-3.0-0.7","0cmxg3hwc3wbkre","practice_cue","5f0e22f2f5e4e1139be7ae38","5f60e3c0a3b16e07647b2ff9","5f60f6426f6e56025c121a56","false","null","<span style=""color: black; font-size: 48px"">N + M</span>","null","","","","resp_prompt","","","","","","","","","","","","","","","",""
"categorize-image","71","438002","0.0-3.0-3.0-1.7","0cmxg3hwc3wbkre","practice_cue","5f0e22f2f5e4e1139be7ae38","5f60e3c0a3b16e07647b2ff9","5f60f6426f6e56025c121a56","true","1159.0000000000582","./Stimuli/ImagesPractice/SM35.jpg","83","","","","test","false","N + M","76","","SM","SM35.jpg","forget","old","24","2","practice_forget","left","","","",""
"html-keyboard-response","72","438504","0.0-3.0-3.0-2.7-0.7","0cmxg3hwc3wbkre","practice_cue","5f0e22f2f5e4e1139be7ae38","5f60e3c0a3b16e07647b2ff9","5f60f6426f6e56025c121a56","false","null","<span style=""color: red; font-size: 48px"">Error!</span>","null","","","","feedback","","","","","","","","","","","","","","","",""
"html-keyboard-response","73","440507","0.0-3.0-3.0-3.7","0cmxg3hwc3wbkre","practice_cue","5f0e22f2f5e4e1139be7ae38","5f60e3c0a3b16e07647b2ff9","5f60f6426f6e56025c121a56","false","null","<div style=""align-items: center; display: flex; color: darkorange; font-size: 90px""><b>ø</b></div>","null","","","","forget_cue","","","","","","","","","","","","","","","",""
"html-keyboard-response","74","441209","0.0-3.0-3.0-0.8","0cmxg3hwc3wbkre","practice_cue","5f0e22f2f5e4e1139be7ae38","5f60e3c0a3b16e07647b2ff9","5f60f6426f6e56025c121a56","false","null","<span style=""color: black; font-size: 48px"">M + N</span>","null","","","","resp_prompt","","","","","","","","","","","","","","","",""
"categorize-image","75","442258","0.0-3.0-3.0-1.8","0cmxg3hwc3wbkre","practice_cue","5f0e22f2f5e4e1139be7ae38","5f60e3c0a3b16e07647b2ff9","5f60f6426f6e56025c121a56","true","1046","./Stimuli/ImagesPractice/LM224.jpg","83","","","","test","true","M + N","83","","LM","LM224.jpg","remember","old","25","2","practice_forget","left","","","",""
"html-keyboard-response","76","444262","0.0-3.0-3.0-3.8","0cmxg3hwc3wbkre","practice_cue","5f0e22f2f5e4e1139be7ae38","5f60e3c0a3b16e07647b2ff9","5f60f6426f6e56025c121a56","false","null","<div style=""align-items: center; display: flex; color: dodgerblue; font-size: 90px""><b>o</b></div>","null","","","","forget_cue","","","","","","","","","","","","","","","",""
"html-keyboard-response","77","444965","0.0-3.0-3.0-0.9","0cmxg3hwc3wbkre","practice_cue","5f0e22f2f5e4e1139be7ae38","5f60e3c0a3b16e07647b2ff9","5f60f6426f6e56025c121a56","false","null","<span style=""color: black; font-size: 48px"">N + M</span>","null","","","","resp_prompt","","","","","","","","","","","","","","","",""
"categorize-image","78","446156","0.0-3.0-3.0-1.9","0cmxg3hwc3wbkre","practice_cue","5f0e22f2f5e4e1139be7ae38","5f60e3c0a3b16e07647b2ff9","5f60f6426f6e56025c121a56","true","1188.0000000000582","./Stimuli/ImagesPractice/LN72.jpg","83","","","","test","true","N + M","83","","LN","LN72.jpg","remember","old","26","2","practice_forget","left","","","",""
"html-keyboard-response","79","448160","0.0-3.0-3.0-3.9","0cmxg3hwc3wbkre","practice_cue","5f0e22f2f5e4e1139be7ae38","5f60e3c0a3b16e07647b2ff9","5f60f6426f6e56025c121a56","false","null","<div style=""align-items: center; display: flex; color: dodgerblue; font-size: 90px""><b>o</b></div>","null","","","","forget_cue","","","","","","","","","","","","","","","",""
"html-keyboard-response","80","448864","0.0-3.0-3.0-0.10","0cmxg3hwc3wbkre","practice_cue","5f0e22f2f5e4e1139be7ae38","5f60e3c0a3b16e07647b2ff9","5f60f6426f6e56025c121a56","false","null","<span style=""color: black; font-size: 48px"">N + M</span>","null","","","","resp_prompt","","","","","","","","","","","","","","","",""
"categorize-image","81","450158","0.0-3.0-3.0-1.10","0cmxg3hwc3wbkre","practice_cue","5f0e22f2f5e4e1139be7ae38","5f60e3c0a3b16e07647b2ff9","5f60f6426f6e56025c121a56","true","1290","./Stimuli/ImagesPractice/SM62.jpg","76","","","","test","true","N + M","76","","SM","SM62.jpg","remember","old","27","2","practice_forget","right","","","",""
"html-keyboard-response","82","452162","0.0-3.0-3.0-3.10","0cmxg3hwc3wbkre","practice_cue","5f0e22f2f5e4e1139be7ae38","5f60e3c0a3b16e07647b2ff9","5f60f6426f6e56025c121a56","false","null","<div style=""align-items: center; display: flex; color: dodgerblue; font-size: 90px""><b>o</b></div>","null","","","","forget_cue","","","","","","","","","","","","","","","",""
"html-keyboard-response","83","452867","0.0-3.0-3.0-0.11","0cmxg3hwc3wbkre","practice_cue","5f0e22f2f5e4e1139be7ae38","5f60e3c0a3b16e07647b2ff9","5f60f6426f6e56025c121a56","false","null","<span style=""color: black; font-size: 48px"">N + M</span>","null","","","","resp_prompt","","","","","","","","","","","","","","","",""
"categorize-image","84","454342","0.0-3.0-3.0-1.11","0cmxg3hwc3wbkre","practice_cue","5f0e22f2f5e4e1139be7ae38","5f60e3c0a3b16e07647b2ff9","5f60f6426f6e56025c121a56","true","1471.9999999999418","./Stimuli/ImagesPractice/SM61.jpg","76","","","","test","true","N + M","76","","SM","SM61.jpg","forget","old","28","2","practice_forget","right","","","",""
"html-keyboard-response","85","456344","0.0-3.0-3.0-3.11","0cmxg3hwc3wbkre","practice_cue","5f0e22f2f5e4e1139be7ae38","5f60e3c0a3b16e07647b2ff9","5f60f6426f6e56025c121a56","false","null","<div style=""align-items: center; display: flex; color: darkorange; font-size: 90px""><b>ø</b></div>","null","","","","forget_cue","","","","","","","","","","","","","","","",""
"html-keyboard-response","86","457048","0.0-3.0-3.0-0.12","0cmxg3hwc3wbkre","practice_cue","5f0e22f2f5e4e1139be7ae38","5f60e3c0a3b16e07647b2ff9","5f60f6426f6e56025c121a56","false","null","<span style=""color: black; font-size: 48px"">N + M</span>","null","","","","resp_prompt","","","","","","","","","","","","","","","",""
"categorize-image","87","458348","0.0-3.0-3.0-1.12","0cmxg3hwc3wbkre","practice_cue","5f0e22f2f5e4e1139be7ae38","5f60e3c0a3b16e07647b2ff9","5f60f6426f6e56025c121a56","true","1296","./Stimuli/ImagesPractice/SM37.jpg","76","","","","test","true","N + M","76","","SM","SM37.jpg","remember","old","29","2","practice_forget","right","","","",""
"html-keyboard-response","88","460350","0.0-3.0-3.0-3.12","0cmxg3hwc3wbkre","practice_cue","5f0e22f2f5e4e1139be7ae38","5f60e3c0a3b16e07647b2ff9","5f60f6426f6e56025c121a56","false","null","<div style=""align-items: center; display: flex; color: dodgerblue; font-size: 90px""><b>o</b></div>","null","","","","forget_cue","","","","","","","","","","","","","","","",""
"html-keyboard-response","89","461055","0.0-3.0-3.0-0.13","0cmxg3hwc3wbkre","practice_cue","5f0e22f2f5e4e1139be7ae38","5f60e3c0a3b16e07647b2ff9","5f60f6426f6e56025c121a56","false","null","<span style=""color: black; font-size: 48px"">M + N</span>","null","","","","resp_prompt","","","","","","","","","","","","","","","",""
"categorize-image","90","462114","0.0-3.0-3.0-1.13","0cmxg3hwc3wbkre","practice_cue","5f0e22f2f5e4e1139be7ae38","5f60e3c0a3b16e07647b2ff9","5f60f6426f6e56025c121a56","true","1057.0000000000582","./Stimuli/ImagesPractice/LN17.jpg","76","","","","test","true","M + N","76","","LN","LN17.jpg","forget","old","30","2","practice_forget","right","","","",""
"html-keyboard-response","91","464119","0.0-3.0-3.0-3.13","0cmxg3hwc3wbkre","practice_cue","5f0e22f2f5e4e1139be7ae38","5f60e3c0a3b16e07647b2ff9","5f60f6426f6e56025c121a56","false","null","<div style=""align-items: center; display: flex; color: darkorange; font-size: 90px""><b>ø</b></div>","null","","","","forget_cue","","","","","","","","","","","","","","","",""
"html-keyboard-response","92","464824","0.0-3.0-3.0-0.14","0cmxg3hwc3wbkre","practice_cue","5f0e22f2f5e4e1139be7ae38","5f60e3c0a3b16e07647b2ff9","5f60f6426f6e56025c121a56","false","null","<span style=""color: black; font-size: 48px"">M + N</span>","null","","","","resp_prompt","","","","","","","","","","","","","","","",""
"categorize-image","93","466207","0.0-3.0-3.0-1.14","0cmxg3hwc3wbkre","practice_cue","5f0e22f2f5e4e1139be7ae38","5f60e3c0a3b16e07647b2ff9","5f60f6426f6e56025c121a56","true","1379","./Stimuli/ImagesPractice/LN109.jpg","76","","","","test","true","M + N","76","","LN","LN109.jpg","remember","old","31","2","practice_forget","right","","","",""
"html-keyboard-response","94","468209","0.0-3.0-3.0-3.14","0cmxg3hwc3wbkre","practice_cue","5f0e22f2f5e4e1139be7ae38","5f60e3c0a3b16e07647b2ff9","5f60f6426f6e56025c121a56","false","null","<div style=""align-items: center; display: flex; color: dodgerblue; font-size: 90px""><b>o</b></div>","null","","","","forget_cue","","","","","","","","","","","","","","","",""
"html-keyboard-response","95","468912","0.0-3.0-3.0-0.15","0cmxg3hwc3wbkre","practice_cue","5f0e22f2f5e4e1139be7ae38","5f60e3c0a3b16e07647b2ff9","5f60f6426f6e56025c121a56","false","null","<span style=""color: black; font-size: 48px"">N + M</span>","null","","","","resp_prompt","","","","","","","","","","","","","","","",""
"categorize-image","96","470083","0.0-3.0-3.0-1.15","0cmxg3hwc3wbkre","practice_cue","5f0e22f2f5e4e1139be7ae38","5f60e3c0a3b16e07647b2ff9","5f60f6426f6e56025c121a56","true","1168","./Stimuli/ImagesPractice/SN220.jpg","83","","","","test","true","N + M","83","","SN","SN220.jpg","remember","old","32","2","practice_forget","left","","","",""
"html-keyboard-response","97","472085","0.0-3.0-3.0-3.15","0cmxg3hwc3wbkre","practice_cue","5f0e22f2f5e4e1139be7ae38","5f60e3c0a3b16e07647b2ff9","5f60f6426f6e56025c121a56","false","null","<div style=""align-items: center; display: flex; color: dodgerblue; font-size: 90px""><b>o</b></div>","null","","","","forget_cue","","","","","","","","","","","","","","","",""
"html-keyboard-response","98","479089","0.0-3.0-4.0","0cmxg3hwc3wbkre","break","5f0e22f2f5e4e1139be7ae38","5f60e3c0a3b16e07647b2ff9","5f60f6426f6e56025c121a56","false","7000","<p style='font-size: 32px;'>Break</><br><br><br><br><br><p style='font-size: 24px;'>In the last block, you committed 2 errors and did not respond in time on 1 trials.
</p><p style='font-size: 24px;'>Try to respond as fast and accurately as possible in the next block as well! </p><p style='font-size: 24px;'>Press SPACE to continue.</p>","32","","","","","","","","","","","","","","","","","","","",""
"html-keyboard-response","99","525268","0.0-3.0-5.0","0cmxg3hwc3wbkre","instructions","5f0e22f2f5e4e1139be7ae38","5f60e3c0a3b16e07647b2ff9","5f60f6426f6e56025c121a56","false","46179","<div align=left> Now, to practice, we kindly ask you to remember as many of the to-be-remembered pictures<br>of the previous learning phase as possible.<br><br>The pictures you were instructed to remember were the pictures followed by a <span style='color: dodgerblue; font-size: 28px'>O</span>.<br><br>In this memory test phase, you will also see some new pictures.<br>It is your task to remember whether you were presented with this specific picture in this study so far or not.<br>If you recognize an object (you have already seen it in this study), it is an OLD object. <br>If you do not recognize an object (you have NOT seen it in this study), it is a NEW object. <br><strong> Attention</strong>: As already mentioned, <span style='color: darkorange; font-size:28px'>Ø</span>-pictures will <strong>never</strong> appear in this memory test (neither as new objects). <br><br>Press SPACE to continue. </div>","32","","","","","","","","","","","","","","","","","","","",""
"html-keyboard-response","100","535347","0.0-3.0-6.0","0cmxg3hwc3wbkre","instructions","5f0e22f2f5e4e1139be7ae38","5f60e3c0a3b16e07647b2ff9","5f60f6426f6e56025c121a56","false","10077","<div align=left> M and N no longer will appear on the left/right of the fixation cross. <br>Instead there will be a note at the bottom of the left or right side  <br>indicating which key you should press for an old or new object:  <br> <br>Press the <strong>right</strong> key to classify an object as <strong>old</strong> and press the <strong>left</strong>, to classify an object as <strong>new</strong>.<br>Please classify the objects as new/old by again placing your index finger on the 'S' and 'L' keys <br>and press them accordingly.<br><br><strong>Old:</strong> This object has been presented before. <br><strong>New:</strong> This object has <strong>not</strong> been presented.<br><br>Now please put your right and left index fingers on the 'S' and 'L' keys of your keyboard. <br>Please respond as fast and as accurately as possible!<br><br>Press SPACE to continue. </div>","32","","","","","","","","","","","","","","","","","","","",""
"categorize-image","101","538743","0.0-3.0-7.0-0.0","0cmxg3hwc3wbkre","practice_recog","5f0e22f2f5e4e1139be7ae38","5f60e3c0a3b16e07647b2ff9","5f60f6426f6e56025c121a56","true","2889.9999999998836","./Stimuli/ImagesPractice/LM224.jpg","83","","","","test","true","","83","","LM","LM224.jpg","","old","33","3","practice_recog","left","","","",""
"categorize-image","102","540593","0.0-3.0-7.0-0.1","0cmxg3hwc3wbkre","practice_recog","5f0e22f2f5e4e1139be7ae38","5f60e3c0a3b16e07647b2ff9","5f60f6426f6e56025c121a56","true","1345","./Stimuli/ImagesPractice/LN4.jpg","76","","","","test","true","","76","","LN","LN4.jpg","","new","34","3","practice_recog","right","","","",""
"categorize-image","103","542228","0.0-3.0-7.0-0.2","0cmxg3hwc3wbkre","practice_recog","5f0e22f2f5e4e1139be7ae38","5f60e3c0a3b16e07647b2ff9","5f60f6426f6e56025c121a56","true","1131","./Stimuli/ImagesPractice/SM62.jpg","83","","","","test","true","","83","","SM","SM62.jpg","","old","35","3","practice_recog","left","","","",""
"categorize-image","104","544442","0.0-3.0-7.0-0.3","0cmxg3hwc3wbkre","practice_recog","5f0e22f2f5e4e1139be7ae38","5f60e3c0a3b16e07647b2ff9","5f60f6426f6e56025c121a56","true","1708.9999999998836","./Stimuli/ImagesPractice/LM143.jpg","76","","","","test","true","","76","","LM","LM143.jpg","","new","36","3","practice_recog","right","","","",""
"categorize-image","105","546075","0.0-3.0-7.0-0.4","0cmxg3hwc3wbkre","practice_recog","5f0e22f2f5e4e1139be7ae38","5f60e3c0a3b16e07647b2ff9","5f60f6426f6e56025c121a56","true","1129","./Stimuli/ImagesPractice/LM239.jpg","76","","","","test","true","","76","","LM","LM239.jpg","","new","37","3","practice_recog","right","","","",""
"categorize-image","106","547656","0.0-3.0-7.0-0.5","0cmxg3hwc3wbkre","practice_recog","5f0e22f2f5e4e1139be7ae38","5f60e3c0a3b16e07647b2ff9","5f60f6426f6e56025c121a56","true","1075.0000000001164","./Stimuli/ImagesPractice/SN205.jpg","83","","","","test","true","","83","","SN","SN205.jpg","","old","38","3","practice_recog","left","","","",""
"categorize-image","107","550008","0.0-3.0-7.0-0.6","0cmxg3hwc3wbkre","practice_recog","5f0e22f2f5e4e1139be7ae38","5f60e3c0a3b16e07647b2ff9","5f60f6426f6e56025c121a56","true","1848.9999999998836","./Stimuli/ImagesPractice/SN220.jpg","83","","","","test","true","","83","","SN","SN220.jpg","","old","39","3","practice_recog","left","","","",""
"categorize-image","108","551615","0.0-3.0-7.0-0.7","0cmxg3hwc3wbkre","practice_recog","5f0e22f2f5e4e1139be7ae38","5f60e3c0a3b16e07647b2ff9","5f60f6426f6e56025c121a56","true","1102","./Stimuli/ImagesPractice/LN15.jpg","76","","","","test","true","","76","","LN","LN15.jpg","","new","40","3","practice_recog","right","","","",""
"categorize-image","109","553311","0.0-3.0-7.0-0.8","0cmxg3hwc3wbkre","practice_recog","5f0e22f2f5e4e1139be7ae38","5f60e3c0a3b16e07647b2ff9","5f60f6426f6e56025c121a56","true","1191","./Stimuli/ImagesPractice/LN72.jpg","83","","","","test","true","","83","","LN","LN72.jpg","","old","41","3","practice_recog","left","","","",""
"categorize-image","110","555141","0.0-3.0-7.0-0.9","0cmxg3hwc3wbkre","practice_recog","5f0e22f2f5e4e1139be7ae38","5f60e3c0a3b16e07647b2ff9","5f60f6426f6e56025c121a56","true","1324","./Stimuli/ImagesPractice/SM98.jpg","76","","","","test","true","","76","","SM","SM98.jpg","","new","42","3","practice_recog","right","","","",""
"categorize-image","111","557041","0.0-3.0-7.0-0.10","0cmxg3hwc3wbkre","practice_recog","5f0e22f2f5e4e1139be7ae38","5f60e3c0a3b16e07647b2ff9","5f60f6426f6e56025c121a56","true","1395","./Stimuli/ImagesPractice/SM37.jpg","83","","","","test","true","","83","","SM","SM37.jpg","","old","43","3","practice_recog","left","","","",""
"categorize-image","112","559173","0.0-3.0-7.0-0.11","0cmxg3hwc3wbkre","practice_recog","5f0e22f2f5e4e1139be7ae38","5f60e3c0a3b16e07647b2ff9","5f60f6426f6e56025c121a56","true","1627","./Stimuli/ImagesPractice/SN222.jpg","76","","","","test","true","","76","","SN","SN222.jpg","","new","44","3","practice_recog","right","","","",""
"categorize-image","113","560841","0.0-3.0-7.0-0.12","0cmxg3hwc3wbkre","practice_recog","5f0e22f2f5e4e1139be7ae38","5f60e3c0a3b16e07647b2ff9","5f60f6426f6e56025c121a56","true","1162","./Stimuli/ImagesPractice/SN221.jpg","76","","","","test","true","","76","","SN","SN221.jpg","","new","45","3","practice_recog","right","","","",""
"categorize-image","114","562674","0.0-3.0-7.0-0.13","0cmxg3hwc3wbkre","practice_recog","5f0e22f2f5e4e1139be7ae38","5f60e3c0a3b16e07647b2ff9","5f60f6426f6e56025c121a56","true","1329","./Stimuli/ImagesPractice/LM230.jpg","76","","","","test","true","","76","","LM","LM230.jpg","","new","46","3","practice_recog","right","","","",""
"categorize-image","115","564306","0.0-3.0-7.0-0.14","0cmxg3hwc3wbkre","practice_recog","5f0e22f2f5e4e1139be7ae38","5f60e3c0a3b16e07647b2ff9","5f60f6426f6e56025c121a56","true","1128.9999999998836","./Stimuli/ImagesPractice/SN75.jpg","83","","","","test","true","","83","","SN","SN75.jpg","","old","47","3","practice_recog","left","","","",""
"categorize-image","116","565923","0.0-3.0-7.0-0.15","0cmxg3hwc3wbkre","practice_recog","5f0e22f2f5e4e1139be7ae38","5f60e3c0a3b16e07647b2ff9","5f60f6426f6e56025c121a56","true","1111","./Stimuli/ImagesPractice/LN109.jpg","83","","","","test","true","","83","","LN","LN109.jpg","","old","48","3","practice_recog","left","","","",""
"html-keyboard-response","117","577177","0.0-3.0-8.0","0cmxg3hwc3wbkre","instructions","5f0e22f2f5e4e1139be7ae38","5f60e3c0a3b16e07647b2ff9","5f60f6426f6e56025c121a56","false","11252","<div align=left> Great!<br><br>Are you ready to continue?<br>If you want to reread the instructions and redo the practice trials, please <br>press „Z“.<br><br>You can proceed when you are ready.<br><br>After the presentation of each object, you will receive an instruction whether to <br>remember or to forget the object.<br>We will test your memory of the following pictures only at the very end of <br>the experiment after all learning blocks are completed. <br><br>Press SPACE to CONTINUE when you are ready. </div>","32","","","","","","","","","","","","","","","","","","","",""
"html-keyboard-response","118","588529","0.0-4.0-0.0","0cmxg3hwc3wbkre","instructions","5f0e22f2f5e4e1139be7ae38","5f60e3c0a3b16e07647b2ff9","5f60f6426f6e56025c121a56","false","11351","<div align=left> The actual experiment is about to start.<br>The practice trials are over!<br><br>Please always respond both fast and accurately!<br><br>Remember: <br> <br><li> Please place your index fingers on the <strong>'S'</strong> and <strong>'L'</strong> keys <br>to respond as fast and accurately as possible.</li><li> Every picture can be classified as either mechanical or non-mechanical.</li><li> If you do not respond in time or commit an error, you will receive a corresponding feedback.<br> Please try to respond as <strong> fast </strong> and as <strong> accurately as possible </strong>.</li><li> Remember the <span style='color: dodgerblue; font-size: 28px'>O</span> pictures. <br></li><li> Please minimize distractions and stay focused. </li><br><br>Press SPACE to START.</div>","32","","","","","","","","","","","","","","","","","","","",""
"html-keyboard-response","119","589233","0.0-4.0-1.0-0.0","0cmxg3hwc3wbkre","prime","5f0e22f2f5e4e1139be7ae38","5f60e3c0a3b16e07647b2ff9","5f60f6426f6e56025c121a56","false","null","<span style=""color: black; font-size: 48px"">M + N</span>","null","","","","resp_prompt","","","","","","","","","","","","","","","",""
"categorize-image","120","590354","0.0-4.0-1.0-1.0","0cmxg3hwc3wbkre","prime","5f0e22f2f5e4e1139be7ae38","5f60e3c0a3b16e07647b2ff9","5f60f6426f6e56025c121a56","true","1117","./Stimuli/SelectedImages/LN/LN59.bmp","76","","","","test","true","M + N","76","switch","LN","LN59.bmp","forget","","49","3","prime1","right","","","",""
"html-keyboard-response","121","592357","0.0-4.0-1.0-3.0","0cmxg3hwc3wbkre","prime","5f0e22f2f5e4e1139be7ae38","5f60e3c0a3b16e07647b2ff9","5f60f6426f6e56025c121a56","false","null","<div style=""align-items: center; display: flex; color: darkorange; font-size: 90px""><b>ø</b></div>","null","","","","forget_cue","","","","","","","","","","","","","","","",""
"html-keyboard-response","122","593062","0.0-4.0-1.0-0.1","0cmxg3hwc3wbkre","prime","5f0e22f2f5e4e1139be7ae38","5f60e3c0a3b16e07647b2ff9","5f60f6426f6e56025c121a56","false","null","<span style=""color: black; font-size: 48px"">N + M</span>","null","","","","resp_prompt","","","","","","","","","","","","","","","",""
"categorize-image","123","594411","0.0-4.0-1.0-1.1","0cmxg3hwc3wbkre","prime","5f0e22f2f5e4e1139be7ae38","5f60e3c0a3b16e07647b2ff9","5f60f6426f6e56025c121a56","true","1345","./Stimuli/SelectedImages/LM/LM75.bmp","76","","","","test","true","N + M","76","switch","LM","LM75.bmp","forget","","50","3","prime1","right","","","",""
"html-keyboard-response","124","596413","0.0-4.0-1.0-3.1","0cmxg3hwc3wbkre","prime","5f0e22f2f5e4e1139be7ae38","5f60e3c0a3b16e07647b2ff9","5f60f6426f6e56025c121a56","false","null","<div style=""align-items: center; display: flex; color: darkorange; font-size: 90px""><b>ø</b></div>","null","","","","forget_cue","","","","","","","","","","","","","","","",""
"html-keyboard-response","125","597118","0.0-4.0-1.0-0.2","0cmxg3hwc3wbkre","prime","5f0e22f2f5e4e1139be7ae38","5f60e3c0a3b16e07647b2ff9","5f60f6426f6e56025c121a56","false","null","<span style=""color: black; font-size: 48px"">N + M</span>","null","","","","resp_prompt","","","","","","","","","","","","","","","",""
"categorize-image","126","598325","0.0-4.0-1.0-1.2","0cmxg3hwc3wbkre","prime","5f0e22f2f5e4e1139be7ae38","5f60e3c0a3b16e07647b2ff9","5f60f6426f6e56025c121a56","true","1204.0000000001164","./Stimuli/SelectedImages/LM/LM167.bmp","76","","","","test","true","N + M","76","switch","LM","LM167.bmp","remember","","51","3","prime1","right","","","",""
"html-keyboard-response","127","600329","0.0-4.0-1.0-3.2","0cmxg3hwc3wbkre","prime","5f0e22f2f5e4e1139be7ae38","5f60e3c0a3b16e07647b2ff9","5f60f6426f6e56025c121a56","false","null","<div style=""align-items: center; display: flex; color: dodgerblue; font-size: 90px""><b>o</b></div>","null","","","","forget_cue","","","","","","","","","","","","","","","",""
"html-keyboard-response","128","601032","0.0-4.0-1.0-0.3","0cmxg3hwc3wbkre","prime","5f0e22f2f5e4e1139be7ae38","5f60e3c0a3b16e07647b2ff9","5f60f6426f6e56025c121a56","false","null","<span style=""color: black; font-size: 48px"">N + M</span>","null","","","","resp_prompt","","","","","","","","","","","","","","","",""
"categorize-image","129","602138","0.0-4.0-1.0-1.3","0cmxg3hwc3wbkre","prime","5f0e22f2f5e4e1139be7ae38","5f60e3c0a3b16e07647b2ff9","5f60f6426f6e56025c121a56","true","1103","./Stimuli/SelectedImages/LN/LN92.bmp","83","","","","test","true","N + M","83","switch","LN","LN92.bmp","remember","","52","3","prime1","left","","","",""
"html-keyboard-response","130","604141","0.0-4.0-1.0-3.3","0cmxg3hwc3wbkre","prime","5f0e22f2f5e4e1139be7ae38","5f60e3c0a3b16e07647b2ff9","5f60f6426f6e56025c121a56","false","null","<div style=""align-items: center; display: flex; color: dodgerblue; font-size: 90px""><b>o</b></div>","null","","","","forget_cue","","","","","","","","","","","","","","","",""
"html-keyboard-response","131","604846","0.0-4.0-1.0-0.4","0cmxg3hwc3wbkre","prime","5f0e22f2f5e4e1139be7ae38","5f60e3c0a3b16e07647b2ff9","5f60f6426f6e56025c121a56","false","null","<span style=""color: black; font-size: 48px"">M + N</span>","null","","","","resp_prompt","","","","","","","","","","","","","","","",""
"categorize-image","132","606166","0.0-4.0-1.0-1.4","0cmxg3hwc3wbkre","prime","5f0e22f2f5e4e1139be7ae38","5f60e3c0a3b16e07647b2ff9","5f60f6426f6e56025c121a56","true","1316.9999999998836","./Stimuli/SelectedImages/LN/LN42.bmp","83","","","","test","false","M + N","76","repetition","LN","LN42.bmp","remember","","53","3","prime1","left","","","",""
"html-keyboard-response","133","606670","0.0-4.0-1.0-2.4-0.4","0cmxg3hwc3wbkre","prime","5f0e22f2f5e4e1139be7ae38","5f60e3c0a3b16e07647b2ff9","5f60f6426f6e56025c121a56","false","null","<span style=""color: red; font-size: 48px"">Error!</span>","null","","","","feedback","","","","","","","","","","","","","","","",""
"html-keyboard-response","134","608675","0.0-4.0-1.0-3.4","0cmxg3hwc3wbkre","prime","5f0e22f2f5e4e1139be7ae38","5f60e3c0a3b16e07647b2ff9","5f60f6426f6e56025c121a56","false","null","<div style=""align-items: center; display: flex; color: dodgerblue; font-size: 90px""><b>o</b></div>","null","","","","forget_cue","","","","","","","","","","","","","","","",""
"html-keyboard-response","135","609378","0.0-4.0-1.0-0.5","0cmxg3hwc3wbkre","prime","5f0e22f2f5e4e1139be7ae38","5f60e3c0a3b16e07647b2ff9","5f60f6426f6e56025c121a56","false","null","<span style=""color: black; font-size: 48px"">M + N</span>","null","","","","resp_prompt","","","","","","","","","","","","","","","",""
"categorize-image","136","610428","0.0-4.0-1.0-1.5","0cmxg3hwc3wbkre","prime","5f0e22f2f5e4e1139be7ae38","5f60e3c0a3b16e07647b2ff9","5f60f6426f6e56025c121a56","true","1046","./Stimuli/SelectedImages/SN/SN187.bmp","76","","","","test","true","M + N","76","repetition","SN","SN187.bmp","forget","","54","3","prime1","right","","","",""
"html-keyboard-response","137","612430","0.0-4.0-1.0-3.5","0cmxg3hwc3wbkre","prime","5f0e22f2f5e4e1139be7ae38","5f60e3c0a3b16e07647b2ff9","5f60f6426f6e56025c121a56","false","null","<div style=""align-items: center; display: flex; color: darkorange; font-size: 90px""><b>ø</b></div>","null","","","","forget_cue","","","","","","","","","","","","","","","",""
"html-keyboard-response","138","613135","0.0-4.0-1.0-0.6","0cmxg3hwc3wbkre","prime","5f0e22f2f5e4e1139be7ae38","5f60e3c0a3b16e07647b2ff9","5f60f6426f6e56025c121a56","false","null","<span style=""color: black; font-size: 48px"">M + N</span>","null","","","","resp_prompt","","","","","","","","","","","","","","","",""
"categorize-image","139","614254","0.0-4.0-1.0-1.6","0cmxg3hwc3wbkre","prime","5f0e22f2f5e4e1139be7ae38","5f60e3c0a3b16e07647b2ff9","5f60f6426f6e56025c121a56","true","1117","./Stimuli/SelectedImages/SN/SN27.bmp","76","","","","test","true","M + N","76","repetition","SN","SN27.bmp","remember","","55","3","prime1","right","","","",""
"html-keyboard-response","140","616256","0.0-4.0-1.0-3.6","0cmxg3hwc3wbkre","prime","5f0e22f2f5e4e1139be7ae38","5f60e3c0a3b16e07647b2ff9","5f60f6426f6e56025c121a56","false","null","<div style=""align-items: center; display: flex; color: dodgerblue; font-size: 90px""><b>o</b></div>","null","","","","forget_cue","","","","","","","","","","","","","","","",""
"html-keyboard-response","141","616961","0.0-4.0-1.0-0.7","0cmxg3hwc3wbkre","prime","5f0e22f2f5e4e1139be7ae38","5f60e3c0a3b16e07647b2ff9","5f60f6426f6e56025c121a56","false","null","<span style=""color: black; font-size: 48px"">M + N</span>","null","","","","resp_prompt","","","","","","","","","","","","","","","",""
"categorize-image","142","617964","0.0-4.0-1.0-1.7","0cmxg3hwc3wbkre","prime","5f0e22f2f5e4e1139be7ae38","5f60e3c0a3b16e07647b2ff9","5f60f6426f6e56025c121a56","true","1000","./Stimuli/SelectedImages/LM/LM100.bmp","83","","","","test","true","M + N","83","repetition","LM","LM100.bmp","forget","","56","3","prime1","left","","","",""
"html-keyboard-response","143","619966","0.0-4.0-1.0-3.7","0cmxg3hwc3wbkre","prime","5f0e22f2f5e4e1139be7ae38","5f60e3c0a3b16e07647b2ff9","5f60f6426f6e56025c121a56","false","null","<div style=""align-items: center; display: flex; color: darkorange; font-size: 90px""><b>ø</b></div>","null","","","","forget_cue","","","","","","","","","","","","","","","",""
"html-keyboard-response","144","620671","0.0-4.0-1.0-0.8","0cmxg3hwc3wbkre","prime","5f0e22f2f5e4e1139be7ae38","5f60e3c0a3b16e07647b2ff9","5f60f6426f6e56025c121a56","false","null","<span style=""color: black; font-size: 48px"">N + M</span>","null","","","","resp_prompt","","","","","","","","","","","","","","","",""
"categorize-image","145","622109","0.0-4.0-1.0-1.8","0cmxg3hwc3wbkre","prime","5f0e22f2f5e4e1139be7ae38","5f60e3c0a3b16e07647b2ff9","5f60f6426f6e56025c121a56","true","1434","./Stimuli/SelectedImages/LN/LN149.bmp","83","","","","test","true","N + M","83","switch","LN","LN149.bmp","forget","","57","3","prime1","left","","","",""
"html-keyboard-response","146","624113","0.0-4.0-1.0-3.8","0cmxg3hwc3wbkre","prime","5f0e22f2f5e4e1139be7ae38","5f60e3c0a3b16e07647b2ff9","5f60f6426f6e56025c121a56","false","null","<div style=""align-items: center; display: flex; color: darkorange; font-size: 90px""><b>ø</b></div>","null","","","","forget_cue","","","","","","","","","","","","","","","",""
"html-keyboard-response","147","624818","0.0-4.0-1.0-0.9","0cmxg3hwc3wbkre","prime","5f0e22f2f5e4e1139be7ae38","5f60e3c0a3b16e07647b2ff9","5f60f6426f6e56025c121a56","false","null","<span style=""color: black; font-size: 48px"">M + N</span>","null","","","","resp_prompt","","","","","","","","","","","","","","","",""
"categorize-image","148","625958","0.0-4.0-1.0-1.9","0cmxg3hwc3wbkre","prime","5f0e22f2f5e4e1139be7ae38","5f60e3c0a3b16e07647b2ff9","5f60f6426f6e56025c121a56","true","1136","./Stimuli/SelectedImages/SM/SM74.bmp","83","","","","test","true","M + N","83","repetition","SM","SM74.bmp","remember","","58","3","prime1","left","","","",""
"html-keyboard-response","149","627960","0.0-4.0-1.0-3.9","0cmxg3hwc3wbkre","prime","5f0e22f2f5e4e1139be7ae38","5f60e3c0a3b16e07647b2ff9","5f60f6426f6e56025c121a56","false","null","<div style=""align-items: center; display: flex; color: dodgerblue; font-size: 90px""><b>o</b></div>","null","","","","forget_cue","","","","","","","","","","","","","","","",""
"html-keyboard-response","150","628665","0.0-4.0-1.0-0.10","0cmxg3hwc3wbkre","prime","5f0e22f2f5e4e1139be7ae38","5f60e3c0a3b16e07647b2ff9","5f60f6426f6e56025c121a56","false","null","<span style=""color: black; font-size: 48px"">N + M</span>","null","","","","resp_prompt","","","","","","","","","","","","","","","",""
"categorize-image","151","629873","0.0-4.0-1.0-1.10","0cmxg3hwc3wbkre","prime","5f0e22f2f5e4e1139be7ae38","5f60e3c0a3b16e07647b2ff9","5f60f6426f6e56025c121a56","true","1205","./Stimuli/SelectedImages/LN/LN28.bmp","83","","","","test","true","N + M","83","repetition","LN","LN28.bmp","remember","","59","3","prime1","left","","","",""
"html-keyboard-response","152","631876","0.0-4.0-1.0-3.10","0cmxg3hwc3wbkre","prime","5f0e22f2f5e4e1139be7ae38","5f60e3c0a3b16e07647b2ff9","5f60f6426f6e56025c121a56","false","null","<div style=""align-items: center; display: flex; color: dodgerblue; font-size: 90px""><b>o</b></div>","null","","","","forget_cue","","","","","","","","","","","","","","","",""
"html-keyboard-response","153","632578","0.0-4.0-1.0-0.11","0cmxg3hwc3wbkre","prime","5f0e22f2f5e4e1139be7ae38","5f60e3c0a3b16e07647b2ff9","5f60f6426f6e56025c121a56","false","null","<span style=""color: black; font-size: 48px"">N + M</span>","null","","","","resp_prompt","","","","","","","","","","","","","","","",""
"categorize-image","154","633706","0.0-4.0-1.0-1.11","0cmxg3hwc3wbkre","prime","5f0e22f2f5e4e1139be7ae38","5f60e3c0a3b16e07647b2ff9","5f60f6426f6e56025c121a56","true","1124","./Stimuli/SelectedImages/SN/SN128.bmp","83","","","","test","true","N + M","83","switch","SN","SN128.bmp","remember","","60","3","prime1","left","","","",""
"html-keyboard-response","155","635711","0.0-4.0-1.0-3.11","0cmxg3hwc3wbkre","prime","5f0e22f2f5e4e1139be7ae38","5f60e3c0a3b16e07647b2ff9","5f60f6426f6e56025c121a56","false","null","<div style=""align-items: center; display: flex; color: dodgerblue; font-size: 90px""><b>o</b></div>","null","","","","forget_cue","","","","","","","","","","","","","","","",""
"html-keyboard-response","156","636416","0.0-4.0-1.0-0.12","0cmxg3hwc3wbkre","prime","5f0e22f2f5e4e1139be7ae38","5f60e3c0a3b16e07647b2ff9","5f60f6426f6e56025c121a56","false","null","<span style=""color: black; font-size: 48px"">N + M</span>","null","","","","resp_prompt","","","","","","","","","","","","","","","",""
"categorize-image","157","637989","0.0-4.0-1.0-1.12","0cmxg3hwc3wbkre","prime","5f0e22f2f5e4e1139be7ae38","5f60e3c0a3b16e07647b2ff9","5f60f6426f6e56025c121a56","true","1570","./Stimuli/SelectedImages/SN/SN155.bmp","83","","","","test","true","N + M","83","switch","SN","SN155.bmp","remember","","61","3","prime1","left","","","",""
"html-keyboard-response","158","639993","0.0-4.0-1.0-3.12","0cmxg3hwc3wbkre","prime","5f0e22f2f5e4e1139be7ae38","5f60e3c0a3b16e07647b2ff9","5f60f6426f6e56025c121a56","false","null","<div style=""align-items: center; display: flex; color: dodgerblue; font-size: 90px""><b>o</b></div>","null","","","","forget_cue","","","","","","","","","","","","","","","",""
"html-keyboard-response","159","640698","0.0-4.0-1.0-0.13","0cmxg3hwc3wbkre","prime","5f0e22f2f5e4e1139be7ae38","5f60e3c0a3b16e07647b2ff9","5f60f6426f6e56025c121a56","false","null","<span style=""color: black; font-size: 48px"">M + N</span>","null","","","","resp_prompt","","","","","","","","","","","","","","","",""
"categorize-image","160","641942","0.0-4.0-1.0-1.13","0cmxg3hwc3wbkre","prime","5f0e22f2f5e4e1139be7ae38","5f60e3c0a3b16e07647b2ff9","5f60f6426f6e56025c121a56","true","1240","./Stimuli/SelectedImages/LM/LM51.bmp","76","","","","test","false","M + N","83","repetition","LM","LM51.bmp","forget","","62","3","prime1","right","","","",""
"html-keyboard-response","161","642446","0.0-4.0-1.0-2.13-0.13","0cmxg3hwc3wbkre","prime","5f0e22f2f5e4e1139be7ae38","5f60e3c0a3b16e07647b2ff9","5f60f6426f6e56025c121a56","false","null","<span style=""color: red; font-size: 48px"">Error!</span>","null","","","","feedback","","","","","","","","","","","","","","","",""
"html-keyboard-response","162","644451","0.0-4.0-1.0-3.13","0cmxg3hwc3wbkre","prime","5f0e22f2f5e4e1139be7ae38","5f60e3c0a3b16e07647b2ff9","5f60f6426f6e56025c121a56","false","null","<div style=""align-items: center; display: flex; color: darkorange; font-size: 90px""><b>ø</b></div>","null","","","","forget_cue","","","","","","","","","","","","","","","",""
"html-keyboard-response","163","645154","0.0-4.0-1.0-0.14","0cmxg3hwc3wbkre","prime","5f0e22f2f5e4e1139be7ae38","5f60e3c0a3b16e07647b2ff9","5f60f6426f6e56025c121a56","false","null","<span style=""color: black; font-size: 48px"">N + M</span>","null","","","","resp_prompt","","","","","","","","","","","","","","","",""
"categorize-image","164","646227","0.0-4.0-1.0-1.14","0cmxg3hwc3wbkre","prime","5f0e22f2f5e4e1139be7ae38","5f60e3c0a3b16e07647b2ff9","5f60f6426f6e56025c121a56","true","1070","./Stimuli/SelectedImages/LN/LN13.bmp","83","","","","test","true","N + M","83","switch","LN","LN13.bmp","forget","","63","3","prime1","left","","","",""
"html-keyboard-response","165","648231","0.0-4.0-1.0-3.14","0cmxg3hwc3wbkre","prime","5f0e22f2f5e4e1139be7ae38","5f60e3c0a3b16e07647b2ff9","5f60f6426f6e56025c121a56","false","null","<div style=""align-items: center; display: flex; color: darkorange; font-size: 90px""><b>ø</b></div>","null","","","","forget_cue","","","","","","","","","","","","","","","",""
"html-keyboard-response","166","648936","0.0-4.0-1.0-0.15","0cmxg3hwc3wbkre","prime","5f0e22f2f5e4e1139be7ae38","5f60e3c0a3b16e07647b2ff9","5f60f6426f6e56025c121a56","false","null","<span style=""color: black; font-size: 48px"">N + M</span>","null","","","","resp_prompt","","","","","","","","","","","","","","","",""
"categorize-image","167","649996","0.0-4.0-1.0-1.15","0cmxg3hwc3wbkre","prime","5f0e22f2f5e4e1139be7ae38","5f60e3c0a3b16e07647b2ff9","5f60f6426f6e56025c121a56","true","1057.0000000001164","./Stimuli/SelectedImages/SM/SM205.bmp","76","","","","test","true","N + M","76","switch","SM","SM205.bmp","forget","","64","3","prime1","right","","","",""
"html-keyboard-response","168","651999","0.0-4.0-1.0-3.15","0cmxg3hwc3wbkre","prime","5f0e22f2f5e4e1139be7ae38","5f60e3c0a3b16e07647b2ff9","5f60f6426f6e56025c121a56","false","null","<div style=""align-items: center; display: flex; color: darkorange; font-size: 90px""><b>ø</b></div>","null","","","","forget_cue","","","","","","","","","","","","","","","",""
"html-keyboard-response","169","652701","0.0-4.0-1.0-0.16","0cmxg3hwc3wbkre","prime","5f0e22f2f5e4e1139be7ae38","5f60e3c0a3b16e07647b2ff9","5f60f6426f6e56025c121a56","false","null","<span style=""color: black; font-size: 48px"">M + N</span>","null","","","","resp_prompt","","","","","","","","","","","","","","","",""
"categorize-image","170","653807","0.0-4.0-1.0-1.16","0cmxg3hwc3wbkre","prime","5f0e22f2f5e4e1139be7ae38","5f60e3c0a3b16e07647b2ff9","5f60f6426f6e56025c121a56","true","1102","./Stimuli/SelectedImages/LN/LN12.bmp","76","","","","test","true","M + N","76","switch","LN","LN12.bmp","remember","","65","3","prime1","right","","","",""
"html-keyboard-response","171","655811","0.0-4.0-1.0-3.16","0cmxg3hwc3wbkre","prime","5f0e22f2f5e4e1139be7ae38","5f60e3c0a3b16e07647b2ff9","5f60f6426f6e56025c121a56","false","null","<div style=""align-items: center; display: flex; color: dodgerblue; font-size: 90px""><b>o</b></div>","null","","","","forget_cue","","","","","","","","","","","","","","","",""
"html-keyboard-response","172","656514","0.0-4.0-1.0-0.17","0cmxg3hwc3wbkre","prime","5f0e22f2f5e4e1139be7ae38","5f60e3c0a3b16e07647b2ff9","5f60f6426f6e56025c121a56","false","null","<span style=""color: black; font-size: 48px"">M + N</span>","null","","","","resp_prompt","","","","","","","","","","","","","","","",""
"categorize-image","173","657665","0.0-4.0-1.0-1.17","0cmxg3hwc3wbkre","prime","5f0e22f2f5e4e1139be7ae38","5f60e3c0a3b16e07647b2ff9","5f60f6426f6e56025c121a56","true","1148","./Stimuli/SelectedImages/SM/SM73.bmp","83","","","","test","true","M + N","83","switch","SM","SM73.bmp","forget","","66","3","prime1","left","","","",""
"html-keyboard-response","174","659667","0.0-4.0-1.0-3.17","0cmxg3hwc3wbkre","prime","5f0e22f2f5e4e1139be7ae38","5f60e3c0a3b16e07647b2ff9","5f60f6426f6e56025c121a56","false","null","<div style=""align-items: center; display: flex; color: darkorange; font-size: 90px""><b>ø</b></div>","null","","","","forget_cue","","","","","","","","","","","","","","","",""
"html-keyboard-response","175","660372","0.0-4.0-1.0-0.18","0cmxg3hwc3wbkre","prime","5f0e22f2f5e4e1139be7ae38","5f60e3c0a3b16e07647b2ff9","5f60f6426f6e56025c121a56","false","null","<span style=""color: black; font-size: 48px"">N + M</span>","null","","","","resp_prompt","","","","","","","","","","","","","","","",""
"categorize-image","176","661541","0.0-4.0-1.0-1.18","0cmxg3hwc3wbkre","prime","5f0e22f2f5e4e1139be7ae38","5f60e3c0a3b16e07647b2ff9","5f60f6426f6e56025c121a56","true","1166","./Stimuli/SelectedImages/SM/SM184.bmp","76","","","","test","true","N + M","76","repetition","SM","SM184.bmp","remember","","67","3","prime1","right","","","",""
"html-keyboard-response","177","663544","0.0-4.0-1.0-3.18","0cmxg3hwc3wbkre","prime","5f0e22f2f5e4e1139be7ae38","5f60e3c0a3b16e07647b2ff9","5f60f6426f6e56025c121a56","false","null","<div style=""align-items: center; display: flex; color: dodgerblue; font-size: 90px""><b>o</b></div>","null","","","","forget_cue","","","","","","","","","","","","","","","",""
"html-keyboard-response","178","664247","0.0-4.0-1.0-0.19","0cmxg3hwc3wbkre","prime","5f0e22f2f5e4e1139be7ae38","5f60e3c0a3b16e07647b2ff9","5f60f6426f6e56025c121a56","false","null","<span style=""color: black; font-size: 48px"">N + M</span>","null","","","","resp_prompt","","","","","","","","","","","","","","","",""
"categorize-image","179","665261","0.0-4.0-1.0-1.19","0cmxg3hwc3wbkre","prime","5f0e22f2f5e4e1139be7ae38","5f60e3c0a3b16e07647b2ff9","5f60f6426f6e56025c121a56","true","1009.9999999998836","./Stimuli/SelectedImages/SN/SN64.bmp","83","","","","test","true","N + M","83","repetition","SN","SN64.bmp","forget","","68","3","prime1","left","","","",""
"html-keyboard-response","180","667263","0.0-4.0-1.0-3.19","0cmxg3hwc3wbkre","prime","5f0e22f2f5e4e1139be7ae38","5f60e3c0a3b16e07647b2ff9","5f60f6426f6e56025c121a56","false","null","<div style=""align-items: center; display: flex; color: darkorange; font-size: 90px""><b>ø</b></div>","null","","","","forget_cue","","","","","","","","","","","","","","","",""
"html-keyboard-response","181","667968","0.0-4.0-1.0-0.20","0cmxg3hwc3wbkre","prime","5f0e22f2f5e4e1139be7ae38","5f60e3c0a3b16e07647b2ff9","5f60f6426f6e56025c121a56","false","null","<span style=""color: black; font-size: 48px"">M + N</span>","null","","","","resp_prompt","","","","","","","","","","","","","","","",""
"categorize-image","182","669226","0.0-4.0-1.0-1.20","0cmxg3hwc3wbkre","prime","5f0e22f2f5e4e1139be7ae38","5f60e3c0a3b16e07647b2ff9","5f60f6426f6e56025c121a56","true","1255","./Stimuli/SelectedImages/LM/LM129.bmp","83","","","","test","true","M + N","83","switch","LM","LM129.bmp","remember","","69","3","prime1","left","","","",""
"html-keyboard-response","183","671230","0.0-4.0-1.0-3.20","0cmxg3hwc3wbkre","prime","5f0e22f2f5e4e1139be7ae38","5f60e3c0a3b16e07647b2ff9","5f60f6426f6e56025c121a56","false","null","<div style=""align-items: center; display: flex; color: dodgerblue; font-size: 90px""><b>o</b></div>","null","","","","forget_cue","","","","","","","","","","","","","","","",""
"html-keyboard-response","184","671934","0.0-4.0-1.0-0.21","0cmxg3hwc3wbkre","prime","5f0e22f2f5e4e1139be7ae38","5f60e3c0a3b16e07647b2ff9","5f60f6426f6e56025c121a56","false","null","<span style=""color: black; font-size: 48px"">N + M</span>","null","","","","resp_prompt","","","","","","","","","","","","","","","",""
"categorize-image","185","673104","0.0-4.0-1.0-1.21","0cmxg3hwc3wbkre","prime","5f0e22f2f5e4e1139be7ae38","5f60e3c0a3b16e07647b2ff9","5f60f6426f6e56025c121a56","true","1166","./Stimuli/SelectedImages/SM/SM17.bmp","76","","","","test","true","N + M","76","repetition","SM","SM17.bmp","forget","","70","3","prime1","right","","","",""
"html-keyboard-response","186","675108","0.0-4.0-1.0-3.21","0cmxg3hwc3wbkre","prime","5f0e22f2f5e4e1139be7ae38","5f60e3c0a3b16e07647b2ff9","5f60f6426f6e56025c121a56","false","null","<div style=""align-items: center; display: flex; color: darkorange; font-size: 90px""><b>ø</b></div>","null","","","","forget_cue","","","","","","","","","","","","","","","",""
"html-keyboard-response","187","675813","0.0-4.0-1.0-0.22","0cmxg3hwc3wbkre","prime","5f0e22f2f5e4e1139be7ae38","5f60e3c0a3b16e07647b2ff9","5f60f6426f6e56025c121a56","false","null","<span style=""color: black; font-size: 48px"">M + N</span>","null","","","","resp_prompt","","","","","","","","","","","","","","","",""
"categorize-image","188","677356","0.0-4.0-1.0-1.22","0cmxg3hwc3wbkre","prime","5f0e22f2f5e4e1139be7ae38","5f60e3c0a3b16e07647b2ff9","5f60f6426f6e56025c121a56","true","1540","./Stimuli/SelectedImages/SM/SM213.bmp","83","","","","test","true","M + N","83","switch","SM","SM213.bmp","forget","","71","3","prime1","left","","","",""
"html-keyboard-response","189","679361","0.0-4.0-1.0-3.22","0cmxg3hwc3wbkre","prime","5f0e22f2f5e4e1139be7ae38","5f60e3c0a3b16e07647b2ff9","5f60f6426f6e56025c121a56","false","null","<div style=""align-items: center; display: flex; color: darkorange; font-size: 90px""><b>ø</b></div>","null","","","","forget_cue","","","","","","","","","","","","","","","",""
"html-keyboard-response","190","680066","0.0-4.0-1.0-0.23","0cmxg3hwc3wbkre","prime","5f0e22f2f5e4e1139be7ae38","5f60e3c0a3b16e07647b2ff9","5f60f6426f6e56025c121a56","false","null","<span style=""color: black; font-size: 48px"">M + N</span>","null","","","","resp_prompt","","","","","","","","","","","","","","","",""
"categorize-image","191","681581","0.0-4.0-1.0-1.23","0cmxg3hwc3wbkre","prime","5f0e22f2f5e4e1139be7ae38","5f60e3c0a3b16e07647b2ff9","5f60f6426f6e56025c121a56","true","1513","./Stimuli/SelectedImages/LM/LM209.bmp","83","","","","test","true","M + N","83","switch","LM","LM209.bmp","forget","","72","3","prime1","left","","","",""
"html-keyboard-response","192","683585","0.0-4.0-1.0-3.23","0cmxg3hwc3wbkre","prime","5f0e22f2f5e4e1139be7ae38","5f60e3c0a3b16e07647b2ff9","5f60f6426f6e56025c121a56","false","null","<div style=""align-items: center; display: flex; color: darkorange; font-size: 90px""><b>ø</b></div>","null","","","","forget_cue","","","","","","","","","","","","","","","",""
"html-keyboard-response","193","684290","0.0-4.0-1.0-0.24","0cmxg3hwc3wbkre","prime","5f0e22f2f5e4e1139be7ae38","5f60e3c0a3b16e07647b2ff9","5f60f6426f6e56025c121a56","false","null","<span style=""color: black; font-size: 48px"">M + N</span>","null","","","","resp_prompt","","","","","","","","","","","","","","","",""
"categorize-image","194","685340","0.0-4.0-1.0-1.24","0cmxg3hwc3wbkre","prime","5f0e22f2f5e4e1139be7ae38","5f60e3c0a3b16e07647b2ff9","5f60f6426f6e56025c121a56","true","1046.9999999998836","./Stimuli/SelectedImages/SN/SN93.bmp","76","","","","test","true","M + N","76","switch","SN","SN93.bmp","forget","","73","3","prime1","right","","","",""
"html-keyboard-response","195","687342","0.0-4.0-1.0-3.24","0cmxg3hwc3wbkre","prime","5f0e22f2f5e4e1139be7ae38","5f60e3c0a3b16e07647b2ff9","5f60f6426f6e56025c121a56","false","null","<div style=""align-items: center; display: flex; color: darkorange; font-size: 90px""><b>ø</b></div>","null","","","","forget_cue","","","","","","","","","","","","","","","",""
"html-keyboard-response","196","688047","0.0-4.0-1.0-0.25","0cmxg3hwc3wbkre","prime","5f0e22f2f5e4e1139be7ae38","5f60e3c0a3b16e07647b2ff9","5f60f6426f6e56025c121a56","false","null","<span style=""color: black; font-size: 48px"">N + M</span>","null","","","","resp_prompt","","","","","","","","","","","","","","","",""
"categorize-image","197","689349","0.0-4.0-1.0-1.25","0cmxg3hwc3wbkre","prime","5f0e22f2f5e4e1139be7ae38","5f60e3c0a3b16e07647b2ff9","5f60f6426f6e56025c121a56","true","1299","./Stimuli/SelectedImages/SM/SM76.bmp","76","","","","test","true","N + M","76","switch","SM","SM76.bmp","remember","","74","3","prime1","right","","","",""
"html-keyboard-response","198","691351","0.0-4.0-1.0-3.25","0cmxg3hwc3wbkre","prime","5f0e22f2f5e4e1139be7ae38","5f60e3c0a3b16e07647b2ff9","5f60f6426f6e56025c121a56","false","null","<div style=""align-items: center; display: flex; color: dodgerblue; font-size: 90px""><b>o</b></div>","null","","","","forget_cue","","","","","","","","","","","","","","","",""
"html-keyboard-response","199","692056","0.0-4.0-1.0-0.26","0cmxg3hwc3wbkre","prime","5f0e22f2f5e4e1139be7ae38","5f60e3c0a3b16e07647b2ff9","5f60f6426f6e56025c121a56","false","null","<span style=""color: black; font-size: 48px"">M + N</span>","null","","","","resp_prompt","","","","","","","","","","","","","","","",""
"categorize-image","200","693665","0.0-4.0-1.0-1.26","0cmxg3hwc3wbkre","prime","5f0e22f2f5e4e1139be7ae38","5f60e3c0a3b16e07647b2ff9","5f60f6426f6e56025c121a56","true","1606","./Stimuli/SelectedImages/SN/SN52.bmp","76","","","","test","true","M + N","76","repetition","SN","SN52.bmp","remember","","75","3","prime1","right","","","",""
"html-keyboard-response","201","695669","0.0-4.0-1.0-3.26","0cmxg3hwc3wbkre","prime","5f0e22f2f5e4e1139be7ae38","5f60e3c0a3b16e07647b2ff9","5f60f6426f6e56025c121a56","false","null","<div style=""align-items: center; display: flex; color: dodgerblue; font-size: 90px""><b>o</b></div>","null","","","","forget_cue","","","","","","","","","","","","","","","",""
"html-keyboard-response","202","696374","0.0-4.0-1.0-0.27","0cmxg3hwc3wbkre","prime","5f0e22f2f5e4e1139be7ae38","5f60e3c0a3b16e07647b2ff9","5f60f6426f6e56025c121a56","false","null","<span style=""color: black; font-size: 48px"">M + N</span>","null","","","","resp_prompt","","","","","","","","","","","","","","","",""
"categorize-image","203","697414","0.0-4.0-1.0-1.27","0cmxg3hwc3wbkre","prime","5f0e22f2f5e4e1139be7ae38","5f60e3c0a3b16e07647b2ff9","5f60f6426f6e56025c121a56","true","1036","./Stimuli/SelectedImages/SM/SM24.bmp","83","","","","test","true","M + N","83","repetition","SM","SM24.bmp","remember","","76","3","prime1","left","","","",""
"html-keyboard-response","204","699416","0.0-4.0-1.0-3.27","0cmxg3hwc3wbkre","prime","5f0e22f2f5e4e1139be7ae38","5f60e3c0a3b16e07647b2ff9","5f60f6426f6e56025c121a56","false","null","<div style=""align-items: center; display: flex; color: dodgerblue; font-size: 90px""><b>o</b></div>","null","","","","forget_cue","","","","","","","","","","","","","","","",""
"html-keyboard-response","205","700121","0.0-4.0-1.0-0.28","0cmxg3hwc3wbkre","prime","5f0e22f2f5e4e1139be7ae38","5f60e3c0a3b16e07647b2ff9","5f60f6426f6e56025c121a56","false","null","<span style=""color: black; font-size: 48px"">M + N</span>","null","","","","resp_prompt","","","","","","","","","","","","","","","",""
"categorize-image","206","701563","0.0-4.0-1.0-1.28","0cmxg3hwc3wbkre","prime","5f0e22f2f5e4e1139be7ae38","5f60e3c0a3b16e07647b2ff9","5f60f6426f6e56025c121a56","true","1439","./Stimuli/SelectedImages/SM/SM78.bmp","83","","","","test","true","M + N","83","repetition","SM","SM78.bmp","forget","","77","3","prime1","left","","","",""
"html-keyboard-response","207","703567","0.0-4.0-1.0-3.28","0cmxg3hwc3wbkre","prime","5f0e22f2f5e4e1139be7ae38","5f60e3c0a3b16e07647b2ff9","5f60f6426f6e56025c121a56","false","null","<div style=""align-items: center; display: flex; color: darkorange; font-size: 90px""><b>ø</b></div>","null","","","","forget_cue","","","","","","","","","","","","","","","",""
"html-keyboard-response","208","704271","0.0-4.0-1.0-0.29","0cmxg3hwc3wbkre","prime","5f0e22f2f5e4e1139be7ae38","5f60e3c0a3b16e07647b2ff9","5f60f6426f6e56025c121a56","false","null","<span style=""color: black; font-size: 48px"">N + M</span>","null","","","","resp_prompt","","","","","","","","","","","","","","","",""
"categorize-image","209","705691","0.0-4.0-1.0-1.29","0cmxg3hwc3wbkre","prime","5f0e22f2f5e4e1139be7ae38","5f60e3c0a3b16e07647b2ff9","5f60f6426f6e56025c121a56","true","1416","./Stimuli/SelectedImages/LM/LM58.bmp","76","","","","test","true","N + M","76","switch","LM","LM58.bmp","remember","","78","3","prime1","right","","","",""
"html-keyboard-response","210","707692","0.0-4.0-1.0-3.29","0cmxg3hwc3wbkre","prime","5f0e22f2f5e4e1139be7ae38","5f60e3c0a3b16e07647b2ff9","5f60f6426f6e56025c121a56","false","null","<div style=""align-items: center; display: flex; color: dodgerblue; font-size: 90px""><b>o</b></div>","null","","","","forget_cue","","","","","","","","","","","","","","","",""
"html-keyboard-response","211","708397","0.0-4.0-1.0-0.30","0cmxg3hwc3wbkre","prime","5f0e22f2f5e4e1139be7ae38","5f60e3c0a3b16e07647b2ff9","5f60f6426f6e56025c121a56","false","null","<span style=""color: black; font-size: 48px"">N + M</span>","null","","","","resp_prompt","","","","","","","","","","","","","","","",""
"categorize-image","212","709483","0.0-4.0-1.0-1.30","0cmxg3hwc3wbkre","prime","5f0e22f2f5e4e1139be7ae38","5f60e3c0a3b16e07647b2ff9","5f60f6426f6e56025c121a56","true","1083","./Stimuli/SelectedImages/SN/SN60.bmp","83","","","","test","true","N + M","83","repetition","SN","SN60.bmp","remember","","79","3","prime1","left","","","",""
"html-keyboard-response","213","711486","0.0-4.0-1.0-3.30","0cmxg3hwc3wbkre","prime","5f0e22f2f5e4e1139be7ae38","5f60e3c0a3b16e07647b2ff9","5f60f6426f6e56025c121a56","false","null","<div style=""align-items: center; display: flex; color: dodgerblue; font-size: 90px""><b>o</b></div>","null","","","","forget_cue","","","","","","","","","","","","","","","",""
"html-keyboard-response","214","712191","0.0-4.0-1.0-0.31","0cmxg3hwc3wbkre","prime","5f0e22f2f5e4e1139be7ae38","5f60e3c0a3b16e07647b2ff9","5f60f6426f6e56025c121a56","false","null","<span style=""color: black; font-size: 48px"">N + M</span>","null","","","","resp_prompt","","","","","","","","","","","","","","","",""
"categorize-image","215","713258","0.0-4.0-1.0-1.31","0cmxg3hwc3wbkre","prime","5f0e22f2f5e4e1139be7ae38","5f60e3c0a3b16e07647b2ff9","5f60f6426f6e56025c121a56","true","1063","./Stimuli/SelectedImages/LM/LM59.bmp","76","","","","test","true","N + M","76","switch","LM","LM59.bmp","forget","","80","3","prime1","right","","","",""
"html-keyboard-response","216","715260","0.0-4.0-1.0-3.31","0cmxg3hwc3wbkre","prime","5f0e22f2f5e4e1139be7ae38","5f60e3c0a3b16e07647b2ff9","5f60f6426f6e56025c121a56","false","null","<div style=""align-items: center; display: flex; color: darkorange; font-size: 90px""><b>ø</b></div>","null","","","","forget_cue","","","","","","","","","","","","","","","",""
"html-keyboard-response","217","715964","0.0-4.0-1.0-0.32","0cmxg3hwc3wbkre","prime","5f0e22f2f5e4e1139be7ae38","5f60e3c0a3b16e07647b2ff9","5f60f6426f6e56025c121a56","false","null","<span style=""color: black; font-size: 48px"">N + M</span>","null","","","","resp_prompt","","","","","","","","","","","","","","","",""
"categorize-image","218","717969","0.0-4.0-1.0-1.32","0cmxg3hwc3wbkre","prime","5f0e22f2f5e4e1139be7ae38","5f60e3c0a3b16e07647b2ff9","5f60f6426f6e56025c121a56","true","null","./Stimuli/SelectedImages/SM/SM106.bmp","null","","","","test","false","N + M","76","switch","SM","SM106.bmp","remember","","81","3","prime1","too_slow","","","",""
"html-keyboard-response","219","718474","0.0-4.0-1.0-2.32-0.32","0cmxg3hwc3wbkre","prime","5f0e22f2f5e4e1139be7ae38","5f60e3c0a3b16e07647b2ff9","5f60f6426f6e56025c121a56","false","null","<span style=""color: red; font-size: 48px"">Too slow!</span>","null","","","","feedback","","","","","","","","","","","","","","","",""
"html-keyboard-response","220","720477","0.0-4.0-1.0-3.32","0cmxg3hwc3wbkre","prime","5f0e22f2f5e4e1139be7ae38","5f60e3c0a3b16e07647b2ff9","5f60f6426f6e56025c121a56","false","null","<div style=""align-items: center; display: flex; color: dodgerblue; font-size: 90px""><b>o</b></div>","null","","","","forget_cue","","","","","","","","","","","","","","","",""
"html-keyboard-response","221","721182","0.0-4.0-1.0-0.33","0cmxg3hwc3wbkre","prime","5f0e22f2f5e4e1139be7ae38","5f60e3c0a3b16e07647b2ff9","5f60f6426f6e56025c121a56","false","null","<span style=""color: black; font-size: 48px"">M + N</span>","null","","","","resp_prompt","","","","","","","","","","","","","","","",""
"categorize-image","222","722239","0.0-4.0-1.0-1.33","0cmxg3hwc3wbkre","prime","5f0e22f2f5e4e1139be7ae38","5f60e3c0a3b16e07647b2ff9","5f60f6426f6e56025c121a56","true","1053","./Stimuli/SelectedImages/SN/SN18.bmp","76","","","","test","true","M + N","76","switch","SN","SN18.bmp","remember","","82","3","prime1","right","","","",""
"html-keyboard-response","223","724241","0.0-4.0-1.0-3.33","0cmxg3hwc3wbkre","prime","5f0e22f2f5e4e1139be7ae38","5f60e3c0a3b16e07647b2ff9","5f60f6426f6e56025c121a56","false","null","<div style=""align-items: center; display: flex; color: dodgerblue; font-size: 90px""><b>o</b></div>","null","","","","forget_cue","","","","","","","","","","","","","","","",""
"html-keyboard-response","224","724946","0.0-4.0-1.0-0.34","0cmxg3hwc3wbkre","prime","5f0e22f2f5e4e1139be7ae38","5f60e3c0a3b16e07647b2ff9","5f60f6426f6e56025c121a56","false","null","<span style=""color: black; font-size: 48px"">M + N</span>","null","","","","resp_prompt","","","","","","","","","","","","","","","",""
"categorize-image","225","726023","0.0-4.0-1.0-1.34","0cmxg3hwc3wbkre","prime","5f0e22f2f5e4e1139be7ae38","5f60e3c0a3b16e07647b2ff9","5f60f6426f6e56025c121a56","true","1074.0000000001164","./Stimuli/SelectedImages/LN/LN101.bmp","76","","","","test","true","M + N","76","switch","LN","LN101.bmp","remember","","83","3","prime1","right","","","",""
"html-keyboard-response","226","728025","0.0-4.0-1.0-3.34","0cmxg3hwc3wbkre","prime","5f0e22f2f5e4e1139be7ae38","5f60e3c0a3b16e07647b2ff9","5f60f6426f6e56025c121a56","false","null","<div style=""align-items: center; display: flex; color: dodgerblue; font-size: 90px""><b>o</b></div>","null","","","","forget_cue","","","","","","","","","","","","","","","",""
"html-keyboard-response","227","728728","0.0-4.0-1.0-0.35","0cmxg3hwc3wbkre","prime","5f0e22f2f5e4e1139be7ae38","5f60e3c0a3b16e07647b2ff9","5f60f6426f6e56025c121a56","false","null","<span style=""color: black; font-size: 48px"">M + N</span>","null","","","","resp_prompt","","","","","","","","","","","","","","","",""
"categorize-image","228","730263","0.0-4.0-1.0-1.35","0cmxg3hwc3wbkre","prime","5f0e22f2f5e4e1139be7ae38","5f60e3c0a3b16e07647b2ff9","5f60f6426f6e56025c121a56","true","1532","./Stimuli/SelectedImages/SN/SN240.bmp","76","","","","test","true","M + N","76","switch","SN","SN240.bmp","forget","","84","3","prime1","right","","","",""
"html-keyboard-response","229","732265","0.0-4.0-1.0-3.35","0cmxg3hwc3wbkre","prime","5f0e22f2f5e4e1139be7ae38","5f60e3c0a3b16e07647b2ff9","5f60f6426f6e56025c121a56","false","null","<div style=""align-items: center; display: flex; color: darkorange; font-size: 90px""><b>ø</b></div>","null","","","","forget_cue","","","","","","","","","","","","","","","",""
"html-keyboard-response","230","732970","0.0-4.0-1.0-0.36","0cmxg3hwc3wbkre","prime","5f0e22f2f5e4e1139be7ae38","5f60e3c0a3b16e07647b2ff9","5f60f6426f6e56025c121a56","false","null","<span style=""color: black; font-size: 48px"">N + M</span>","null","","","","resp_prompt","","","","","","","","","","","","","","","",""
"categorize-image","231","734083","0.0-4.0-1.0-1.36","0cmxg3hwc3wbkre","prime","5f0e22f2f5e4e1139be7ae38","5f60e3c0a3b16e07647b2ff9","5f60f6426f6e56025c121a56","true","1111","./Stimuli/SelectedImages/SN/SN182.bmp","83","","","","test","true","N + M","83","repetition","SN","SN182.bmp","forget","","85","3","prime1","left","","","",""
"html-keyboard-response","232","736088","0.0-4.0-1.0-3.36","0cmxg3hwc3wbkre","prime","5f0e22f2f5e4e1139be7ae38","5f60e3c0a3b16e07647b2ff9","5f60f6426f6e56025c121a56","false","null","<div style=""align-items: center; display: flex; color: darkorange; font-size: 90px""><b>ø</b></div>","null","","","","forget_cue","","","","","","","","","","","","","","","",""
"html-keyboard-response","233","736792","0.0-4.0-1.0-0.37","0cmxg3hwc3wbkre","prime","5f0e22f2f5e4e1139be7ae38","5f60e3c0a3b16e07647b2ff9","5f60f6426f6e56025c121a56","false","null","<span style=""color: black; font-size: 48px"">N + M</span>","null","","","","resp_prompt","","","","","","","","","","","","","","","",""
"categorize-image","234","737766","0.0-4.0-1.0-1.37","0cmxg3hwc3wbkre","prime","5f0e22f2f5e4e1139be7ae38","5f60e3c0a3b16e07647b2ff9","5f60f6426f6e56025c121a56","true","970","./Stimuli/SelectedImages/LM/LM150.bmp","76","","","","test","true","N + M","76","repetition","LM","LM150.bmp","remember","","86","3","prime1","right","","","",""
"html-keyboard-response","235","739770","0.0-4.0-1.0-3.37","0cmxg3hwc3wbkre","prime","5f0e22f2f5e4e1139be7ae38","5f60e3c0a3b16e07647b2ff9","5f60f6426f6e56025c121a56","false","null","<div style=""align-items: center; display: flex; color: dodgerblue; font-size: 90px""><b>o</b></div>","null","","","","forget_cue","","","","","","","","","","","","","","","",""
"html-keyboard-response","236","740472","0.0-4.0-1.0-0.38","0cmxg3hwc3wbkre","prime","5f0e22f2f5e4e1139be7ae38","5f60e3c0a3b16e07647b2ff9","5f60f6426f6e56025c121a56","false","null","<span style=""color: black; font-size: 48px"">N + M</span>","null","","","","resp_prompt","","","","","","","","","","","","","","","",""
"categorize-image","237","741432","0.0-4.0-1.0-1.38","0cmxg3hwc3wbkre","prime","5f0e22f2f5e4e1139be7ae38","5f60e3c0a3b16e07647b2ff9","5f60f6426f6e56025c121a56","true","956.9999999998836","./Stimuli/SelectedImages/SN/SN181.bmp","83","","","","test","true","N + M","83","switch","SN","SN181.bmp","forget","","87","3","prime1","left","","","",""
"html-keyboard-response","238","743434","0.0-4.0-1.0-3.38","0cmxg3hwc3wbkre","prime","5f0e22f2f5e4e1139be7ae38","5f60e3c0a3b16e07647b2ff9","5f60f6426f6e56025c121a56","false","null","<div style=""align-items: center; display: flex; color: darkorange; font-size: 90px""><b>ø</b></div>","null","","","","forget_cue","","","","","","","","","","","","","","","",""
"html-keyboard-response","239","744139","0.0-4.0-1.0-0.39","0cmxg3hwc3wbkre","prime","5f0e22f2f5e4e1139be7ae38","5f60e3c0a3b16e07647b2ff9","5f60f6426f6e56025c121a56","false","null","<span style=""color: black; font-size: 48px"">M + N</span>","null","","","","resp_prompt","","","","","","","","","","","","","","","",""
"categorize-image","240","745204","0.0-4.0-1.0-1.39","0cmxg3hwc3wbkre","prime","5f0e22f2f5e4e1139be7ae38","5f60e3c0a3b16e07647b2ff9","5f60f6426f6e56025c121a56","true","1061.9999999998836","./Stimuli/SelectedImages/LM/LM57.bmp","83","","","","test","true","M + N","83","repetition","LM","LM57.bmp","remember","","88","3","prime1","left","","","",""
"html-keyboard-response","241","747208","0.0-4.0-1.0-3.39","0cmxg3hwc3wbkre","prime","5f0e22f2f5e4e1139be7ae38","5f60e3c0a3b16e07647b2ff9","5f60f6426f6e56025c121a56","false","null","<div style=""align-items: center; display: flex; color: dodgerblue; font-size: 90px""><b>o</b></div>","null","","","","forget_cue","","","","","","","","","","","","","","","",""
"html-keyboard-response","242","747913","0.0-4.0-1.0-0.40","0cmxg3hwc3wbkre","prime","5f0e22f2f5e4e1139be7ae38","5f60e3c0a3b16e07647b2ff9","5f60f6426f6e56025c121a56","false","null","<span style=""color: black; font-size: 48px"">N + M</span>","null","","","","resp_prompt","","","","","","","","","","","","","","","",""
"categorize-image","243","749054","0.0-4.0-1.0-1.40","0cmxg3hwc3wbkre","prime","5f0e22f2f5e4e1139be7ae38","5f60e3c0a3b16e07647b2ff9","5f60f6426f6e56025c121a56","true","1137.9999999998836","./Stimuli/SelectedImages/LN/LN150.bmp","83","","","","test","true","N + M","83","repetition","LN","LN150.bmp","forget","","89","3","prime1","left","","","",""
"html-keyboard-response","244","751059","0.0-4.0-1.0-3.40","0cmxg3hwc3wbkre","prime","5f0e22f2f5e4e1139be7ae38","5f60e3c0a3b16e07647b2ff9","5f60f6426f6e56025c121a56","false","null","<div style=""align-items: center; display: flex; color: darkorange; font-size: 90px""><b>ø</b></div>","null","","","","forget_cue","","","","","","","","","","","","","","","",""
"html-keyboard-response","245","751764","0.0-4.0-1.0-0.41","0cmxg3hwc3wbkre","prime","5f0e22f2f5e4e1139be7ae38","5f60e3c0a3b16e07647b2ff9","5f60f6426f6e56025c121a56","false","null","<span style=""color: black; font-size: 48px"">N + M</span>","null","","","","resp_prompt","","","","","","","","","","","","","","","",""
"categorize-image","246","752968","0.0-4.0-1.0-1.41","0cmxg3hwc3wbkre","prime","5f0e22f2f5e4e1139be7ae38","5f60e3c0a3b16e07647b2ff9","5f60f6426f6e56025c121a56","true","1199.9999999998836","./Stimuli/SelectedImages/SM/SM148.bmp","76","","","","test","true","N + M","76","repetition","SM","SM148.bmp","forget","","90","3","prime1","right","","","",""
"html-keyboard-response","247","754972","0.0-4.0-1.0-3.41","0cmxg3hwc3wbkre","prime","5f0e22f2f5e4e1139be7ae38","5f60e3c0a3b16e07647b2ff9","5f60f6426f6e56025c121a56","false","null","<div style=""align-items: center; display: flex; color: darkorange; font-size: 90px""><b>ø</b></div>","null","","","","forget_cue","","","","","","","","","","","","","","","",""
"html-keyboard-response","248","755677","0.0-4.0-1.0-0.42","0cmxg3hwc3wbkre","prime","5f0e22f2f5e4e1139be7ae38","5f60e3c0a3b16e07647b2ff9","5f60f6426f6e56025c121a56","false","null","<span style=""color: black; font-size: 48px"">N + M</span>","null","","","","resp_prompt","","","","","","","","","","","","","","","",""
"categorize-image","249","756992","0.0-4.0-1.0-1.42","0cmxg3hwc3wbkre","prime","5f0e22f2f5e4e1139be7ae38","5f60e3c0a3b16e07647b2ff9","5f60f6426f6e56025c121a56","true","1312","./Stimuli/SelectedImages/LM/LM103.bmp","76","","","","test","true","N + M","76","repetition","LM","LM103.bmp","remember","","91","3","prime1","right","","","",""
"html-keyboard-response","250","758994","0.0-4.0-1.0-3.42","0cmxg3hwc3wbkre","prime","5f0e22f2f5e4e1139be7ae38","5f60e3c0a3b16e07647b2ff9","5f60f6426f6e56025c121a56","false","null","<div style=""align-items: center; display: flex; color: dodgerblue; font-size: 90px""><b>o</b></div>","null","","","","forget_cue","","","","","","","","","","","","","","","",""
"html-keyboard-response","251","759697","0.0-4.0-1.0-0.43","0cmxg3hwc3wbkre","prime","5f0e22f2f5e4e1139be7ae38","5f60e3c0a3b16e07647b2ff9","5f60f6426f6e56025c121a56","false","null","<span style=""color: black; font-size: 48px"">N + M</span>","null","","","","resp_prompt","","","","","","","","","","","","","","","",""
"categorize-image","252","760770","0.0-4.0-1.0-1.43","0cmxg3hwc3wbkre","prime","5f0e22f2f5e4e1139be7ae38","5f60e3c0a3b16e07647b2ff9","5f60f6426f6e56025c121a56","true","1069.9999999998836","./Stimuli/SelectedImages/SN/SN49.bmp","83","","","","test","true","N + M","83","repetition","SN","SN49.bmp","remember","","92","3","prime1","left","","","",""
"html-keyboard-response","253","762774","0.0-4.0-1.0-3.43","0cmxg3hwc3wbkre","prime","5f0e22f2f5e4e1139be7ae38","5f60e3c0a3b16e07647b2ff9","5f60f6426f6e56025c121a56","false","null","<div style=""align-items: center; display: flex; color: dodgerblue; font-size: 90px""><b>o</b></div>","null","","","","forget_cue","","","","","","","","","","","","","","","",""
"html-keyboard-response","254","763479","0.0-4.0-1.0-0.44","0cmxg3hwc3wbkre","prime","5f0e22f2f5e4e1139be7ae38","5f60e3c0a3b16e07647b2ff9","5f60f6426f6e56025c121a56","false","null","<span style=""color: black; font-size: 48px"">N + M</span>","null","","","","resp_prompt","","","","","","","","","","","","","","","",""
"categorize-image","255","764553","0.0-4.0-1.0-1.44","0cmxg3hwc3wbkre","prime","5f0e22f2f5e4e1139be7ae38","5f60e3c0a3b16e07647b2ff9","5f60f6426f6e56025c121a56","true","1072","./Stimuli/SelectedImages/LN/LN128.bmp","76","","","","test","false","N + M","83","repetition","LN","LN128.bmp","remember","","93","3","prime1","right","","","",""
"html-keyboard-response","256","765056","0.0-4.0-1.0-2.44-0.44","0cmxg3hwc3wbkre","prime","5f0e22f2f5e4e1139be7ae38","5f60e3c0a3b16e07647b2ff9","5f60f6426f6e56025c121a56","false","null","<span style=""color: red; font-size: 48px"">Error!</span>","null","","","","feedback","","","","","","","","","","","","","","","",""
