"trial_type","trial_index","time_elapsed","internal_node_id","subject","exp_part","prolific_PID","study_ID","session_ID","use","rt","stimulus","key_press","button_pressed","responses","question_order","trial_part","correct","resp_map","correct_resp","probe_condition","category","image","forget_condition","list","trial_num","block_num","block","response","test_part","n_span","sequence","num_spaces"
"pavlovia","0","5","0.0-0.0","slwcdz8lqhod2kr","","5f0096a72e8e3c19a7c05749","5f60e3c0a3b16e07647b2ff9","5f60ee9b64876d016dc603b4","false","","","","","","","","","","","","","","","","","","","","","","",""
"html-keyboard-response","1","3712","0.0-1.0-0.0-0.0","slwcdz8lqhod2kr","welcome","5f0096a72e8e3c19a7c05749","5f60e3c0a3b16e07647b2ff9","5f60ee9b64876d016dc603b4","false","3703.9199999999255","<div align=left>Dear participant, <br> thank you for participating in an online study of the Cognition, Action, and Sustainability Unit of the University of Freiburg! <br> <br>The aim of this study is to examine our ability to remember previously learned information. <br>Our goal is to find out, whether our memory improves, when we only remember information that is relevant to us. <br>The experiment will take about 35 minutes to complete. <br> <br>Please, note that you can only participate in this study if you are using a device with a keyboard (PC, Laptop etc.) <br>and not if you are using a mobile device such as a tablet or smartphone.<br> <br>Press 'SPACE' to proceed to the experiment. </div>","32","","","","","","","","","","","","","","","","","","","",""
"html-keyboard-response","2","41476","0.0-1.0-0.0-1.0","slwcdz8lqhod2kr","welcome","5f0096a72e8e3c19a7c05749","5f60e3c0a3b16e07647b2ff9","5f60ee9b64876d016dc603b4","false","37762.62000016868","<div align=left><strong> Time Course of this experiment: </strong> <br><br> <strong> 1.</strong>  First, please fill in some information regarding your demographic data. <br><br> <strong> 2.</strong>  Next, your task will be to classify everyday objects. <br>In addition, you will be asked to remember certain objects and recall them later. <br>Working on these tasks requires your undivided attention and concentration.<br>It is therefore essential that you eliminate any sources of distraction in your  <br>environment and ensure that you will not be disturbed. <br><br><strong> 3.</strong>  At the end of the experiment, you will be asked to answer a few additional questions. <br> <br><strong> Important:</strong> After finishing the experiment, only close the browser window <br> by clicking on the 'end the experiment'-button when you are asked to do so. <br>Closing the browser window prematurely will make the allocation of your participation credit impossible. <br><br> Press 'SPACE' to start the experiment. </div>","32","","","","","","","","","","","","","","","","","","","",""
"html-button-response","3","45769","0.0-1.0-0.0-2.0","slwcdz8lqhod2kr","welcome","5f0096a72e8e3c19a7c05749","5f60e3c0a3b16e07647b2ff9","5f60ee9b64876d016dc603b4","true","4290.46000004746","<div align=left><strong> Informed consent </strong>  <br>The aim of our research is to better understand human behavior and mental processes. <br>In the following study your behavior (e.g. choices, reaction times) will be studied. <br> <br><strong> Voluntariness and Anonymity </strong> <br>Your participation in this study is  <strong> voluntary</strong>.<br>You may withdraw your consent to participate at any time without providing a reason for doing so and without fear of prejudice. <br><br>As no personal data will be collected, <strong>your data and your person cannot be connected after data collection</strong> – the data-set is anonymous. <br>Respectively, deletion of your data will not be possible after data collection has been completed, as we cannot retrace your data-set.<br>The results and anonymized data collected in this study will be published as a scientific publication. <br>This will happen in an <strong>anonymized format</strong>, so that no data can be traced back to a specific person. <br> <br>The anonymized data of this study will be made available to other researchers and/or in a data archive on the Internet as a means of transparency and to enable subsequent re-use. By doing so, this study follows the recommendations of the Deutsche Forschungsgemeinschaft (DFG, German Research Foundation) and Deutsche Gesellschaft für Psychologie (DGPS, German Psychological Society) regarding quality assurance in research.<br>If you have any questions now or after the experiment, please contact our team (experiments@cs.uni-freiburg.de).<br><br><br>I hereby declare, that I understand the above described conditions of participation and I agree to participate under these conditions. <br><br> </div>","","0","","","","","","","","","","","","","","","","","","",""
"html-keyboard-response","4","68712","0.0-1.0-0.0-3.0","slwcdz8lqhod2kr","welcome","5f0096a72e8e3c19a7c05749","5f60e3c0a3b16e07647b2ff9","5f60ee9b64876d016dc603b4","false","22941.719999769703","<div align=left><strong> General information concerning the experiment </strong>  <br> <br>Please follow the instructions:<ol> <li><strong> Do not leave this tab (your browser window) during the experiment and do not reload this tab! </strong>  <br>If you do switch tabs/windows during the experiment (to check your mail or visit another website, for example), <br>the experiment will end automatically and you will <strong>not receive credit</strong> for your participation. <br>Repeated participation or resumption of the experiment is impossible.</li> <br><li>Please close all other programs for the duration of your participation. </li> <br><li>Please mute or turn off your phone and put it out of your reach. </li> <br><li>Please also take off any disturbing accessories (such as wristwatches, bracelets, etc.). </li> <br><li>If you have music playing in the background, please turn it off now. </li> <br></ol>Thank you! <br>Press 'SPACE' to continue. </div>","32","","","","","","","","","","","","","","","","","","","",""
"survey-text","5","72348","0.0-1.0-1.0-0.0","slwcdz8lqhod2kr","demographics","5f0096a72e8e3c19a7c05749","5f60e3c0a3b16e07647b2ff9","5f60ee9b64876d016dc603b4","true","3631.464999867603","","","","{""age"":""22""}","","","","","","","","","","","","","","","","","",""
"survey-multi-choice","6","110837","0.0-1.0-1.0-1.0","slwcdz8lqhod2kr","demographics","5f0096a72e8e3c19a7c05749","5f60e3c0a3b16e07647b2ff9","5f60ee9b64876d016dc603b4","true","38486.610000021756","","","","{""gender"":""female"",""school"":""high school"",""education"":""Completed university degree or equivalent""}","[0,1,2]","","","","","","","","","","","","","","","","",""
"html-keyboard-response","7","125034","0.0-1.0-2.0","slwcdz8lqhod2kr","instructions","5f0096a72e8e3c19a7c05749","5f60e3c0a3b16e07647b2ff9","5f60ee9b64876d016dc603b4","false","14195.049999980256","<div align=left> The experiment is now about to start: <br> <br>In the following part, you will be presented pictures of everyday objects. <br>Your first task is to <strong>classify these objects. </strong> <br> <br> You will classify them either as mechanical or non-mechanical objects. <br> <br>Objects that include any kind of technical mechanism (for example, wheels, switches, levers, <br> electronic components) fall under the category of <strong>mechanical</strong> objects. <br>Only objects without any kind of technical mechanism should be classified as <strong>non-mechanical</strong>. <br><br>Press 'SPACE' to continue. </div>","32","","","","","","","","","","","","","","","","","","","",""
"html-keyboard-response","8","165019","0.0-2.0-0.0","slwcdz8lqhod2kr","instructions","5f0096a72e8e3c19a7c05749","5f60e3c0a3b16e07647b2ff9","5f60ee9b64876d016dc603b4","false","39982.32499998994","<div align=justify>You will classify the objects using the <strong>'S'</strong> and the <strong>'L'</strong> keys on your keyboard.<br>For doing so, please place your <strong>left index finger</strong> on the <strong>'S'</strong> key and place your <strong>right index finger</strong> on the <strong>'L'</strong> key. <br><br> Each trial starts with an instruction, indicating which key ('S'/'L') you need to press to classify <br>the object as mechanical (letter M) or non-mechanical (letter N).<br>The instruction <strong>M + N</strong> indicates that, in the current trial, by pressing the left key ('S') you classify the displayed object as mechanical (M) <br> and by pressing the right key ('L') you classify the object as non-mechanical (N). <br>The instruction <strong>N + M</strong> on the other hand indicates that by pressing the left key ('S') you classify the displayed object as non-mechanical (N) <br> and by pressing the right key ('L') you classify the object as mechanical (M). <br><br>Please press the key corresponding to the correct classification as fast as possible as soon as the object is displayed and try to avoid making mistakes.<br>If you do not respond within a 2 second window, a corresponding feedback will be displayed and the next trial will start.<br> The experiment is divided into multiple blocks to give you the opportunity to take a break after each block. <br>First, you can now practice this task. <br><br>Please place your <strong>LEFT INDEX FINGER</strong> on the 'S' key and your <strong>RIGHT INDEX FINGER</strong> on the 'L' key now. <br><br>Press SPACE to continue.</div>","32","","","","","","","","","","","","","","","","","","","",""
"html-keyboard-response","9","167971","0.0-2.0-1.0","slwcdz8lqhod2kr","instructions","5f0096a72e8e3c19a7c05749","5f60e3c0a3b16e07647b2ff9","5f60ee9b64876d016dc603b4","false","2950.680000009015","<div align=left> You will now have time to practice this task.<br><br>Remember: <br> <br><li>Please place your index fingers on the <strong>'S'</strong> and <strong>'L'</strong> keys <br>to respond as fast and accurately as possible.</li><li>Every picture can be classified as either mechanical or non-mechanical.</li><li>If you do not respond in time or commit an error, you will receive a corresponding feedback. </li><li> Please try to respond as <strong> fast </strong> and as <strong> accurately as possible </strong> .<br><li>To ensure optimal results, please minimize distractions and stay focused. </li><br><br>Press SPACE to continue.</div>","32","","","","","","","","","","","","","","","","","","","",""
"html-keyboard-response","10","168674","0.0-2.0-2.0-0.0","slwcdz8lqhod2kr","practice_no_cue","5f0096a72e8e3c19a7c05749","5f60e3c0a3b16e07647b2ff9","5f60ee9b64876d016dc603b4","false","null","<span style=""color: black; font-size: 48px"">N + M</span>","null","","","","resp_prompt","","","","","","","","","","","","","","","",""
"categorize-image","11","170556","0.0-2.0-2.0-1.0","slwcdz8lqhod2kr","practice_no_cue","5f0096a72e8e3c19a7c05749","5f60e3c0a3b16e07647b2ff9","5f60ee9b64876d016dc603b4","true","1377.654999960214","./Stimuli/ImagesPractice/SM98.jpg","76","","","","test","true","N + M","76","","SM","SM98.jpg","forget","old","1","1","start","right","","","",""
"html-keyboard-response","12","171258","0.0-2.0-2.0-0.1","slwcdz8lqhod2kr","practice_no_cue","5f0096a72e8e3c19a7c05749","5f60e3c0a3b16e07647b2ff9","5f60ee9b64876d016dc603b4","false","null","<span style=""color: black; font-size: 48px"">M + N</span>","null","","","","resp_prompt","","","","","","","","","","","","","","","",""
"categorize-image","13","173234","0.0-2.0-2.0-1.1","slwcdz8lqhod2kr","practice_no_cue","5f0096a72e8e3c19a7c05749","5f60e3c0a3b16e07647b2ff9","5f60ee9b64876d016dc603b4","true","1472.719999961555","./Stimuli/ImagesPractice/SN75.jpg","83","","","","test","false","M + N","76","","SN","SN75.jpg","forget","old","2","1","start","left","","","",""
"html-keyboard-response","14","173937","0.0-2.0-2.0-0.2","slwcdz8lqhod2kr","practice_no_cue","5f0096a72e8e3c19a7c05749","5f60e3c0a3b16e07647b2ff9","5f60ee9b64876d016dc603b4","false","null","<span style=""color: black; font-size: 48px"">N + M</span>","null","","","","resp_prompt","","","","","","","","","","","","","","","",""
"categorize-image","15","175745","0.0-2.0-2.0-1.2","slwcdz8lqhod2kr","practice_no_cue","5f0096a72e8e3c19a7c05749","5f60e3c0a3b16e07647b2ff9","5f60ee9b64876d016dc603b4","true","1304.3349999934435","./Stimuli/ImagesPractice/LM224.jpg","76","","","","test","true","N + M","76","","LM","LM224.jpg","remember","old","3","1","start","right","","","",""
"html-keyboard-response","16","176447","0.0-2.0-2.0-0.3","slwcdz8lqhod2kr","practice_no_cue","5f0096a72e8e3c19a7c05749","5f60e3c0a3b16e07647b2ff9","5f60ee9b64876d016dc603b4","false","null","<span style=""color: black; font-size: 48px"">N + M</span>","null","","","","resp_prompt","","","","","","","","","","","","","","","",""
"categorize-image","17","178032","0.0-2.0-2.0-1.3","slwcdz8lqhod2kr","practice_no_cue","5f0096a72e8e3c19a7c05749","5f60e3c0a3b16e07647b2ff9","5f60ee9b64876d016dc603b4","true","1079.6250000130385","./Stimuli/ImagesPractice/SN220.jpg","83","","","","test","true","N + M","83","","SN","SN220.jpg","forget","old","4","1","start","left","","","",""
"html-keyboard-response","18","178738","0.0-2.0-2.0-0.4","slwcdz8lqhod2kr","practice_no_cue","5f0096a72e8e3c19a7c05749","5f60e3c0a3b16e07647b2ff9","5f60ee9b64876d016dc603b4","false","null","<span style=""color: black; font-size: 48px"">M + N</span>","null","","","","resp_prompt","","","","","","","","","","","","","","","",""
"categorize-image","19","180658","0.0-2.0-2.0-1.4","slwcdz8lqhod2kr","practice_no_cue","5f0096a72e8e3c19a7c05749","5f60e3c0a3b16e07647b2ff9","5f60ee9b64876d016dc603b4","true","1418.0650000926107","./Stimuli/ImagesPractice/LN15.jpg","76","","","","test","true","M + N","76","","LN","LN15.jpg","remember","old","5","1","start","right","","","",""
"html-keyboard-response","20","181362","0.0-2.0-2.0-0.5","slwcdz8lqhod2kr","practice_no_cue","5f0096a72e8e3c19a7c05749","5f60e3c0a3b16e07647b2ff9","5f60ee9b64876d016dc603b4","false","null","<span style=""color: black; font-size: 48px"">N + M</span>","null","","","","resp_prompt","","","","","","","","","","","","","","","",""
"categorize-image","21","182759","0.0-2.0-2.0-1.5","slwcdz8lqhod2kr","practice_no_cue","5f0096a72e8e3c19a7c05749","5f60e3c0a3b16e07647b2ff9","5f60ee9b64876d016dc603b4","true","893.370000179857","./Stimuli/ImagesPractice/SN222.jpg","83","","","","test","true","N + M","83","","SN","SN222.jpg","remember","old","6","1","start","left","","","",""
"html-keyboard-response","22","183465","0.0-2.0-2.0-0.6","slwcdz8lqhod2kr","practice_no_cue","5f0096a72e8e3c19a7c05749","5f60e3c0a3b16e07647b2ff9","5f60ee9b64876d016dc603b4","false","null","<span style=""color: black; font-size: 48px"">N + M</span>","null","","","","resp_prompt","","","","","","","","","","","","","","","",""
"categorize-image","23","184589","0.0-2.0-2.0-1.6","slwcdz8lqhod2kr","practice_no_cue","5f0096a72e8e3c19a7c05749","5f60e3c0a3b16e07647b2ff9","5f60ee9b64876d016dc603b4","true","621.3299999944866","./Stimuli/ImagesPractice/LM147.jpg","76","","","","test","true","N + M","76","","LM","LM147.jpg","forget","old","7","1","start","right","","","",""
"html-keyboard-response","24","185291","0.0-2.0-2.0-0.7","slwcdz8lqhod2kr","practice_no_cue","5f0096a72e8e3c19a7c05749","5f60e3c0a3b16e07647b2ff9","5f60ee9b64876d016dc603b4","false","null","<span style=""color: black; font-size: 48px"">M + N</span>","null","","","","resp_prompt","","","","","","","","","","","","","","","",""
"categorize-image","25","186636","0.0-2.0-2.0-1.7","slwcdz8lqhod2kr","practice_no_cue","5f0096a72e8e3c19a7c05749","5f60e3c0a3b16e07647b2ff9","5f60ee9b64876d016dc603b4","true","842.8100000601262","./Stimuli/ImagesPractice/LM230.jpg","83","","","","test","true","M + N","83","","LM","LM230.jpg","forget","old","8","1","start","left","","","",""
"html-keyboard-response","26","187337","0.0-2.0-2.0-0.8","slwcdz8lqhod2kr","practice_no_cue","5f0096a72e8e3c19a7c05749","5f60e3c0a3b16e07647b2ff9","5f60ee9b64876d016dc603b4","false","null","<span style=""color: black; font-size: 48px"">N + M</span>","null","","","","resp_prompt","","","","","","","","","","","","","","","",""
"categorize-image","27","188702","0.0-2.0-2.0-1.8","slwcdz8lqhod2kr","practice_no_cue","5f0096a72e8e3c19a7c05749","5f60e3c0a3b16e07647b2ff9","5f60ee9b64876d016dc603b4","true","861.6449998226017","./Stimuli/ImagesPractice/SN221.jpg","83","","","","test","true","N + M","83","","SN","SN221.jpg","remember","old","9","1","start","left","","","",""
"html-keyboard-response","28","189405","0.0-2.0-2.0-0.9","slwcdz8lqhod2kr","practice_no_cue","5f0096a72e8e3c19a7c05749","5f60e3c0a3b16e07647b2ff9","5f60ee9b64876d016dc603b4","false","null","<span style=""color: black; font-size: 48px"">M + N</span>","null","","","","resp_prompt","","","","","","","","","","","","","","","",""
"categorize-image","29","191656","0.0-2.0-2.0-1.9","slwcdz8lqhod2kr","practice_no_cue","5f0096a72e8e3c19a7c05749","5f60e3c0a3b16e07647b2ff9","5f60ee9b64876d016dc603b4","true","1746.5050001628697","./Stimuli/ImagesPractice/SM61.jpg","76","","","","test","false","M + N","83","","SM","SM61.jpg","remember","old","10","1","start","right","","","",""
"html-keyboard-response","30","192359","0.0-2.0-2.0-0.10","slwcdz8lqhod2kr","practice_no_cue","5f0096a72e8e3c19a7c05749","5f60e3c0a3b16e07647b2ff9","5f60ee9b64876d016dc603b4","false","null","<span style=""color: black; font-size: 48px"">M + N</span>","null","","","","resp_prompt","","","","","","","","","","","","","","","",""
"categorize-image","31","193613","0.0-2.0-2.0-1.10","slwcdz8lqhod2kr","practice_no_cue","5f0096a72e8e3c19a7c05749","5f60e3c0a3b16e07647b2ff9","5f60ee9b64876d016dc603b4","true","747.9550000280142","./Stimuli/ImagesPractice/LM143.jpg","83","","","","test","true","M + N","83","","LM","LM143.jpg","forget","old","11","1","start","left","","","",""
"html-keyboard-response","32","194315","0.0-2.0-2.0-0.11","slwcdz8lqhod2kr","practice_no_cue","5f0096a72e8e3c19a7c05749","5f60e3c0a3b16e07647b2ff9","5f60ee9b64876d016dc603b4","false","null","<span style=""color: black; font-size: 48px"">N + M</span>","null","","","","resp_prompt","","","","","","","","","","","","","","","",""
"categorize-image","33","196308","0.0-2.0-2.0-1.11","slwcdz8lqhod2kr","practice_no_cue","5f0096a72e8e3c19a7c05749","5f60e3c0a3b16e07647b2ff9","5f60ee9b64876d016dc603b4","true","1491.4200000930578","./Stimuli/ImagesPractice/LN4.jpg","83","","","","test","true","N + M","83","","LN","LN4.jpg","forget","old","12","1","start","left","","","",""
"html-keyboard-response","34","197010","0.0-2.0-2.0-0.12","slwcdz8lqhod2kr","practice_no_cue","5f0096a72e8e3c19a7c05749","5f60e3c0a3b16e07647b2ff9","5f60ee9b64876d016dc603b4","false","null","<span style=""color: black; font-size: 48px"">M + N</span>","null","","","","resp_prompt","","","","","","","","","","","","","","","",""
"categorize-image","35","198622","0.0-2.0-2.0-1.12","slwcdz8lqhod2kr","practice_no_cue","5f0096a72e8e3c19a7c05749","5f60e3c0a3b16e07647b2ff9","5f60ee9b64876d016dc603b4","true","1106.0600001364946","./Stimuli/ImagesPractice/SN205.jpg","76","","","","test","true","M + N","76","","SN","SN205.jpg","remember","old","13","1","start","right","","","",""
"html-keyboard-response","36","199325","0.0-2.0-2.0-0.13","slwcdz8lqhod2kr","practice_no_cue","5f0096a72e8e3c19a7c05749","5f60e3c0a3b16e07647b2ff9","5f60ee9b64876d016dc603b4","false","null","<span style=""color: black; font-size: 48px"">M + N</span>","null","","","","resp_prompt","","","","","","","","","","","","","","","",""
"categorize-image","37","200806","0.0-2.0-2.0-1.13","slwcdz8lqhod2kr","practice_no_cue","5f0096a72e8e3c19a7c05749","5f60e3c0a3b16e07647b2ff9","5f60ee9b64876d016dc603b4","true","979.215000057593","./Stimuli/ImagesPractice/SM37.jpg","83","","","","test","true","M + N","83","","SM","SM37.jpg","forget","old","14","1","start","left","","","",""
"html-keyboard-response","38","201509","0.0-2.0-2.0-0.14","slwcdz8lqhod2kr","practice_no_cue","5f0096a72e8e3c19a7c05749","5f60e3c0a3b16e07647b2ff9","5f60ee9b64876d016dc603b4","false","null","<span style=""color: black; font-size: 48px"">M + N</span>","null","","","","resp_prompt","","","","","","","","","","","","","","","",""
"categorize-image","39","202725","0.0-2.0-2.0-1.14","slwcdz8lqhod2kr","practice_no_cue","5f0096a72e8e3c19a7c05749","5f60e3c0a3b16e07647b2ff9","5f60ee9b64876d016dc603b4","true","712.1500000357628","./Stimuli/ImagesPractice/SM97.jpg","83","","","","test","true","M + N","83","","SM","SM97.jpg","remember","old","15","1","start","left","","","",""
"html-keyboard-response","40","203431","0.0-2.0-2.0-0.15","slwcdz8lqhod2kr","practice_no_cue","5f0096a72e8e3c19a7c05749","5f60e3c0a3b16e07647b2ff9","5f60ee9b64876d016dc603b4","false","null","<span style=""color: black; font-size: 48px"">N + M</span>","null","","","","resp_prompt","","","","","","","","","","","","","","","",""
"categorize-image","41","204752","0.0-2.0-2.0-1.15","slwcdz8lqhod2kr","practice_no_cue","5f0096a72e8e3c19a7c05749","5f60e3c0a3b16e07647b2ff9","5f60ee9b64876d016dc603b4","true","818.5799999628216","./Stimuli/ImagesPractice/LN2.jpg","83","","","","test","true","N + M","83","","LN","LN2.jpg","remember","old","16","1","start","left","","","",""
"html-keyboard-response","42","209565","0.0-2.0-3.0","slwcdz8lqhod2kr","break","5f0096a72e8e3c19a7c05749","5f60e3c0a3b16e07647b2ff9","5f60ee9b64876d016dc603b4","false","4811.830000020564","<p style='font-size: 32px;'>Break</><br><br><br><br><br><p style='font-size: 24px;'>In the last block, you committed 2 errors and did not respond in time on 0 trials.
</p><p style='font-size: 24px;'>Try to respond as fast and accurately as possible in the next block as well! </p><p style='font-size: 24px;'>Press SPACE to continue.</p>","32","","","","","","","","","","","","","","","","","","","",""
"html-keyboard-response","43","217009","0.0-2.0-4.0","slwcdz8lqhod2kr","instructions","5f0096a72e8e3c19a7c05749","5f60e3c0a3b16e07647b2ff9","5f60ee9b64876d016dc603b4","false","7442.53999995999","<div align=left> Great!<br><br>Are you ready to continue?<br><br>If you want to reread the instructions and redo the practice trials, <br>please press „Z“. <br><br>Press SPACE to CONTINUE with the experiment when you are ready. </div>","32","","","","","","","","","","","","","","","","","","","",""
"html-keyboard-response","44","240080","0.0-3.0-0.0","slwcdz8lqhod2kr","instructions","5f0096a72e8e3c19a7c05749","5f60e3c0a3b16e07647b2ff9","5f60ee9b64876d016dc603b4","false","23069.639999885112","<div align=left>Great!<br> <strong>Attention</strong>! You will now receive a second, additional task! <br><br>To this point it was you <strong>first task</strong> to correctly <strong>classify objects</strong>. <br><br>As mentioned in the beginning, we aim to examine how well humans can remember previously learned information.<br>We would like to find out whether our memory improves if we only remember information that is relevant to us. <br><br>Therefore, your <strong>second task</strong> will be to <strong>remember</strong> the pictures you are to categorize. <br> After the learning phase, there will be a memory test phase, in which you will be asked to indicate whether you have seen a picture before or not. <br>Some, but not all pictures shown in the learning phase will appear in the memory test phase.<br>After classifying a picture, you will be told whether you should remember it for the memory test phase or not. <br>Thus, some pictures can be forgotten, whereas others have to be remembered. <br><br>Note: From now on, feedback will only be displayed if you responded incorrectly or not in time.<br><br>Press SPACE to continue.</div>","32","","","","","","","","","","","","","","","","","","","",""
"html-keyboard-response","45","254766","0.0-3.0-1.0","slwcdz8lqhod2kr","instructions","5f0096a72e8e3c19a7c05749","5f60e3c0a3b16e07647b2ff9","5f60ee9b64876d016dc603b4","false","14684.79000008665","<div align=left>In the following part, you will thus have to remember only some pictures. <br>Immediately after seeing and classifying the picture, a symbol will be displayed, indicating whether you should remember or forget the previous picture. <br><br>A <span style='color: dodgerblue; font-size: 28px'>O</span> indicates REMEMBER. That means, you have to remember this picture, because it will be tested later. <br><br>A <span style='color: darkorange; font-size:28px'>Ø</span> indicates FORGET. You do not have to remember this picture. <br><br> As you will have to remember a lot of pictures, it will be hard for you to remember all of them. <br>It will put you at an advantage if you instantly forget the pictures you are not asked to remember. <br> This will make it easier for you to remember the pictures that will be tested afterwards. <br><br>Press SPACE to continue.</div>","32","","","","","","","","","","","","","","","","","","","",""
"html-keyboard-response","46","257239","0.0-3.0-2.0","slwcdz8lqhod2kr","instructions","5f0096a72e8e3c19a7c05749","5f60e3c0a3b16e07647b2ff9","5f60ee9b64876d016dc603b4","false","2472.3699998576194","<div align=left> Now you have the chance to practice both tasks together.<br><br>Remember: <br> <br><li>Please place your index fingers on the <strong>'S'</strong> and <strong>'L'</strong> keys <br>to respond as fast and accurately as possible.</li><li>Every picture can be classified as either mechanical or non-mechanical.</li><li>If you do not respond in time or commit an error, you will receive a corresponding feedback. <br>Please try to respond as <strong> fast </strong> and as <strong> accurately as possible </strong>.</li><li> Please remember only the to-be-remembered <span style='color: dodgerblue; font-size: 28px'>O</span> pictures. <br></li><li> Please minimize distractions and stay focused. </li><br><br>Press SPACE to START</div>","32","","","","","","","","","","","","","","","","","","","",""
"html-keyboard-response","47","257943","0.0-3.0-3.0-0.0","slwcdz8lqhod2kr","practice_cue","5f0096a72e8e3c19a7c05749","5f60e3c0a3b16e07647b2ff9","5f60ee9b64876d016dc603b4","false","null","<span style=""color: black; font-size: 48px"">N + M</span>","null","","","","resp_prompt","","","","","","","","","","","","","","","",""
"categorize-image","48","258613","0.0-3.0-3.0-1.0","slwcdz8lqhod2kr","practice_cue","5f0096a72e8e3c19a7c05749","5f60e3c0a3b16e07647b2ff9","5f60ee9b64876d016dc603b4","true","666.6149999946356","./Stimuli/ImagesPractice/SN221.jpg","83","","","","test","true","N + M","83","","SN","SN221.jpg","remember","old","17","2","practice_forget","left","","","",""
"html-keyboard-response","49","260617","0.0-3.0-3.0-3.0","slwcdz8lqhod2kr","practice_cue","5f0096a72e8e3c19a7c05749","5f60e3c0a3b16e07647b2ff9","5f60ee9b64876d016dc603b4","false","null","<div style=""align-items: center; display: flex; color: dodgerblue; font-size: 90px""><b>o</b></div>","null","","","","forget_cue","","","","","","","","","","","","","","","",""
"html-keyboard-response","50","261321","0.0-3.0-3.0-0.1","slwcdz8lqhod2kr","practice_cue","5f0096a72e8e3c19a7c05749","5f60e3c0a3b16e07647b2ff9","5f60ee9b64876d016dc603b4","false","null","<span style=""color: black; font-size: 48px"">N + M</span>","null","","","","resp_prompt","","","","","","","","","","","","","","","",""
"categorize-image","51","262022","0.0-3.0-3.0-1.1","slwcdz8lqhod2kr","practice_cue","5f0096a72e8e3c19a7c05749","5f60e3c0a3b16e07647b2ff9","5f60ee9b64876d016dc603b4","true","697.9249999858439","./Stimuli/ImagesPractice/SM98.jpg","76","","","","test","true","N + M","76","","SM","SM98.jpg","forget","old","18","2","practice_forget","right","","","",""
"html-keyboard-response","52","264025","0.0-3.0-3.0-3.1","slwcdz8lqhod2kr","practice_cue","5f0096a72e8e3c19a7c05749","5f60e3c0a3b16e07647b2ff9","5f60ee9b64876d016dc603b4","false","null","<div style=""align-items: center; display: flex; color: darkorange; font-size: 90px""><b>ø</b></div>","null","","","","forget_cue","","","","","","","","","","","","","","","",""
"html-keyboard-response","53","264727","0.0-3.0-3.0-0.2","slwcdz8lqhod2kr","practice_cue","5f0096a72e8e3c19a7c05749","5f60e3c0a3b16e07647b2ff9","5f60ee9b64876d016dc603b4","false","null","<span style=""color: black; font-size: 48px"">M + N</span>","null","","","","resp_prompt","","","","","","","","","","","","","","","",""
"categorize-image","54","265496","0.0-3.0-3.0-1.2","slwcdz8lqhod2kr","practice_cue","5f0096a72e8e3c19a7c05749","5f60e3c0a3b16e07647b2ff9","5f60ee9b64876d016dc603b4","true","767.1600000467151","./Stimuli/ImagesPractice/SM37.jpg","83","","","","test","true","M + N","83","","SM","SM37.jpg","forget","old","19","2","practice_forget","left","","","",""
"html-keyboard-response","55","267500","0.0-3.0-3.0-3.2","slwcdz8lqhod2kr","practice_cue","5f0096a72e8e3c19a7c05749","5f60e3c0a3b16e07647b2ff9","5f60ee9b64876d016dc603b4","false","null","<div style=""align-items: center; display: flex; color: darkorange; font-size: 90px""><b>ø</b></div>","null","","","","forget_cue","","","","","","","","","","","","","","","",""
"html-keyboard-response","56","268203","0.0-3.0-3.0-0.3","slwcdz8lqhod2kr","practice_cue","5f0096a72e8e3c19a7c05749","5f60e3c0a3b16e07647b2ff9","5f60ee9b64876d016dc603b4","false","null","<span style=""color: black; font-size: 48px"">M + N</span>","null","","","","resp_prompt","","","","","","","","","","","","","","","",""
"categorize-image","57","268727","0.0-3.0-3.0-1.3","slwcdz8lqhod2kr","practice_cue","5f0096a72e8e3c19a7c05749","5f60e3c0a3b16e07647b2ff9","5f60ee9b64876d016dc603b4","true","520.8550000097603","./Stimuli/ImagesPractice/SM97.jpg","83","","","","test","true","M + N","83","","SM","SM97.jpg","remember","old","20","2","practice_forget","left","","","",""
"html-keyboard-response","58","270731","0.0-3.0-3.0-3.3","slwcdz8lqhod2kr","practice_cue","5f0096a72e8e3c19a7c05749","5f60e3c0a3b16e07647b2ff9","5f60ee9b64876d016dc603b4","false","null","<div style=""align-items: center; display: flex; color: dodgerblue; font-size: 90px""><b>o</b></div>","null","","","","forget_cue","","","","","","","","","","","","","","","",""
"html-keyboard-response","59","271435","0.0-3.0-3.0-0.4","slwcdz8lqhod2kr","practice_cue","5f0096a72e8e3c19a7c05749","5f60e3c0a3b16e07647b2ff9","5f60ee9b64876d016dc603b4","false","null","<span style=""color: black; font-size: 48px"">M + N</span>","null","","","","resp_prompt","","","","","","","","","","","","","","","",""
"categorize-image","60","272149","0.0-3.0-3.0-1.4","slwcdz8lqhod2kr","practice_cue","5f0096a72e8e3c19a7c05749","5f60e3c0a3b16e07647b2ff9","5f60ee9b64876d016dc603b4","true","711.454999865964","./Stimuli/ImagesPractice/SM61.jpg","83","","","","test","true","M + N","83","","SM","SM61.jpg","remember","old","21","2","practice_forget","left","","","",""
"html-keyboard-response","61","274151","0.0-3.0-3.0-3.4","slwcdz8lqhod2kr","practice_cue","5f0096a72e8e3c19a7c05749","5f60e3c0a3b16e07647b2ff9","5f60ee9b64876d016dc603b4","false","null","<div style=""align-items: center; display: flex; color: dodgerblue; font-size: 90px""><b>o</b></div>","null","","","","forget_cue","","","","","","","","","","","","","","","",""
"html-keyboard-response","62","274857","0.0-3.0-3.0-0.5","slwcdz8lqhod2kr","practice_cue","5f0096a72e8e3c19a7c05749","5f60e3c0a3b16e07647b2ff9","5f60ee9b64876d016dc603b4","false","null","<span style=""color: black; font-size: 48px"">M + N</span>","null","","","","resp_prompt","","","","","","","","","","","","","","","",""
"categorize-image","63","275536","0.0-3.0-3.0-1.5","slwcdz8lqhod2kr","practice_cue","5f0096a72e8e3c19a7c05749","5f60e3c0a3b16e07647b2ff9","5f60ee9b64876d016dc603b4","true","676.2050001416355","./Stimuli/ImagesPractice/LM230.jpg","83","","","","test","true","M + N","83","","LM","LM230.jpg","forget","old","22","2","practice_forget","left","","","",""
"html-keyboard-response","64","277540","0.0-3.0-3.0-3.5","slwcdz8lqhod2kr","practice_cue","5f0096a72e8e3c19a7c05749","5f60e3c0a3b16e07647b2ff9","5f60ee9b64876d016dc603b4","false","null","<div style=""align-items: center; display: flex; color: darkorange; font-size: 90px""><b>ø</b></div>","null","","","","forget_cue","","","","","","","","","","","","","","","",""
"html-keyboard-response","65","278245","0.0-3.0-3.0-0.6","slwcdz8lqhod2kr","practice_cue","5f0096a72e8e3c19a7c05749","5f60e3c0a3b16e07647b2ff9","5f60ee9b64876d016dc603b4","false","null","<span style=""color: black; font-size: 48px"">N + M</span>","null","","","","resp_prompt","","","","","","","","","","","","","","","",""
"categorize-image","66","279216","0.0-3.0-3.0-1.6","slwcdz8lqhod2kr","practice_cue","5f0096a72e8e3c19a7c05749","5f60e3c0a3b16e07647b2ff9","5f60ee9b64876d016dc603b4","true","968.1400000117719","./Stimuli/ImagesPractice/SN222.jpg","76","","","","test","false","N + M","83","","SN","SN222.jpg","remember","old","23","2","practice_forget","right","","","",""
"html-keyboard-response","67","279717","0.0-3.0-3.0-2.6-0.6","slwcdz8lqhod2kr","practice_cue","5f0096a72e8e3c19a7c05749","5f60e3c0a3b16e07647b2ff9","5f60ee9b64876d016dc603b4","false","null","<span style=""color: red; font-size: 48px"">Error!</span>","null","","","","feedback","","","","","","","","","","","","","","","",""
"html-keyboard-response","68","281721","0.0-3.0-3.0-3.6","slwcdz8lqhod2kr","practice_cue","5f0096a72e8e3c19a7c05749","5f60e3c0a3b16e07647b2ff9","5f60ee9b64876d016dc603b4","false","null","<div style=""align-items: center; display: flex; color: dodgerblue; font-size: 90px""><b>o</b></div>","null","","","","forget_cue","","","","","","","","","","","","","","","",""
"html-keyboard-response","69","282425","0.0-3.0-3.0-0.7","slwcdz8lqhod2kr","practice_cue","5f0096a72e8e3c19a7c05749","5f60e3c0a3b16e07647b2ff9","5f60ee9b64876d016dc603b4","false","null","<span style=""color: black; font-size: 48px"">N + M</span>","null","","","","resp_prompt","","","","","","","","","","","","","","","",""
"categorize-image","70","283018","0.0-3.0-3.0-1.7","slwcdz8lqhod2kr","practice_cue","5f0096a72e8e3c19a7c05749","5f60e3c0a3b16e07647b2ff9","5f60ee9b64876d016dc603b4","true","589.8349999915808","./Stimuli/ImagesPractice/SN220.jpg","83","","","","test","true","N + M","83","","SN","SN220.jpg","forget","old","24","2","practice_forget","left","","","",""
"html-keyboard-response","71","285020","0.0-3.0-3.0-3.7","slwcdz8lqhod2kr","practice_cue","5f0096a72e8e3c19a7c05749","5f60e3c0a3b16e07647b2ff9","5f60ee9b64876d016dc603b4","false","null","<div style=""align-items: center; display: flex; color: darkorange; font-size: 90px""><b>ø</b></div>","null","","","","forget_cue","","","","","","","","","","","","","","","",""
"html-keyboard-response","72","285722","0.0-3.0-3.0-0.8","slwcdz8lqhod2kr","practice_cue","5f0096a72e8e3c19a7c05749","5f60e3c0a3b16e07647b2ff9","5f60ee9b64876d016dc603b4","false","null","<span style=""color: black; font-size: 48px"">M + N</span>","null","","","","resp_prompt","","","","","","","","","","","","","","","",""
"categorize-image","73","286348","0.0-3.0-3.0-1.8","slwcdz8lqhod2kr","practice_cue","5f0096a72e8e3c19a7c05749","5f60e3c0a3b16e07647b2ff9","5f60ee9b64876d016dc603b4","true","622.975000180304","./Stimuli/ImagesPractice/LM143.jpg","83","","","","test","true","M + N","83","","LM","LM143.jpg","forget","old","25","2","practice_forget","left","","","",""
"html-keyboard-response","74","288350","0.0-3.0-3.0-3.8","slwcdz8lqhod2kr","practice_cue","5f0096a72e8e3c19a7c05749","5f60e3c0a3b16e07647b2ff9","5f60ee9b64876d016dc603b4","false","null","<div style=""align-items: center; display: flex; color: darkorange; font-size: 90px""><b>ø</b></div>","null","","","","forget_cue","","","","","","","","","","","","","","","",""
"html-keyboard-response","75","289053","0.0-3.0-3.0-0.9","slwcdz8lqhod2kr","practice_cue","5f0096a72e8e3c19a7c05749","5f60e3c0a3b16e07647b2ff9","5f60ee9b64876d016dc603b4","false","null","<span style=""color: black; font-size: 48px"">M + N</span>","null","","","","resp_prompt","","","","","","","","","","","","","","","",""
"categorize-image","76","290433","0.0-3.0-3.0-1.9","slwcdz8lqhod2kr","practice_cue","5f0096a72e8e3c19a7c05749","5f60e3c0a3b16e07647b2ff9","5f60ee9b64876d016dc603b4","true","1377.0200000144541","./Stimuli/ImagesPractice/SN75.jpg","76","","","","test","true","M + N","76","","SN","SN75.jpg","forget","old","26","2","practice_forget","right","","","",""
"html-keyboard-response","77","292437","0.0-3.0-3.0-3.9","slwcdz8lqhod2kr","practice_cue","5f0096a72e8e3c19a7c05749","5f60e3c0a3b16e07647b2ff9","5f60ee9b64876d016dc603b4","false","null","<div style=""align-items: center; display: flex; color: darkorange; font-size: 90px""><b>ø</b></div>","null","","","","forget_cue","","","","","","","","","","","","","","","",""
"html-keyboard-response","78","293145","0.0-3.0-3.0-0.10","slwcdz8lqhod2kr","practice_cue","5f0096a72e8e3c19a7c05749","5f60e3c0a3b16e07647b2ff9","5f60ee9b64876d016dc603b4","false","null","<span style=""color: black; font-size: 48px"">M + N</span>","null","","","","resp_prompt","","","","","","","","","","","","","","","",""
"categorize-image","79","294363","0.0-3.0-3.0-1.10","slwcdz8lqhod2kr","practice_cue","5f0096a72e8e3c19a7c05749","5f60e3c0a3b16e07647b2ff9","5f60ee9b64876d016dc603b4","true","1215.254999930039","./Stimuli/ImagesPractice/LN15.jpg","76","","","","test","true","M + N","76","","LN","LN15.jpg","remember","old","27","2","practice_forget","right","","","",""
"html-keyboard-response","80","296365","0.0-3.0-3.0-3.10","slwcdz8lqhod2kr","practice_cue","5f0096a72e8e3c19a7c05749","5f60e3c0a3b16e07647b2ff9","5f60ee9b64876d016dc603b4","false","null","<div style=""align-items: center; display: flex; color: dodgerblue; font-size: 90px""><b>o</b></div>","null","","","","forget_cue","","","","","","","","","","","","","","","",""
"html-keyboard-response","81","297069","0.0-3.0-3.0-0.11","slwcdz8lqhod2kr","practice_cue","5f0096a72e8e3c19a7c05749","5f60e3c0a3b16e07647b2ff9","5f60ee9b64876d016dc603b4","false","null","<span style=""color: black; font-size: 48px"">N + M</span>","null","","","","resp_prompt","","","","","","","","","","","","","","","",""
"categorize-image","82","297992","0.0-3.0-3.0-1.11","slwcdz8lqhod2kr","practice_cue","5f0096a72e8e3c19a7c05749","5f60e3c0a3b16e07647b2ff9","5f60ee9b64876d016dc603b4","true","919.8499999474734","./Stimuli/ImagesPractice/LM224.jpg","76","","","","test","true","N + M","76","","LM","LM224.jpg","remember","old","28","2","practice_forget","right","","","",""
"html-keyboard-response","83","299998","0.0-3.0-3.0-3.11","slwcdz8lqhod2kr","practice_cue","5f0096a72e8e3c19a7c05749","5f60e3c0a3b16e07647b2ff9","5f60ee9b64876d016dc603b4","false","null","<div style=""align-items: center; display: flex; color: dodgerblue; font-size: 90px""><b>o</b></div>","null","","","","forget_cue","","","","","","","","","","","","","","","",""
"html-keyboard-response","84","300703","0.0-3.0-3.0-0.12","slwcdz8lqhod2kr","practice_cue","5f0096a72e8e3c19a7c05749","5f60e3c0a3b16e07647b2ff9","5f60ee9b64876d016dc603b4","false","null","<span style=""color: black; font-size: 48px"">M + N</span>","null","","","","resp_prompt","","","","","","","","","","","","","","","",""
"categorize-image","85","301830","0.0-3.0-3.0-1.12","slwcdz8lqhod2kr","practice_cue","5f0096a72e8e3c19a7c05749","5f60e3c0a3b16e07647b2ff9","5f60ee9b64876d016dc603b4","true","1124.220000114292","./Stimuli/ImagesPractice/SN205.jpg","76","","","","test","true","M + N","76","","SN","SN205.jpg","remember","old","29","2","practice_forget","right","","","",""
"html-keyboard-response","86","303834","0.0-3.0-3.0-3.12","slwcdz8lqhod2kr","practice_cue","5f0096a72e8e3c19a7c05749","5f60e3c0a3b16e07647b2ff9","5f60ee9b64876d016dc603b4","false","null","<div style=""align-items: center; display: flex; color: dodgerblue; font-size: 90px""><b>o</b></div>","null","","","","forget_cue","","","","","","","","","","","","","","","",""
"html-keyboard-response","87","304535","0.0-3.0-3.0-0.13","slwcdz8lqhod2kr","practice_cue","5f0096a72e8e3c19a7c05749","5f60e3c0a3b16e07647b2ff9","5f60ee9b64876d016dc603b4","false","null","<span style=""color: black; font-size: 48px"">N + M</span>","null","","","","resp_prompt","","","","","","","","","","","","","","","",""
"categorize-image","88","305289","0.0-3.0-3.0-1.13","slwcdz8lqhod2kr","practice_cue","5f0096a72e8e3c19a7c05749","5f60e3c0a3b16e07647b2ff9","5f60ee9b64876d016dc603b4","true","751.1149998754263","./Stimuli/ImagesPractice/LM147.jpg","76","","","","test","true","N + M","76","","LM","LM147.jpg","forget","old","30","2","practice_forget","right","","","",""
"html-keyboard-response","89","307295","0.0-3.0-3.0-3.13","slwcdz8lqhod2kr","practice_cue","5f0096a72e8e3c19a7c05749","5f60e3c0a3b16e07647b2ff9","5f60ee9b64876d016dc603b4","false","null","<div style=""align-items: center; display: flex; color: darkorange; font-size: 90px""><b>ø</b></div>","null","","","","forget_cue","","","","","","","","","","","","","","","",""
"html-keyboard-response","90","307996","0.0-3.0-3.0-0.14","slwcdz8lqhod2kr","practice_cue","5f0096a72e8e3c19a7c05749","5f60e3c0a3b16e07647b2ff9","5f60ee9b64876d016dc603b4","false","null","<span style=""color: black; font-size: 48px"">N + M</span>","null","","","","resp_prompt","","","","","","","","","","","","","","","",""
"categorize-image","91","308690","0.0-3.0-3.0-1.14","slwcdz8lqhod2kr","practice_cue","5f0096a72e8e3c19a7c05749","5f60e3c0a3b16e07647b2ff9","5f60ee9b64876d016dc603b4","true","689.6150000393391","./Stimuli/ImagesPractice/LN2.jpg","83","","","","test","true","N + M","83","","LN","LN2.jpg","remember","old","31","2","practice_forget","left","","","",""
"html-keyboard-response","92","310692","0.0-3.0-3.0-3.14","slwcdz8lqhod2kr","practice_cue","5f0096a72e8e3c19a7c05749","5f60e3c0a3b16e07647b2ff9","5f60ee9b64876d016dc603b4","false","null","<div style=""align-items: center; display: flex; color: dodgerblue; font-size: 90px""><b>o</b></div>","null","","","","forget_cue","","","","","","","","","","","","","","","",""
"html-keyboard-response","93","311398","0.0-3.0-3.0-0.15","slwcdz8lqhod2kr","practice_cue","5f0096a72e8e3c19a7c05749","5f60e3c0a3b16e07647b2ff9","5f60ee9b64876d016dc603b4","false","null","<span style=""color: black; font-size: 48px"">N + M</span>","null","","","","resp_prompt","","","","","","","","","","","","","","","",""
"categorize-image","94","312063","0.0-3.0-3.0-1.15","slwcdz8lqhod2kr","practice_cue","5f0096a72e8e3c19a7c05749","5f60e3c0a3b16e07647b2ff9","5f60ee9b64876d016dc603b4","true","662.2999999672174","./Stimuli/ImagesPractice/LN4.jpg","83","","","","test","true","N + M","83","","LN","LN4.jpg","forget","old","32","2","practice_forget","left","","","",""
"html-keyboard-response","95","314067","0.0-3.0-3.0-3.15","slwcdz8lqhod2kr","practice_cue","5f0096a72e8e3c19a7c05749","5f60e3c0a3b16e07647b2ff9","5f60ee9b64876d016dc603b4","false","null","<div style=""align-items: center; display: flex; color: darkorange; font-size: 90px""><b>ø</b></div>","null","","","","forget_cue","","","","","","","","","","","","","","","",""
"html-keyboard-response","96","317260","0.0-3.0-4.0","slwcdz8lqhod2kr","break","5f0096a72e8e3c19a7c05749","5f60e3c0a3b16e07647b2ff9","5f60ee9b64876d016dc603b4","false","3192.2300001606345","<p style='font-size: 32px;'>Break</><br><br><br><br><br><p style='font-size: 24px;'>In the last block, you committed 1 errors and did not respond in time on 0 trials.
</p><p style='font-size: 24px;'>Try to respond as fast and accurately as possible in the next block as well! </p><p style='font-size: 24px;'>Press SPACE to continue.</p>","32","","","","","","","","","","","","","","","","","","","",""
"html-keyboard-response","97","320809","0.0-3.0-5.0","slwcdz8lqhod2kr","instructions","5f0096a72e8e3c19a7c05749","5f60e3c0a3b16e07647b2ff9","5f60ee9b64876d016dc603b4","false","3547.4799999501556","<div align=left> Now, to practice, we kindly ask you to remember as many of the to-be-remembered pictures<br>of the previous learning phase as possible.<br><br>The pictures you were instructed to remember were the pictures followed by a <span style='color: dodgerblue; font-size: 28px'>O</span>.<br><br>In this memory test phase, you will also see some new pictures.<br>It is your task to remember whether you were presented with this specific picture in this study so far or not.<br>If you recognize an object (you have already seen it in this study), it is an OLD object. <br>If you do not recognize an object (you have NOT seen it in this study), it is a NEW object. <br><strong> Attention</strong>: As already mentioned, <span style='color: darkorange; font-size:28px'>Ø</span>-pictures will <strong>never</strong> appear in this memory test (neither as new objects). <br><br>Press SPACE to continue. </div>","32","","","","","","","","","","","","","","","","","","","",""
"html-keyboard-response","98","350418","0.0-3.0-6.0","slwcdz8lqhod2kr","instructions","5f0096a72e8e3c19a7c05749","5f60e3c0a3b16e07647b2ff9","5f60ee9b64876d016dc603b4","false","29608.370000030845","<div align=left> M and N no longer will appear on the left/right of the fixation cross. <br>Instead there will be a note at the bottom of the left or right side  <br>indicating which key you should press for an old or new object:  <br> <br>Press the <strong>right</strong> key to classify an object as <strong>old</strong> and press the <strong>left</strong>, to classify an object as <strong>new</strong>.<br>Please classify the objects as new/old by again placing your index finger on the 'S' and 'L' keys <br>and press them accordingly.<br><br><strong>Old:</strong> This object has been presented before. <br><strong>New:</strong> This object has <strong>not</strong> been presented.<br><br>Now please put your right and left index fingers on the 'S' and 'L' keys of your keyboard. <br>Please respond as fast and as accurately as possible!<br><br>Press SPACE to continue. </div>","32","","","","","","","","","","","","","","","","","","","",""
"categorize-image","99","354227","0.0-3.0-7.0-0.0","slwcdz8lqhod2kr","practice_recog","5f0096a72e8e3c19a7c05749","5f60e3c0a3b16e07647b2ff9","5f60ee9b64876d016dc603b4","true","3306.6000000108033","./Stimuli/ImagesPractice/SM35.jpg","76","","","","test","true","","76","","SM","SM35.jpg","","new","33","3","practice_recog","right","","","",""
"categorize-image","100","356013","0.0-3.0-7.0-0.1","slwcdz8lqhod2kr","practice_recog","5f0096a72e8e3c19a7c05749","5f60e3c0a3b16e07647b2ff9","5f60ee9b64876d016dc603b4","true","1280.4800001904368","./Stimuli/ImagesPractice/LN17.jpg","76","","","","test","true","","76","","LN","LN17.jpg","","new","34","3","practice_recog","right","","","",""
"categorize-image","101","357348","0.0-3.0-7.0-0.2","slwcdz8lqhod2kr","practice_recog","5f0096a72e8e3c19a7c05749","5f60e3c0a3b16e07647b2ff9","5f60ee9b64876d016dc603b4","true","829.3500000145286","./Stimuli/ImagesPractice/LN109.jpg","76","","","","test","true","","76","","LN","LN109.jpg","","new","35","3","practice_recog","right","","","",""
"categorize-image","102","358632","0.0-3.0-7.0-0.3","slwcdz8lqhod2kr","practice_recog","5f0096a72e8e3c19a7c05749","5f60e3c0a3b16e07647b2ff9","5f60ee9b64876d016dc603b4","true","780.2699999883771","./Stimuli/ImagesPractice/SN76.jpg","76","","","","test","true","","76","","SN","SN76.jpg","","new","36","3","practice_recog","right","","","",""
"categorize-image","103","360154","0.0-3.0-7.0-0.4","slwcdz8lqhod2kr","practice_recog","5f0096a72e8e3c19a7c05749","5f60e3c0a3b16e07647b2ff9","5f60ee9b64876d016dc603b4","true","1017.9850000422448","./Stimuli/ImagesPractice/SM97.jpg","83","","","","test","true","","83","","SM","SM97.jpg","","old","37","3","practice_recog","left","","","",""
"categorize-image","104","361477","0.0-3.0-7.0-0.5","slwcdz8lqhod2kr","practice_recog","5f0096a72e8e3c19a7c05749","5f60e3c0a3b16e07647b2ff9","5f60ee9b64876d016dc603b4","true","817.5549998413771","./Stimuli/ImagesPractice/SN205.jpg","83","","","","test","true","","83","","SN","SN205.jpg","","old","38","3","practice_recog","left","","","",""
"categorize-image","105","362658","0.0-3.0-7.0-0.6","slwcdz8lqhod2kr","practice_recog","5f0096a72e8e3c19a7c05749","5f60e3c0a3b16e07647b2ff9","5f60ee9b64876d016dc603b4","true","677.7049999218434","./Stimuli/ImagesPractice/LN2.jpg","83","","","","test","true","","83","","LN","LN2.jpg","","old","39","3","practice_recog","left","","","",""
"categorize-image","106","363749","0.0-3.0-7.0-0.7","slwcdz8lqhod2kr","practice_recog","5f0096a72e8e3c19a7c05749","5f60e3c0a3b16e07647b2ff9","5f60ee9b64876d016dc603b4","true","588.8350000604987","./Stimuli/ImagesPractice/LM224.jpg","83","","","","test","true","","83","","LM","LM224.jpg","","old","40","3","practice_recog","left","","","",""
"categorize-image","107","364880","0.0-3.0-7.0-0.8","slwcdz8lqhod2kr","practice_recog","5f0096a72e8e3c19a7c05749","5f60e3c0a3b16e07647b2ff9","5f60ee9b64876d016dc603b4","true","625.7750000804663","./Stimuli/ImagesPractice/SN221.jpg","83","","","","test","true","","83","","SN","SN221.jpg","","old","41","3","practice_recog","left","","","",""
"categorize-image","108","366104","0.0-3.0-7.0-0.9","slwcdz8lqhod2kr","practice_recog","5f0096a72e8e3c19a7c05749","5f60e3c0a3b16e07647b2ff9","5f60ee9b64876d016dc603b4","true","717.7750000264496","./Stimuli/ImagesPractice/SM61.jpg","83","","","","test","true","","83","","SM","SM61.jpg","","old","42","3","practice_recog","left","","","",""
"categorize-image","109","367387","0.0-3.0-7.0-0.10","slwcdz8lqhod2kr","practice_recog","5f0096a72e8e3c19a7c05749","5f60e3c0a3b16e07647b2ff9","5f60ee9b64876d016dc603b4","true","779.3000000528991","./Stimuli/ImagesPractice/SN222.jpg","83","","","","test","true","","83","","SN","SN222.jpg","","old","43","3","practice_recog","left","","","",""
"categorize-image","110","368556","0.0-3.0-7.0-0.11","slwcdz8lqhod2kr","practice_recog","5f0096a72e8e3c19a7c05749","5f60e3c0a3b16e07647b2ff9","5f60ee9b64876d016dc603b4","true","665.7850001938641","./Stimuli/ImagesPractice/LN72.jpg","76","","","","test","true","","76","","LN","LN72.jpg","","new","44","3","practice_recog","right","","","",""
"categorize-image","111","369699","0.0-3.0-7.0-0.12","slwcdz8lqhod2kr","practice_recog","5f0096a72e8e3c19a7c05749","5f60e3c0a3b16e07647b2ff9","5f60ee9b64876d016dc603b4","true","640.6400001142174","./Stimuli/ImagesPractice/LN15.jpg","83","","","","test","true","","83","","LN","LN15.jpg","","old","45","3","practice_recog","left","","","",""
"categorize-image","112","370847","0.0-3.0-7.0-0.13","slwcdz8lqhod2kr","practice_recog","5f0096a72e8e3c19a7c05749","5f60e3c0a3b16e07647b2ff9","5f60ee9b64876d016dc603b4","true","644.7850000113249","./Stimuli/ImagesPractice/SM62.jpg","76","","","","test","true","","76","","SM","SM62.jpg","","new","46","3","practice_recog","right","","","",""
"categorize-image","113","371996","0.0-3.0-7.0-0.14","slwcdz8lqhod2kr","practice_recog","5f0096a72e8e3c19a7c05749","5f60e3c0a3b16e07647b2ff9","5f60ee9b64876d016dc603b4","true","645.1999999117106","./Stimuli/ImagesPractice/LM55.jpg","76","","","","test","true","","76","","LM","LM55.jpg","","new","47","3","practice_recog","right","","","",""
"categorize-image","114","373071","0.0-3.0-7.0-0.15","slwcdz8lqhod2kr","practice_recog","5f0096a72e8e3c19a7c05749","5f60e3c0a3b16e07647b2ff9","5f60ee9b64876d016dc603b4","true","568.9499999862164","./Stimuli/ImagesPractice/LM239.jpg","76","","","","test","true","","76","","LM","LM239.jpg","","new","48","3","practice_recog","right","","","",""
"html-keyboard-response","115","380312","0.0-3.0-8.0","slwcdz8lqhod2kr","instructions","5f0096a72e8e3c19a7c05749","5f60e3c0a3b16e07647b2ff9","5f60ee9b64876d016dc603b4","false","7239.315000129864","<div align=left> Great!<br><br>Are you ready to continue?<br>If you want to reread the instructions and redo the practice trials, please <br>press „Z“.<br><br>You can proceed when you are ready.<br><br>After the presentation of each object, you will receive an instruction whether to <br>remember or to forget the object.<br>We will test your memory of the following pictures only at the very end of <br>the experiment after all learning blocks are completed. <br><br>Press SPACE to CONTINUE when you are ready. </div>","32","","","","","","","","","","","","","","","","","","","",""
"html-keyboard-response","116","385069","0.0-4.0-0.0","slwcdz8lqhod2kr","instructions","5f0096a72e8e3c19a7c05749","5f60e3c0a3b16e07647b2ff9","5f60ee9b64876d016dc603b4","false","4755.75999985449","<div align=left> The actual experiment is about to start.<br>The practice trials are over!<br><br>Please always respond both fast and accurately!<br><br>Remember: <br> <br><li> Please place your index fingers on the <strong>'S'</strong> and <strong>'L'</strong> keys <br>to respond as fast and accurately as possible.</li><li> Every picture can be classified as either mechanical or non-mechanical.</li><li> If you do not respond in time or commit an error, you will receive a corresponding feedback.<br> Please try to respond as <strong> fast </strong> and as <strong> accurately as possible </strong>.</li><li> Remember the <span style='color: dodgerblue; font-size: 28px'>O</span> pictures. <br></li><li> Please minimize distractions and stay focused. </li><br><br>Press SPACE to START.</div>","32","","","","","","","","","","","","","","","","","","","",""
"html-keyboard-response","117","385773","0.0-4.0-1.0-0.0","slwcdz8lqhod2kr","prime","5f0096a72e8e3c19a7c05749","5f60e3c0a3b16e07647b2ff9","5f60ee9b64876d016dc603b4","false","null","<span style=""color: black; font-size: 48px"">N + M</span>","null","","","","resp_prompt","","","","","","","","","","","","","","","",""
"categorize-image","118","386989","0.0-4.0-1.0-1.0","slwcdz8lqhod2kr","prime","5f0096a72e8e3c19a7c05749","5f60e3c0a3b16e07647b2ff9","5f60ee9b64876d016dc603b4","true","1213.0150001030415","./Stimuli/SelectedImages/SM/SM106.bmp","76","","","","test","true","N + M","76","repetition","SM","SM106.bmp","remember","","49","3","prime1","right","","","",""
"html-keyboard-response","119","388993","0.0-4.0-1.0-3.0","slwcdz8lqhod2kr","prime","5f0096a72e8e3c19a7c05749","5f60e3c0a3b16e07647b2ff9","5f60ee9b64876d016dc603b4","false","null","<div style=""align-items: center; display: flex; color: dodgerblue; font-size: 90px""><b>o</b></div>","null","","","","forget_cue","","","","","","","","","","","","","","","",""
"html-keyboard-response","120","389695","0.0-4.0-1.0-0.1","slwcdz8lqhod2kr","prime","5f0096a72e8e3c19a7c05749","5f60e3c0a3b16e07647b2ff9","5f60ee9b64876d016dc603b4","false","null","<span style=""color: black; font-size: 48px"">M + N</span>","null","","","","resp_prompt","","","","","","","","","","","","","","","",""
"categorize-image","121","391289","0.0-4.0-1.0-1.1","slwcdz8lqhod2kr","prime","5f0096a72e8e3c19a7c05749","5f60e3c0a3b16e07647b2ff9","5f60ee9b64876d016dc603b4","true","1589.820000110194","./Stimuli/SelectedImages/LM/LM129.bmp","83","","","","test","true","M + N","83","switch","LM","LM129.bmp","remember","","50","3","prime1","left","","","",""
"html-keyboard-response","122","393290","0.0-4.0-1.0-3.1","slwcdz8lqhod2kr","prime","5f0096a72e8e3c19a7c05749","5f60e3c0a3b16e07647b2ff9","5f60ee9b64876d016dc603b4","false","null","<div style=""align-items: center; display: flex; color: dodgerblue; font-size: 90px""><b>o</b></div>","null","","","","forget_cue","","","","","","","","","","","","","","","",""
"html-keyboard-response","123","393992","0.0-4.0-1.0-0.2","slwcdz8lqhod2kr","prime","5f0096a72e8e3c19a7c05749","5f60e3c0a3b16e07647b2ff9","5f60ee9b64876d016dc603b4","false","null","<span style=""color: black; font-size: 48px"">N + M</span>","null","","","","resp_prompt","","","","","","","","","","","","","","","",""
"categorize-image","124","395451","0.0-4.0-1.0-1.2","slwcdz8lqhod2kr","prime","5f0096a72e8e3c19a7c05749","5f60e3c0a3b16e07647b2ff9","5f60ee9b64876d016dc603b4","true","1455.9100000187755","./Stimuli/SelectedImages/LN/LN131.bmp","83","","","","test","true","N + M","83","switch","LN","LN131.bmp","forget","","51","3","prime1","left","","","",""
"html-keyboard-response","125","397456","0.0-4.0-1.0-3.2","slwcdz8lqhod2kr","prime","5f0096a72e8e3c19a7c05749","5f60e3c0a3b16e07647b2ff9","5f60ee9b64876d016dc603b4","false","null","<div style=""align-items: center; display: flex; color: darkorange; font-size: 90px""><b>ø</b></div>","null","","","","forget_cue","","","","","","","","","","","","","","","",""
"html-keyboard-response","126","398158","0.0-4.0-1.0-0.3","slwcdz8lqhod2kr","prime","5f0096a72e8e3c19a7c05749","5f60e3c0a3b16e07647b2ff9","5f60ee9b64876d016dc603b4","false","null","<span style=""color: black; font-size: 48px"">N + M</span>","null","","","","resp_prompt","","","","","","","","","","","","","","","",""
"categorize-image","127","399021","0.0-4.0-1.0-1.3","slwcdz8lqhod2kr","prime","5f0096a72e8e3c19a7c05749","5f60e3c0a3b16e07647b2ff9","5f60ee9b64876d016dc603b4","true","860.0049999076873","./Stimuli/SelectedImages/LN/LN166.bmp","83","","","","test","true","N + M","83","repetition","LN","LN166.bmp","remember","","52","3","prime1","left","","","",""
"html-keyboard-response","128","401022","0.0-4.0-1.0-3.3","slwcdz8lqhod2kr","prime","5f0096a72e8e3c19a7c05749","5f60e3c0a3b16e07647b2ff9","5f60ee9b64876d016dc603b4","false","null","<div style=""align-items: center; display: flex; color: dodgerblue; font-size: 90px""><b>o</b></div>","null","","","","forget_cue","","","","","","","","","","","","","","","",""
"html-keyboard-response","129","401728","0.0-4.0-1.0-0.4","slwcdz8lqhod2kr","prime","5f0096a72e8e3c19a7c05749","5f60e3c0a3b16e07647b2ff9","5f60ee9b64876d016dc603b4","false","null","<span style=""color: black; font-size: 48px"">M + N</span>","null","","","","resp_prompt","","","","","","","","","","","","","","","",""
"categorize-image","130","402488","0.0-4.0-1.0-1.4","slwcdz8lqhod2kr","prime","5f0096a72e8e3c19a7c05749","5f60e3c0a3b16e07647b2ff9","5f60ee9b64876d016dc603b4","true","757.3149998206645","./Stimuli/SelectedImages/LM/LM59.bmp","83","","","","test","true","M + N","83","repetition","LM","LM59.bmp","forget","","53","3","prime1","left","","","",""
"html-keyboard-response","131","404492","0.0-4.0-1.0-3.4","slwcdz8lqhod2kr","prime","5f0096a72e8e3c19a7c05749","5f60e3c0a3b16e07647b2ff9","5f60ee9b64876d016dc603b4","false","null","<div style=""align-items: center; display: flex; color: darkorange; font-size: 90px""><b>ø</b></div>","null","","","","forget_cue","","","","","","","","","","","","","","","",""
"html-keyboard-response","132","405196","0.0-4.0-1.0-0.5","slwcdz8lqhod2kr","prime","5f0096a72e8e3c19a7c05749","5f60e3c0a3b16e07647b2ff9","5f60ee9b64876d016dc603b4","false","null","<span style=""color: black; font-size: 48px"">N + M</span>","null","","","","resp_prompt","","","","","","","","","","","","","","","",""
"categorize-image","133","406357","0.0-4.0-1.0-1.5","slwcdz8lqhod2kr","prime","5f0096a72e8e3c19a7c05749","5f60e3c0a3b16e07647b2ff9","5f60ee9b64876d016dc603b4","true","1157.5899999588728","./Stimuli/SelectedImages/SN/SN182.bmp","83","","","","test","true","N + M","83","switch","SN","SN182.bmp","forget","","54","3","prime1","left","","","",""
"html-keyboard-response","134","408360","0.0-4.0-1.0-3.5","slwcdz8lqhod2kr","prime","5f0096a72e8e3c19a7c05749","5f60e3c0a3b16e07647b2ff9","5f60ee9b64876d016dc603b4","false","null","<div style=""align-items: center; display: flex; color: darkorange; font-size: 90px""><b>ø</b></div>","null","","","","forget_cue","","","","","","","","","","","","","","","",""
"html-keyboard-response","135","409065","0.0-4.0-1.0-0.6","slwcdz8lqhod2kr","prime","5f0096a72e8e3c19a7c05749","5f60e3c0a3b16e07647b2ff9","5f60ee9b64876d016dc603b4","false","null","<span style=""color: black; font-size: 48px"">N + M</span>","null","","","","resp_prompt","","","","","","","","","","","","","","","",""
"categorize-image","136","410142","0.0-4.0-1.0-1.6","slwcdz8lqhod2kr","prime","5f0096a72e8e3c19a7c05749","5f60e3c0a3b16e07647b2ff9","5f60ee9b64876d016dc603b4","true","1073.7900000531226","./Stimuli/SelectedImages/SM/SM148.bmp","76","","","","test","true","N + M","76","repetition","SM","SM148.bmp","forget","","55","3","prime1","right","","","",""
"html-keyboard-response","137","412148","0.0-4.0-1.0-3.6","slwcdz8lqhod2kr","prime","5f0096a72e8e3c19a7c05749","5f60e3c0a3b16e07647b2ff9","5f60ee9b64876d016dc603b4","false","null","<div style=""align-items: center; display: flex; color: darkorange; font-size: 90px""><b>ø</b></div>","null","","","","forget_cue","","","","","","","","","","","","","","","",""
"html-keyboard-response","138","412851","0.0-4.0-1.0-0.7","slwcdz8lqhod2kr","prime","5f0096a72e8e3c19a7c05749","5f60e3c0a3b16e07647b2ff9","5f60ee9b64876d016dc603b4","false","null","<span style=""color: black; font-size: 48px"">N + M</span>","null","","","","resp_prompt","","","","","","","","","","","","","","","",""
"categorize-image","139","413715","0.0-4.0-1.0-1.7","slwcdz8lqhod2kr","prime","5f0096a72e8e3c19a7c05749","5f60e3c0a3b16e07647b2ff9","5f60ee9b64876d016dc603b4","true","861.7150001227856","./Stimuli/SelectedImages/SM/SM207.bmp","76","","","","test","true","N + M","76","repetition","SM","SM207.bmp","remember","","56","3","prime1","right","","","",""
"html-keyboard-response","140","415717","0.0-4.0-1.0-3.7","slwcdz8lqhod2kr","prime","5f0096a72e8e3c19a7c05749","5f60e3c0a3b16e07647b2ff9","5f60ee9b64876d016dc603b4","false","null","<div style=""align-items: center; display: flex; color: dodgerblue; font-size: 90px""><b>o</b></div>","null","","","","forget_cue","","","","","","","","","","","","","","","",""
"html-keyboard-response","141","416420","0.0-4.0-1.0-0.8","slwcdz8lqhod2kr","prime","5f0096a72e8e3c19a7c05749","5f60e3c0a3b16e07647b2ff9","5f60ee9b64876d016dc603b4","false","null","<span style=""color: black; font-size: 48px"">M + N</span>","null","","","","resp_prompt","","","","","","","","","","","","","","","",""
"categorize-image","142","417789","0.0-4.0-1.0-1.8","slwcdz8lqhod2kr","prime","5f0096a72e8e3c19a7c05749","5f60e3c0a3b16e07647b2ff9","5f60ee9b64876d016dc603b4","true","1365.4650000389665","./Stimuli/SelectedImages/SM/SM128.bmp","76","","","","test","false","M + N","83","repetition","SM","SM128.bmp","remember","","57","3","prime1","right","","","",""
"html-keyboard-response","143","418290","0.0-4.0-1.0-2.8-0.8","slwcdz8lqhod2kr","prime","5f0096a72e8e3c19a7c05749","5f60e3c0a3b16e07647b2ff9","5f60ee9b64876d016dc603b4","false","null","<span style=""color: red; font-size: 48px"">Error!</span>","null","","","","feedback","","","","","","","","","","","","","","","",""
"html-keyboard-response","144","420293","0.0-4.0-1.0-3.8","slwcdz8lqhod2kr","prime","5f0096a72e8e3c19a7c05749","5f60e3c0a3b16e07647b2ff9","5f60ee9b64876d016dc603b4","false","null","<div style=""align-items: center; display: flex; color: dodgerblue; font-size: 90px""><b>o</b></div>","null","","","","forget_cue","","","","","","","","","","","","","","","",""
"html-keyboard-response","145","420996","0.0-4.0-1.0-0.9","slwcdz8lqhod2kr","prime","5f0096a72e8e3c19a7c05749","5f60e3c0a3b16e07647b2ff9","5f60ee9b64876d016dc603b4","false","null","<span style=""color: black; font-size: 48px"">M + N</span>","null","","","","resp_prompt","","","","","","","","","","","","","","","",""
"categorize-image","146","422105","0.0-4.0-1.0-1.9","slwcdz8lqhod2kr","prime","5f0096a72e8e3c19a7c05749","5f60e3c0a3b16e07647b2ff9","5f60ee9b64876d016dc603b4","true","1105.5099999066442","./Stimuli/SelectedImages/SN/SN181.bmp","76","","","","test","true","M + N","76","repetition","SN","SN181.bmp","forget","","58","3","prime1","right","","","",""
"html-keyboard-response","147","424107","0.0-4.0-1.0-3.9","slwcdz8lqhod2kr","prime","5f0096a72e8e3c19a7c05749","5f60e3c0a3b16e07647b2ff9","5f60ee9b64876d016dc603b4","false","null","<div style=""align-items: center; display: flex; color: darkorange; font-size: 90px""><b>ø</b></div>","null","","","","forget_cue","","","","","","","","","","","","","","","",""
"html-keyboard-response","148","424808","0.0-4.0-1.0-0.10","slwcdz8lqhod2kr","prime","5f0096a72e8e3c19a7c05749","5f60e3c0a3b16e07647b2ff9","5f60ee9b64876d016dc603b4","false","null","<span style=""color: black; font-size: 48px"">M + N</span>","null","","","","resp_prompt","","","","","","","","","","","","","","","",""
"categorize-image","149","425635","0.0-4.0-1.0-1.10","slwcdz8lqhod2kr","prime","5f0096a72e8e3c19a7c05749","5f60e3c0a3b16e07647b2ff9","5f60ee9b64876d016dc603b4","true","823.5400000121444","./Stimuli/SelectedImages/SN/SN27.bmp","76","","","","test","true","M + N","76","repetition","SN","SN27.bmp","remember","","59","3","prime1","right","","","",""
"html-keyboard-response","150","427637","0.0-4.0-1.0-3.10","slwcdz8lqhod2kr","prime","5f0096a72e8e3c19a7c05749","5f60e3c0a3b16e07647b2ff9","5f60ee9b64876d016dc603b4","false","null","<div style=""align-items: center; display: flex; color: dodgerblue; font-size: 90px""><b>o</b></div>","null","","","","forget_cue","","","","","","","","","","","","","","","",""
"html-keyboard-response","151","428344","0.0-4.0-1.0-0.11","slwcdz8lqhod2kr","prime","5f0096a72e8e3c19a7c05749","5f60e3c0a3b16e07647b2ff9","5f60ee9b64876d016dc603b4","false","null","<span style=""color: black; font-size: 48px"">N + M</span>","null","","","","resp_prompt","","","","","","","","","","","","","","","",""
"categorize-image","152","429212","0.0-4.0-1.0-1.11","slwcdz8lqhod2kr","prime","5f0096a72e8e3c19a7c05749","5f60e3c0a3b16e07647b2ff9","5f60ee9b64876d016dc603b4","true","865.9100001677871","./Stimuli/SelectedImages/SN/SN140.bmp","83","","","","test","true","N + M","83","switch","SN","SN140.bmp","remember","","60","3","prime1","left","","","",""
"html-keyboard-response","153","431214","0.0-4.0-1.0-3.11","slwcdz8lqhod2kr","prime","5f0096a72e8e3c19a7c05749","5f60e3c0a3b16e07647b2ff9","5f60ee9b64876d016dc603b4","false","null","<div style=""align-items: center; display: flex; color: dodgerblue; font-size: 90px""><b>o</b></div>","null","","","","forget_cue","","","","","","","","","","","","","","","",""
"html-keyboard-response","154","431920","0.0-4.0-1.0-0.12","slwcdz8lqhod2kr","prime","5f0096a72e8e3c19a7c05749","5f60e3c0a3b16e07647b2ff9","5f60ee9b64876d016dc603b4","false","null","<span style=""color: black; font-size: 48px"">M + N</span>","null","","","","resp_prompt","","","","","","","","","","","","","","","",""
"categorize-image","155","433405","0.0-4.0-1.0-1.12","slwcdz8lqhod2kr","prime","5f0096a72e8e3c19a7c05749","5f60e3c0a3b16e07647b2ff9","5f60ee9b64876d016dc603b4","true","1481.215000152588","./Stimuli/SelectedImages/LN/LN150.bmp","76","","","","test","true","M + N","76","switch","LN","LN150.bmp","remember","","61","3","prime1","right","","","",""
"html-keyboard-response","156","435406","0.0-4.0-1.0-3.12","slwcdz8lqhod2kr","prime","5f0096a72e8e3c19a7c05749","5f60e3c0a3b16e07647b2ff9","5f60ee9b64876d016dc603b4","false","null","<div style=""align-items: center; display: flex; color: dodgerblue; font-size: 90px""><b>o</b></div>","null","","","","forget_cue","","","","","","","","","","","","","","","",""
"html-keyboard-response","157","436108","0.0-4.0-1.0-0.13","slwcdz8lqhod2kr","prime","5f0096a72e8e3c19a7c05749","5f60e3c0a3b16e07647b2ff9","5f60ee9b64876d016dc603b4","false","null","<span style=""color: black; font-size: 48px"">M + N</span>","null","","","","resp_prompt","","","","","","","","","","","","","","","",""
"categorize-image","158","436811","0.0-4.0-1.0-1.13","slwcdz8lqhod2kr","prime","5f0096a72e8e3c19a7c05749","5f60e3c0a3b16e07647b2ff9","5f60ee9b64876d016dc603b4","true","699.4650000706315","./Stimuli/SelectedImages/SM/SM76.bmp","83","","","","test","true","M + N","83","switch","SM","SM76.bmp","remember","","62","3","prime1","left","","","",""
"html-keyboard-response","159","438812","0.0-4.0-1.0-3.13","slwcdz8lqhod2kr","prime","5f0096a72e8e3c19a7c05749","5f60e3c0a3b16e07647b2ff9","5f60ee9b64876d016dc603b4","false","null","<div style=""align-items: center; display: flex; color: dodgerblue; font-size: 90px""><b>o</b></div>","null","","","","forget_cue","","","","","","","","","","","","","","","",""
"html-keyboard-response","160","439516","0.0-4.0-1.0-0.14","slwcdz8lqhod2kr","prime","5f0096a72e8e3c19a7c05749","5f60e3c0a3b16e07647b2ff9","5f60ee9b64876d016dc603b4","false","null","<span style=""color: black; font-size: 48px"">N + M</span>","null","","","","resp_prompt","","","","","","","","","","","","","","","",""
"categorize-image","161","440643","0.0-4.0-1.0-1.14","slwcdz8lqhod2kr","prime","5f0096a72e8e3c19a7c05749","5f60e3c0a3b16e07647b2ff9","5f60ee9b64876d016dc603b4","true","1123.884999891743","./Stimuli/SelectedImages/SN/SN179.bmp","83","","","","test","true","N + M","83","repetition","SN","SN179.bmp","remember","","63","3","prime1","left","","","",""
"html-keyboard-response","162","442646","0.0-4.0-1.0-3.14","slwcdz8lqhod2kr","prime","5f0096a72e8e3c19a7c05749","5f60e3c0a3b16e07647b2ff9","5f60ee9b64876d016dc603b4","false","null","<div style=""align-items: center; display: flex; color: dodgerblue; font-size: 90px""><b>o</b></div>","null","","","","forget_cue","","","","","","","","","","","","","","","",""
"html-keyboard-response","163","443347","0.0-4.0-1.0-0.15","slwcdz8lqhod2kr","prime","5f0096a72e8e3c19a7c05749","5f60e3c0a3b16e07647b2ff9","5f60ee9b64876d016dc603b4","false","null","<span style=""color: black; font-size: 48px"">N + M</span>","null","","","","resp_prompt","","","","","","","","","","","","","","","",""
"categorize-image","164","444414","0.0-4.0-1.0-1.15","slwcdz8lqhod2kr","prime","5f0096a72e8e3c19a7c05749","5f60e3c0a3b16e07647b2ff9","5f60ee9b64876d016dc603b4","true","1063.1750000175089","./Stimuli/SelectedImages/LN/LN59.bmp","83","","","","test","true","N + M","83","switch","LN","LN59.bmp","forget","","64","3","prime1","left","","","",""
"html-keyboard-response","165","446415","0.0-4.0-1.0-3.15","slwcdz8lqhod2kr","prime","5f0096a72e8e3c19a7c05749","5f60e3c0a3b16e07647b2ff9","5f60ee9b64876d016dc603b4","false","null","<div style=""align-items: center; display: flex; color: darkorange; font-size: 90px""><b>ø</b></div>","null","","","","forget_cue","","","","","","","","","","","","","","","",""
"html-keyboard-response","166","447117","0.0-4.0-1.0-0.16","slwcdz8lqhod2kr","prime","5f0096a72e8e3c19a7c05749","5f60e3c0a3b16e07647b2ff9","5f60ee9b64876d016dc603b4","false","null","<span style=""color: black; font-size: 48px"">N + M</span>","null","","","","resp_prompt","","","","","","","","","","","","","","","",""
"categorize-image","167","447792","0.0-4.0-1.0-1.16","slwcdz8lqhod2kr","prime","5f0096a72e8e3c19a7c05749","5f60e3c0a3b16e07647b2ff9","5f60ee9b64876d016dc603b4","true","671.6299999970943","./Stimuli/SelectedImages/LN/LN82.bmp","83","","","","test","true","N + M","83","switch","LN","LN82.bmp","remember","","65","3","prime1","left","","","",""
"html-keyboard-response","168","449795","0.0-4.0-1.0-3.16","slwcdz8lqhod2kr","prime","5f0096a72e8e3c19a7c05749","5f60e3c0a3b16e07647b2ff9","5f60ee9b64876d016dc603b4","false","null","<div style=""align-items: center; display: flex; color: dodgerblue; font-size: 90px""><b>o</b></div>","null","","","","forget_cue","","","","","","","","","","","","","","","",""
"html-keyboard-response","169","450497","0.0-4.0-1.0-0.17","slwcdz8lqhod2kr","prime","5f0096a72e8e3c19a7c05749","5f60e3c0a3b16e07647b2ff9","5f60ee9b64876d016dc603b4","false","null","<span style=""color: black; font-size: 48px"">M + N</span>","null","","","","resp_prompt","","","","","","","","","","","","","","","",""
"categorize-image","170","451040","0.0-4.0-1.0-1.17","slwcdz8lqhod2kr","prime","5f0096a72e8e3c19a7c05749","5f60e3c0a3b16e07647b2ff9","5f60ee9b64876d016dc603b4","true","540.1850000489503","./Stimuli/SelectedImages/LM/LM75.bmp","83","","","","test","true","M + N","83","repetition","LM","LM75.bmp","remember","","66","3","prime1","left","","","",""
"html-keyboard-response","171","453045","0.0-4.0-1.0-3.17","slwcdz8lqhod2kr","prime","5f0096a72e8e3c19a7c05749","5f60e3c0a3b16e07647b2ff9","5f60ee9b64876d016dc603b4","false","null","<div style=""align-items: center; display: flex; color: dodgerblue; font-size: 90px""><b>o</b></div>","null","","","","forget_cue","","","","","","","","","","","","","","","",""
"html-keyboard-response","172","453746","0.0-4.0-1.0-0.18","slwcdz8lqhod2kr","prime","5f0096a72e8e3c19a7c05749","5f60e3c0a3b16e07647b2ff9","5f60ee9b64876d016dc603b4","false","null","<span style=""color: black; font-size: 48px"">N + M</span>","null","","","","resp_prompt","","","","","","","","","","","","","","","",""
"categorize-image","173","454640","0.0-4.0-1.0-1.18","slwcdz8lqhod2kr","prime","5f0096a72e8e3c19a7c05749","5f60e3c0a3b16e07647b2ff9","5f60ee9b64876d016dc603b4","true","889.8449998814613","./Stimuli/SelectedImages/SM/SM24.bmp","76","","","","test","true","N + M","76","switch","SM","SM24.bmp","forget","","67","3","prime1","right","","","",""
"html-keyboard-response","174","456644","0.0-4.0-1.0-3.18","slwcdz8lqhod2kr","prime","5f0096a72e8e3c19a7c05749","5f60e3c0a3b16e07647b2ff9","5f60ee9b64876d016dc603b4","false","null","<div style=""align-items: center; display: flex; color: darkorange; font-size: 90px""><b>ø</b></div>","null","","","","forget_cue","","","","","","","","","","","","","","","",""
"html-keyboard-response","175","457346","0.0-4.0-1.0-0.19","slwcdz8lqhod2kr","prime","5f0096a72e8e3c19a7c05749","5f60e3c0a3b16e07647b2ff9","5f60ee9b64876d016dc603b4","false","null","<span style=""color: black; font-size: 48px"">N + M</span>","null","","","","resp_prompt","","","","","","","","","","","","","","","",""
"categorize-image","176","458231","0.0-4.0-1.0-1.19","slwcdz8lqhod2kr","prime","5f0096a72e8e3c19a7c05749","5f60e3c0a3b16e07647b2ff9","5f60ee9b64876d016dc603b4","true","881.7900000140071","./Stimuli/SelectedImages/LM/LM58.bmp","76","","","","test","true","N + M","76","switch","LM","LM58.bmp","remember","","68","3","prime1","right","","","",""
"html-keyboard-response","177","460232","0.0-4.0-1.0-3.19","slwcdz8lqhod2kr","prime","5f0096a72e8e3c19a7c05749","5f60e3c0a3b16e07647b2ff9","5f60ee9b64876d016dc603b4","false","null","<div style=""align-items: center; display: flex; color: dodgerblue; font-size: 90px""><b>o</b></div>","null","","","","forget_cue","","","","","","","","","","","","","","","",""
"html-keyboard-response","178","460933","0.0-4.0-1.0-0.20","slwcdz8lqhod2kr","prime","5f0096a72e8e3c19a7c05749","5f60e3c0a3b16e07647b2ff9","5f60ee9b64876d016dc603b4","false","null","<span style=""color: black; font-size: 48px"">N + M</span>","null","","","","resp_prompt","","","","","","","","","","","","","","","",""
"categorize-image","179","461698","0.0-4.0-1.0-1.20","slwcdz8lqhod2kr","prime","5f0096a72e8e3c19a7c05749","5f60e3c0a3b16e07647b2ff9","5f60ee9b64876d016dc603b4","true","762.3850000090897","./Stimuli/SelectedImages/SN/SN93.bmp","83","","","","test","true","N + M","83","repetition","SN","SN93.bmp","forget","","69","3","prime1","left","","","",""
"html-keyboard-response","180","463701","0.0-4.0-1.0-3.20","slwcdz8lqhod2kr","prime","5f0096a72e8e3c19a7c05749","5f60e3c0a3b16e07647b2ff9","5f60ee9b64876d016dc603b4","false","null","<div style=""align-items: center; display: flex; color: darkorange; font-size: 90px""><b>ø</b></div>","null","","","","forget_cue","","","","","","","","","","","","","","","",""
"html-keyboard-response","181","464406","0.0-4.0-1.0-0.21","slwcdz8lqhod2kr","prime","5f0096a72e8e3c19a7c05749","5f60e3c0a3b16e07647b2ff9","5f60ee9b64876d016dc603b4","false","null","<span style=""color: black; font-size: 48px"">N + M</span>","null","","","","resp_prompt","","","","","","","","","","","","","","","",""
"categorize-image","182","465159","0.0-4.0-1.0-1.21","slwcdz8lqhod2kr","prime","5f0096a72e8e3c19a7c05749","5f60e3c0a3b16e07647b2ff9","5f60ee9b64876d016dc603b4","true","749.8999999370426","./Stimuli/SelectedImages/LN/LN42.bmp","83","","","","test","true","N + M","83","repetition","LN","LN42.bmp","forget","","70","3","prime1","left","","","",""
"html-keyboard-response","183","467163","0.0-4.0-1.0-3.21","slwcdz8lqhod2kr","prime","5f0096a72e8e3c19a7c05749","5f60e3c0a3b16e07647b2ff9","5f60ee9b64876d016dc603b4","false","null","<div style=""align-items: center; display: flex; color: darkorange; font-size: 90px""><b>ø</b></div>","null","","","","forget_cue","","","","","","","","","","","","","","","",""
"html-keyboard-response","184","467866","0.0-4.0-1.0-0.22","slwcdz8lqhod2kr","prime","5f0096a72e8e3c19a7c05749","5f60e3c0a3b16e07647b2ff9","5f60ee9b64876d016dc603b4","false","null","<span style=""color: black; font-size: 48px"">M + N</span>","null","","","","resp_prompt","","","","","","","","","","","","","","","",""
"categorize-image","185","468673","0.0-4.0-1.0-1.22","slwcdz8lqhod2kr","prime","5f0096a72e8e3c19a7c05749","5f60e3c0a3b16e07647b2ff9","5f60ee9b64876d016dc603b4","true","803.8649999070913","./Stimuli/SelectedImages/LN/LN9.bmp","83","","","","test","false","M + N","76","repetition","LN","LN9.bmp","remember","","71","3","prime1","left","","","",""
"html-keyboard-response","186","469174","0.0-4.0-1.0-2.22-0.22","slwcdz8lqhod2kr","prime","5f0096a72e8e3c19a7c05749","5f60e3c0a3b16e07647b2ff9","5f60ee9b64876d016dc603b4","false","null","<span style=""color: red; font-size: 48px"">Error!</span>","null","","","","feedback","","","","","","","","","","","","","","","",""
"html-keyboard-response","187","471176","0.0-4.0-1.0-3.22","slwcdz8lqhod2kr","prime","5f0096a72e8e3c19a7c05749","5f60e3c0a3b16e07647b2ff9","5f60ee9b64876d016dc603b4","false","null","<div style=""align-items: center; display: flex; color: dodgerblue; font-size: 90px""><b>o</b></div>","null","","","","forget_cue","","","","","","","","","","","","","","","",""
"html-keyboard-response","188","471881","0.0-4.0-1.0-0.23","slwcdz8lqhod2kr","prime","5f0096a72e8e3c19a7c05749","5f60e3c0a3b16e07647b2ff9","5f60ee9b64876d016dc603b4","false","null","<span style=""color: black; font-size: 48px"">N + M</span>","null","","","","resp_prompt","","","","","","","","","","","","","","","",""
"categorize-image","189","473176","0.0-4.0-1.0-1.23","slwcdz8lqhod2kr","prime","5f0096a72e8e3c19a7c05749","5f60e3c0a3b16e07647b2ff9","5f60ee9b64876d016dc603b4","true","1292.1299999579787","./Stimuli/SelectedImages/LN/LN177.bmp","83","","","","test","true","N + M","83","repetition","LN","LN177.bmp","forget","","72","3","prime1","left","","","",""
"html-keyboard-response","190","475180","0.0-4.0-1.0-3.23","slwcdz8lqhod2kr","prime","5f0096a72e8e3c19a7c05749","5f60e3c0a3b16e07647b2ff9","5f60ee9b64876d016dc603b4","false","null","<div style=""align-items: center; display: flex; color: darkorange; font-size: 90px""><b>ø</b></div>","null","","","","forget_cue","","","","","","","","","","","","","","","",""
"html-keyboard-response","191","475885","0.0-4.0-1.0-0.24","slwcdz8lqhod2kr","prime","5f0096a72e8e3c19a7c05749","5f60e3c0a3b16e07647b2ff9","5f60ee9b64876d016dc603b4","false","null","<span style=""color: black; font-size: 48px"">N + M</span>","null","","","","resp_prompt","","","","","","","","","","","","","","","",""
"categorize-image","192","476737","0.0-4.0-1.0-1.24","slwcdz8lqhod2kr","prime","5f0096a72e8e3c19a7c05749","5f60e3c0a3b16e07647b2ff9","5f60ee9b64876d016dc603b4","true","849.3400001898408","./Stimuli/SelectedImages/SM/SM195.bmp","76","","","","test","true","N + M","76","repetition","SM","SM195.bmp","forget","","73","3","prime1","right","","","",""
"html-keyboard-response","193","478743","0.0-4.0-1.0-3.24","slwcdz8lqhod2kr","prime","5f0096a72e8e3c19a7c05749","5f60e3c0a3b16e07647b2ff9","5f60ee9b64876d016dc603b4","false","null","<div style=""align-items: center; display: flex; color: darkorange; font-size: 90px""><b>ø</b></div>","null","","","","forget_cue","","","","","","","","","","","","","","","",""
"html-keyboard-response","194","479445","0.0-4.0-1.0-0.25","slwcdz8lqhod2kr","prime","5f0096a72e8e3c19a7c05749","5f60e3c0a3b16e07647b2ff9","5f60ee9b64876d016dc603b4","false","null","<span style=""color: black; font-size: 48px"">M + N</span>","null","","","","resp_prompt","","","","","","","","","","","","","","","",""
"categorize-image","195","480519","0.0-4.0-1.0-1.25","slwcdz8lqhod2kr","prime","5f0096a72e8e3c19a7c05749","5f60e3c0a3b16e07647b2ff9","5f60ee9b64876d016dc603b4","true","1071.1149999406189","./Stimuli/SelectedImages/SN/SN18.bmp","76","","","","test","true","M + N","76","switch","SN","SN18.bmp","remember","","74","3","prime1","right","","","",""
"html-keyboard-response","196","482522","0.0-4.0-1.0-3.25","slwcdz8lqhod2kr","prime","5f0096a72e8e3c19a7c05749","5f60e3c0a3b16e07647b2ff9","5f60ee9b64876d016dc603b4","false","null","<div style=""align-items: center; display: flex; color: dodgerblue; font-size: 90px""><b>o</b></div>","null","","","","forget_cue","","","","","","","","","","","","","","","",""
"html-keyboard-response","197","483224","0.0-4.0-1.0-0.26","slwcdz8lqhod2kr","prime","5f0096a72e8e3c19a7c05749","5f60e3c0a3b16e07647b2ff9","5f60ee9b64876d016dc603b4","false","null","<span style=""color: black; font-size: 48px"">M + N</span>","null","","","","resp_prompt","","","","","","","","","","","","","","","",""
"categorize-image","198","483871","0.0-4.0-1.0-1.26","slwcdz8lqhod2kr","prime","5f0096a72e8e3c19a7c05749","5f60e3c0a3b16e07647b2ff9","5f60ee9b64876d016dc603b4","true","643.3500000275671","./Stimuli/SelectedImages/SM/SM78.bmp","83","","","","test","true","M + N","83","repetition","SM","SM78.bmp","remember","","75","3","prime1","left","","","",""
"html-keyboard-response","199","485873","0.0-4.0-1.0-3.26","slwcdz8lqhod2kr","prime","5f0096a72e8e3c19a7c05749","5f60e3c0a3b16e07647b2ff9","5f60ee9b64876d016dc603b4","false","null","<div style=""align-items: center; display: flex; color: dodgerblue; font-size: 90px""><b>o</b></div>","null","","","","forget_cue","","","","","","","","","","","","","","","",""
"html-keyboard-response","200","486575","0.0-4.0-1.0-0.27","slwcdz8lqhod2kr","prime","5f0096a72e8e3c19a7c05749","5f60e3c0a3b16e07647b2ff9","5f60ee9b64876d016dc603b4","false","null","<span style=""color: black; font-size: 48px"">M + N</span>","null","","","","resp_prompt","","","","","","","","","","","","","","","",""
"categorize-image","201","487314","0.0-4.0-1.0-1.27","slwcdz8lqhod2kr","prime","5f0096a72e8e3c19a7c05749","5f60e3c0a3b16e07647b2ff9","5f60ee9b64876d016dc603b4","true","736.304999794811","./Stimuli/SelectedImages/LM/LM235.bmp","83","","","","test","true","M + N","83","switch","LM","LM235.bmp","remember","","76","3","prime1","left","","","",""
"html-keyboard-response","202","489319","0.0-4.0-1.0-3.27","slwcdz8lqhod2kr","prime","5f0096a72e8e3c19a7c05749","5f60e3c0a3b16e07647b2ff9","5f60ee9b64876d016dc603b4","false","null","<div style=""align-items: center; display: flex; color: dodgerblue; font-size: 90px""><b>o</b></div>","null","","","","forget_cue","","","","","","","","","","","","","","","",""
"html-keyboard-response","203","490022","0.0-4.0-1.0-0.28","slwcdz8lqhod2kr","prime","5f0096a72e8e3c19a7c05749","5f60e3c0a3b16e07647b2ff9","5f60ee9b64876d016dc603b4","false","null","<span style=""color: black; font-size: 48px"">N + M</span>","null","","","","resp_prompt","","","","","","","","","","","","","","","",""
"categorize-image","204","491274","0.0-4.0-1.0-1.28","slwcdz8lqhod2kr","prime","5f0096a72e8e3c19a7c05749","5f60e3c0a3b16e07647b2ff9","5f60ee9b64876d016dc603b4","true","1249.1900001186877","./Stimuli/SelectedImages/LM/LM103.bmp","76","","","","test","true","N + M","76","repetition","LM","LM103.bmp","forget","","77","3","prime1","right","","","",""
"html-keyboard-response","205","493276","0.0-4.0-1.0-3.28","slwcdz8lqhod2kr","prime","5f0096a72e8e3c19a7c05749","5f60e3c0a3b16e07647b2ff9","5f60ee9b64876d016dc603b4","false","null","<div style=""align-items: center; display: flex; color: darkorange; font-size: 90px""><b>ø</b></div>","null","","","","forget_cue","","","","","","","","","","","","","","","",""
"html-keyboard-response","206","493982","0.0-4.0-1.0-0.29","slwcdz8lqhod2kr","prime","5f0096a72e8e3c19a7c05749","5f60e3c0a3b16e07647b2ff9","5f60ee9b64876d016dc603b4","false","null","<span style=""color: black; font-size: 48px"">M + N</span>","null","","","","resp_prompt","","","","","","","","","","","","","","","",""
"categorize-image","207","495184","0.0-4.0-1.0-1.29","slwcdz8lqhod2kr","prime","5f0096a72e8e3c19a7c05749","5f60e3c0a3b16e07647b2ff9","5f60ee9b64876d016dc603b4","true","1199.3050000164658","./Stimuli/SelectedImages/SM/SM108.bmp","83","","","","test","true","M + N","83","repetition","SM","SM108.bmp","forget","","78","3","prime1","left","","","",""
"html-keyboard-response","208","497185","0.0-4.0-1.0-3.29","slwcdz8lqhod2kr","prime","5f0096a72e8e3c19a7c05749","5f60e3c0a3b16e07647b2ff9","5f60ee9b64876d016dc603b4","false","null","<div style=""align-items: center; display: flex; color: darkorange; font-size: 90px""><b>ø</b></div>","null","","","","forget_cue","","","","","","","","","","","","","","","",""
"html-keyboard-response","209","497888","0.0-4.0-1.0-0.30","slwcdz8lqhod2kr","prime","5f0096a72e8e3c19a7c05749","5f60e3c0a3b16e07647b2ff9","5f60ee9b64876d016dc603b4","false","null","<span style=""color: black; font-size: 48px"">N + M</span>","null","","","","resp_prompt","","","","","","","","","","","","","","","",""
"categorize-image","210","499899","0.0-4.0-1.0-1.30","slwcdz8lqhod2kr","prime","5f0096a72e8e3c19a7c05749","5f60e3c0a3b16e07647b2ff9","5f60ee9b64876d016dc603b4","true","null","./Stimuli/SelectedImages/LN/LN12.bmp","null","","","","test","false","N + M","83","switch","LN","LN12.bmp","remember","","79","3","prime1","too_slow","","","",""
"html-keyboard-response","211","500401","0.0-4.0-1.0-2.30-0.30","slwcdz8lqhod2kr","prime","5f0096a72e8e3c19a7c05749","5f60e3c0a3b16e07647b2ff9","5f60ee9b64876d016dc603b4","false","null","<span style=""color: red; font-size: 48px"">Too slow!</span>","null","","","","feedback","","","","","","","","","","","","","","","",""
"html-keyboard-response","212","502405","0.0-4.0-1.0-3.30","slwcdz8lqhod2kr","prime","5f0096a72e8e3c19a7c05749","5f60e3c0a3b16e07647b2ff9","5f60ee9b64876d016dc603b4","false","null","<div style=""align-items: center; display: flex; color: dodgerblue; font-size: 90px""><b>o</b></div>","null","","","","forget_cue","","","","","","","","","","","","","","","",""
"html-keyboard-response","213","503108","0.0-4.0-1.0-0.31","slwcdz8lqhod2kr","prime","5f0096a72e8e3c19a7c05749","5f60e3c0a3b16e07647b2ff9","5f60ee9b64876d016dc603b4","false","null","<span style=""color: black; font-size: 48px"">M + N</span>","null","","","","resp_prompt","","","","","","","","","","","","","","","",""
"categorize-image","214","503866","0.0-4.0-1.0-1.31","slwcdz8lqhod2kr","prime","5f0096a72e8e3c19a7c05749","5f60e3c0a3b16e07647b2ff9","5f60ee9b64876d016dc603b4","true","754.769999999553","./Stimuli/SelectedImages/SM/SM205.bmp","83","","","","test","true","M + N","83","switch","SM","SM205.bmp","remember","","80","3","prime1","left","","","",""
"html-keyboard-response","215","505871","0.0-4.0-1.0-3.31","slwcdz8lqhod2kr","prime","5f0096a72e8e3c19a7c05749","5f60e3c0a3b16e07647b2ff9","5f60ee9b64876d016dc603b4","false","null","<div style=""align-items: center; display: flex; color: dodgerblue; font-size: 90px""><b>o</b></div>","null","","","","forget_cue","","","","","","","","","","","","","","","",""
"html-keyboard-response","216","506572","0.0-4.0-1.0-0.32","slwcdz8lqhod2kr","prime","5f0096a72e8e3c19a7c05749","5f60e3c0a3b16e07647b2ff9","5f60ee9b64876d016dc603b4","false","null","<span style=""color: black; font-size: 48px"">N + M</span>","null","","","","resp_prompt","","","","","","","","","","","","","","","",""
"categorize-image","217","507403","0.0-4.0-1.0-1.32","slwcdz8lqhod2kr","prime","5f0096a72e8e3c19a7c05749","5f60e3c0a3b16e07647b2ff9","5f60ee9b64876d016dc603b4","true","827.945000026375","./Stimuli/SelectedImages/LM/LM57.bmp","76","","","","test","true","N + M","76","repetition","LM","LM57.bmp","remember","","81","3","prime1","right","","","",""
"html-keyboard-response","218","509406","0.0-4.0-1.0-3.32","slwcdz8lqhod2kr","prime","5f0096a72e8e3c19a7c05749","5f60e3c0a3b16e07647b2ff9","5f60ee9b64876d016dc603b4","false","null","<div style=""align-items: center; display: flex; color: dodgerblue; font-size: 90px""><b>o</b></div>","null","","","","forget_cue","","","","","","","","","","","","","","","",""
"html-keyboard-response","219","510108","0.0-4.0-1.0-0.33","slwcdz8lqhod2kr","prime","5f0096a72e8e3c19a7c05749","5f60e3c0a3b16e07647b2ff9","5f60ee9b64876d016dc603b4","false","null","<span style=""color: black; font-size: 48px"">N + M</span>","null","","","","resp_prompt","","","","","","","","","","","","","","","",""
"categorize-image","220","510820","0.0-4.0-1.0-1.33","slwcdz8lqhod2kr","prime","5f0096a72e8e3c19a7c05749","5f60e3c0a3b16e07647b2ff9","5f60ee9b64876d016dc603b4","true","708.7949998676777","./Stimuli/SelectedImages/SN/SN111.bmp","83","","","","test","true","N + M","83","switch","SN","SN111.bmp","forget","","82","3","prime1","left","","","",""
"html-keyboard-response","221","512823","0.0-4.0-1.0-3.33","slwcdz8lqhod2kr","prime","5f0096a72e8e3c19a7c05749","5f60e3c0a3b16e07647b2ff9","5f60ee9b64876d016dc603b4","false","null","<div style=""align-items: center; display: flex; color: darkorange; font-size: 90px""><b>ø</b></div>","null","","","","forget_cue","","","","","","","","","","","","","","","",""
"html-keyboard-response","222","513526","0.0-4.0-1.0-0.34","slwcdz8lqhod2kr","prime","5f0096a72e8e3c19a7c05749","5f60e3c0a3b16e07647b2ff9","5f60ee9b64876d016dc603b4","false","null","<span style=""color: black; font-size: 48px"">M + N</span>","null","","","","resp_prompt","","","","","","","","","","","","","","","",""
"categorize-image","223","514823","0.0-4.0-1.0-1.34","slwcdz8lqhod2kr","prime","5f0096a72e8e3c19a7c05749","5f60e3c0a3b16e07647b2ff9","5f60ee9b64876d016dc603b4","true","1293.8250000588596","./Stimuli/SelectedImages/SN/SN64.bmp","76","","","","test","true","M + N","76","repetition","SN","SN64.bmp","forget","","83","3","prime1","right","","","",""
"html-keyboard-response","224","516825","0.0-4.0-1.0-3.34","slwcdz8lqhod2kr","prime","5f0096a72e8e3c19a7c05749","5f60e3c0a3b16e07647b2ff9","5f60ee9b64876d016dc603b4","false","null","<div style=""align-items: center; display: flex; color: darkorange; font-size: 90px""><b>ø</b></div>","null","","","","forget_cue","","","","","","","","","","","","","","","",""
"html-keyboard-response","225","517526","0.0-4.0-1.0-0.35","slwcdz8lqhod2kr","prime","5f0096a72e8e3c19a7c05749","5f60e3c0a3b16e07647b2ff9","5f60ee9b64876d016dc603b4","false","null","<span style=""color: black; font-size: 48px"">M + N</span>","null","","","","resp_prompt","","","","","","","","","","","","","","","",""
"categorize-image","226","518471","0.0-4.0-1.0-1.35","slwcdz8lqhod2kr","prime","5f0096a72e8e3c19a7c05749","5f60e3c0a3b16e07647b2ff9","5f60ee9b64876d016dc603b4","true","941.6000000201166","./Stimuli/SelectedImages/LN/LN101.bmp","76","","","","test","true","M + N","76","repetition","LN","LN101.bmp","forget","","84","3","prime1","right","","","",""
"html-keyboard-response","227","520472","0.0-4.0-1.0-3.35","slwcdz8lqhod2kr","prime","5f0096a72e8e3c19a7c05749","5f60e3c0a3b16e07647b2ff9","5f60ee9b64876d016dc603b4","false","null","<div style=""align-items: center; display: flex; color: darkorange; font-size: 90px""><b>ø</b></div>","null","","","","forget_cue","","","","","","","","","","","","","","","",""
"html-keyboard-response","228","521177","0.0-4.0-1.0-0.36","slwcdz8lqhod2kr","prime","5f0096a72e8e3c19a7c05749","5f60e3c0a3b16e07647b2ff9","5f60ee9b64876d016dc603b4","false","null","<span style=""color: black; font-size: 48px"">M + N</span>","null","","","","resp_prompt","","","","","","","","","","","","","","","",""
"categorize-image","229","522115","0.0-4.0-1.0-1.36","slwcdz8lqhod2kr","prime","5f0096a72e8e3c19a7c05749","5f60e3c0a3b16e07647b2ff9","5f60ee9b64876d016dc603b4","true","934.5650000032037","./Stimuli/SelectedImages/SN/SN187.bmp","76","","","","test","true","M + N","76","switch","SN","SN187.bmp","forget","","85","3","prime1","right","","","",""
"html-keyboard-response","230","524118","0.0-4.0-1.0-3.36","slwcdz8lqhod2kr","prime","5f0096a72e8e3c19a7c05749","5f60e3c0a3b16e07647b2ff9","5f60ee9b64876d016dc603b4","false","null","<div style=""align-items: center; display: flex; color: darkorange; font-size: 90px""><b>ø</b></div>","null","","","","forget_cue","","","","","","","","","","","","","","","",""
"html-keyboard-response","231","524822","0.0-4.0-1.0-0.37","slwcdz8lqhod2kr","prime","5f0096a72e8e3c19a7c05749","5f60e3c0a3b16e07647b2ff9","5f60ee9b64876d016dc603b4","false","null","<span style=""color: black; font-size: 48px"">M + N</span>","null","","","","resp_prompt","","","","","","","","","","","","","","","",""
"categorize-image","232","525548","0.0-4.0-1.0-1.37","slwcdz8lqhod2kr","prime","5f0096a72e8e3c19a7c05749","5f60e3c0a3b16e07647b2ff9","5f60ee9b64876d016dc603b4","true","722.7849999908358","./Stimuli/SelectedImages/LM/LM100.bmp","83","","","","test","true","M + N","83","switch","LM","LM100.bmp","forget","","86","3","prime1","left","","","",""
"html-keyboard-response","233","527550","0.0-4.0-1.0-3.37","slwcdz8lqhod2kr","prime","5f0096a72e8e3c19a7c05749","5f60e3c0a3b16e07647b2ff9","5f60ee9b64876d016dc603b4","false","null","<div style=""align-items: center; display: flex; color: darkorange; font-size: 90px""><b>ø</b></div>","null","","","","forget_cue","","","","","","","","","","","","","","","",""
"html-keyboard-response","234","528253","0.0-4.0-1.0-0.38","slwcdz8lqhod2kr","prime","5f0096a72e8e3c19a7c05749","5f60e3c0a3b16e07647b2ff9","5f60ee9b64876d016dc603b4","false","null","<span style=""color: black; font-size: 48px"">M + N</span>","null","","","","resp_prompt","","","","","","","","","","","","","","","",""
"categorize-image","235","529045","0.0-4.0-1.0-1.38","slwcdz8lqhod2kr","prime","5f0096a72e8e3c19a7c05749","5f60e3c0a3b16e07647b2ff9","5f60ee9b64876d016dc603b4","true","789.5250001456589","./Stimuli/SelectedImages/SM/SM17.bmp","83","","","","test","true","M + N","83","switch","SM","SM17.bmp","forget","","87","3","prime1","left","","","",""
"html-keyboard-response","236","531046","0.0-4.0-1.0-3.38","slwcdz8lqhod2kr","prime","5f0096a72e8e3c19a7c05749","5f60e3c0a3b16e07647b2ff9","5f60ee9b64876d016dc603b4","false","null","<div style=""align-items: center; display: flex; color: darkorange; font-size: 90px""><b>ø</b></div>","null","","","","forget_cue","","","","","","","","","","","","","","","",""
"html-keyboard-response","237","531748","0.0-4.0-1.0-0.39","slwcdz8lqhod2kr","prime","5f0096a72e8e3c19a7c05749","5f60e3c0a3b16e07647b2ff9","5f60ee9b64876d016dc603b4","false","null","<span style=""color: black; font-size: 48px"">M + N</span>","null","","","","resp_prompt","","","","","","","","","","","","","","","",""
"categorize-image","238","532489","0.0-4.0-1.0-1.39","slwcdz8lqhod2kr","prime","5f0096a72e8e3c19a7c05749","5f60e3c0a3b16e07647b2ff9","5f60ee9b64876d016dc603b4","true","737.2950001154095","./Stimuli/SelectedImages/SM/SM200.bmp","83","","","","test","true","M + N","83","switch","SM","SM200.bmp","forget","","88","3","prime1","left","","","",""
"html-keyboard-response","239","534490","0.0-4.0-1.0-3.39","slwcdz8lqhod2kr","prime","5f0096a72e8e3c19a7c05749","5f60e3c0a3b16e07647b2ff9","5f60ee9b64876d016dc603b4","false","null","<div style=""align-items: center; display: flex; color: darkorange; font-size: 90px""><b>ø</b></div>","null","","","","forget_cue","","","","","","","","","","","","","","","",""
"html-keyboard-response","240","535192","0.0-4.0-1.0-0.40","slwcdz8lqhod2kr","prime","5f0096a72e8e3c19a7c05749","5f60e3c0a3b16e07647b2ff9","5f60ee9b64876d016dc603b4","false","null","<span style=""color: black; font-size: 48px"">M + N</span>","null","","","","resp_prompt","","","","","","","","","","","","","","","",""
"categorize-image","241","535943","0.0-4.0-1.0-1.40","slwcdz8lqhod2kr","prime","5f0096a72e8e3c19a7c05749","5f60e3c0a3b16e07647b2ff9","5f60ee9b64876d016dc603b4","true","748.6900000367314","./Stimuli/SelectedImages/SN/SN240.bmp","76","","","","test","true","M + N","76","switch","SN","SN240.bmp","forget","","89","3","prime1","right","","","",""
"html-keyboard-response","242","537948","0.0-4.0-1.0-3.40","slwcdz8lqhod2kr","prime","5f0096a72e8e3c19a7c05749","5f60e3c0a3b16e07647b2ff9","5f60ee9b64876d016dc603b4","false","null","<div style=""align-items: center; display: flex; color: darkorange; font-size: 90px""><b>ø</b></div>","null","","","","forget_cue","","","","","","","","","","","","","","","",""
"html-keyboard-response","243","538653","0.0-4.0-1.0-0.41","slwcdz8lqhod2kr","prime","5f0096a72e8e3c19a7c05749","5f60e3c0a3b16e07647b2ff9","5f60ee9b64876d016dc603b4","false","null","<span style=""color: black; font-size: 48px"">M + N</span>","null","","","","resp_prompt","","","","","","","","","","","","","","","",""
"categorize-image","244","539686","0.0-4.0-1.0-1.41","slwcdz8lqhod2kr","prime","5f0096a72e8e3c19a7c05749","5f60e3c0a3b16e07647b2ff9","5f60ee9b64876d016dc603b4","true","1029.304999858141","./Stimuli/SelectedImages/LN/LN13.bmp","76","","","","test","true","M + N","76","switch","LN","LN13.bmp","forget","","90","3","prime1","right","","","",""
"html-keyboard-response","245","541687","0.0-4.0-1.0-3.41","slwcdz8lqhod2kr","prime","5f0096a72e8e3c19a7c05749","5f60e3c0a3b16e07647b2ff9","5f60ee9b64876d016dc603b4","false","null","<div style=""align-items: center; display: flex; color: darkorange; font-size: 90px""><b>ø</b></div>","null","","","","forget_cue","","","","","","","","","","","","","","","",""
"html-keyboard-response","246","542388","0.0-4.0-1.0-0.42","slwcdz8lqhod2kr","prime","5f0096a72e8e3c19a7c05749","5f60e3c0a3b16e07647b2ff9","5f60ee9b64876d016dc603b4","false","null","<span style=""color: black; font-size: 48px"">M + N</span>","null","","","","resp_prompt","","","","","","","","","","","","","","","",""
"categorize-image","247","542926","0.0-4.0-1.0-1.42","slwcdz8lqhod2kr","prime","5f0096a72e8e3c19a7c05749","5f60e3c0a3b16e07647b2ff9","5f60ee9b64876d016dc603b4","true","534.1950000729412","./Stimuli/SelectedImages/LM/LM216.bmp","83","","","","test","true","M + N","83","repetition","LM","LM216.bmp","forget","","91","3","prime1","left","","","",""
"html-keyboard-response","248","544927","0.0-4.0-1.0-3.42","slwcdz8lqhod2kr","prime","5f0096a72e8e3c19a7c05749","5f60e3c0a3b16e07647b2ff9","5f60ee9b64876d016dc603b4","false","null","<div style=""align-items: center; display: flex; color: darkorange; font-size: 90px""><b>ø</b></div>","null","","","","forget_cue","","","","","","","","","","","","","","","",""
"html-keyboard-response","249","545629","0.0-4.0-1.0-0.43","slwcdz8lqhod2kr","prime","5f0096a72e8e3c19a7c05749","5f60e3c0a3b16e07647b2ff9","5f60ee9b64876d016dc603b4","false","null","<span style=""color: black; font-size: 48px"">N + M</span>","null","","","","resp_prompt","","","","","","","","","","","","","","","",""
"categorize-image","250","546334","0.0-4.0-1.0-1.43","slwcdz8lqhod2kr","prime","5f0096a72e8e3c19a7c05749","5f60e3c0a3b16e07647b2ff9","5f60ee9b64876d016dc603b4","true","701.3950000982732","./Stimuli/SelectedImages/SM/SM73.bmp","76","","","","test","true","N + M","76","switch","SM","SM73.bmp","remember","","92","3","prime1","right","","","",""
"html-keyboard-response","251","548336","0.0-4.0-1.0-3.43","slwcdz8lqhod2kr","prime","5f0096a72e8e3c19a7c05749","5f60e3c0a3b16e07647b2ff9","5f60ee9b64876d016dc603b4","false","null","<div style=""align-items: center; display: flex; color: dodgerblue; font-size: 90px""><b>o</b></div>","null","","","","forget_cue","","","","","","","","","","","","","","","",""
"html-keyboard-response","252","549037","0.0-4.0-1.0-0.44","slwcdz8lqhod2kr","prime","5f0096a72e8e3c19a7c05749","5f60e3c0a3b16e07647b2ff9","5f60ee9b64876d016dc603b4","false","null","<span style=""color: black; font-size: 48px"">M + N</span>","null","","","","resp_prompt","","","","","","","","","","","","","","","",""
