"trial_type","trial_index","time_elapsed","internal_node_id","subject","exp_part","prolific_PID","study_ID","session_ID","use","rt","stimulus","key_press","button_pressed","responses","question_order","trial_part","correct","resp_map","correct_resp","probe_condition","category","image","forget_condition","list","trial_num","block_num","block","response","test_part","n_span","sequence","num_spaces"
"pavlovia","0","3","0.0-0.0","ltncxj3br1jw83t","","5ebac91735226005282f48dd","5f60e3c0a3b16e07647b2ff9","5f61dc0390e12618dc2e9754","false","","","","","","","","","","","","","","","","","","","","","","",""
"html-keyboard-response","1","77122","0.0-1.0-0.0-0.0","ltncxj3br1jw83t","welcome","5ebac91735226005282f48dd","5f60e3c0a3b16e07647b2ff9","5f61dc0390e12618dc2e9754","false","77115.79499952495","<div align=left>Dear participant, <br> thank you for participating in an online study of the Cognition, Action, and Sustainability Unit of the University of Freiburg! <br> <br>The aim of this study is to examine our ability to remember previously learned information. <br>Our goal is to find out, whether our memory improves, when we only remember information that is relevant to us. <br>The experiment will take about 35 minutes to complete. <br> <br>Please, note that you can only participate in this study if you are using a device with a keyboard (PC, Laptop etc.) <br>and not if you are using a mobile device such as a tablet or smartphone.<br> <br>Press 'SPACE' to proceed to the experiment. </div>","32","","","","","","","","","","","","","","","","","","","",""
"html-keyboard-response","2","93485","0.0-1.0-0.0-1.0","ltncxj3br1jw83t","welcome","5ebac91735226005282f48dd","5f60e3c0a3b16e07647b2ff9","5f61dc0390e12618dc2e9754","false","16361.685000360012","<div align=left><strong> Time Course of this experiment: </strong> <br><br> <strong> 1.</strong>  First, please fill in some information regarding your demographic data. <br><br> <strong> 2.</strong>  Next, your task will be to classify everyday objects. <br>In addition, you will be asked to remember certain objects and recall them later. <br>Working on these tasks requires your undivided attention and concentration.<br>It is therefore essential that you eliminate any sources of distraction in your  <br>environment and ensure that you will not be disturbed. <br><br><strong> 3.</strong>  At the end of the experiment, you will be asked to answer a few additional questions. <br> <br><strong> Important:</strong> After finishing the experiment, only close the browser window <br> by clicking on the 'end the experiment'-button when you are asked to do so. <br>Closing the browser window prematurely will make the allocation of your participation credit impossible. <br><br> Press 'SPACE' to start the experiment. </div>","32","","","","","","","","","","","","","","","","","","","",""
"html-button-response","3","97642","0.0-1.0-0.0-2.0","ltncxj3br1jw83t","welcome","5ebac91735226005282f48dd","5f60e3c0a3b16e07647b2ff9","5f61dc0390e12618dc2e9754","true","4155.48500046134","<div align=left><strong> Informed consent </strong>  <br>The aim of our research is to better understand human behavior and mental processes. <br>In the following study your behavior (e.g. choices, reaction times) will be studied. <br> <br><strong> Voluntariness and Anonymity </strong> <br>Your participation in this study is  <strong> voluntary</strong>.<br>You may withdraw your consent to participate at any time without providing a reason for doing so and without fear of prejudice. <br><br>As no personal data will be collected, <strong>your data and your person cannot be connected after data collection</strong> – the data-set is anonymous. <br>Respectively, deletion of your data will not be possible after data collection has been completed, as we cannot retrace your data-set.<br>The results and anonymized data collected in this study will be published as a scientific publication. <br>This will happen in an <strong>anonymized format</strong>, so that no data can be traced back to a specific person. <br> <br>The anonymized data of this study will be made available to other researchers and/or in a data archive on the Internet as a means of transparency and to enable subsequent re-use. By doing so, this study follows the recommendations of the Deutsche Forschungsgemeinschaft (DFG, German Research Foundation) and Deutsche Gesellschaft für Psychologie (DGPS, German Psychological Society) regarding quality assurance in research.<br>If you have any questions now or after the experiment, please contact our team (experiments@cs.uni-freiburg.de).<br><br><br>I hereby declare, that I understand the above described conditions of participation and I agree to participate under these conditions. <br><br> </div>","","0","","","","","","","","","","","","","","","","","","",""
"html-keyboard-response","4","109325","0.0-1.0-0.0-3.0","ltncxj3br1jw83t","welcome","5ebac91735226005282f48dd","5f60e3c0a3b16e07647b2ff9","5f61dc0390e12618dc2e9754","false","11681.745000183582","<div align=left><strong> General information concerning the experiment </strong>  <br> <br>Please follow the instructions:<ol> <li><strong> Do not leave this tab (your browser window) during the experiment and do not reload this tab! </strong>  <br>If you do switch tabs/windows during the experiment (to check your mail or visit another website, for example), <br>the experiment will end automatically and you will <strong>not receive credit</strong> for your participation. <br>Repeated participation or resumption of the experiment is impossible.</li> <br><li>Please close all other programs for the duration of your participation. </li> <br><li>Please mute or turn off your phone and put it out of your reach. </li> <br><li>Please also take off any disturbing accessories (such as wristwatches, bracelets, etc.). </li> <br><li>If you have music playing in the background, please turn it off now. </li> <br></ol>Thank you! <br>Press 'SPACE' to continue. </div>","32","","","","","","","","","","","","","","","","","","","",""
"survey-text","5","113217","0.0-1.0-1.0-0.0","ltncxj3br1jw83t","demographics","5ebac91735226005282f48dd","5f60e3c0a3b16e07647b2ff9","5f61dc0390e12618dc2e9754","true","3888.0099998787045","","","","{""age"":""23""}","","","","","","","","","","","","","","","","","",""
"survey-multi-choice","6","143666","0.0-1.0-1.0-1.0","ltncxj3br1jw83t","demographics","5ebac91735226005282f48dd","5f60e3c0a3b16e07647b2ff9","5f61dc0390e12618dc2e9754","true","30446.334999985993","","","","{""gender"":""male"",""school"":""others"",""education"":""Completed university degree or equivalent""}","[0,1,2]","","","","","","","","","","","","","","","","",""
"html-keyboard-response","7","166379","0.0-1.0-2.0","ltncxj3br1jw83t","instructions","5ebac91735226005282f48dd","5f60e3c0a3b16e07647b2ff9","5f61dc0390e12618dc2e9754","false","22712.10499946028","<div align=left> The experiment is now about to start: <br> <br>In the following part, you will be presented pictures of everyday objects. <br>Your first task is to <strong>classify these objects. </strong> <br> <br> You will classify them either as mechanical or non-mechanical objects. <br> <br>Objects that include any kind of technical mechanism (for example, wheels, switches, levers, <br> electronic components) fall under the category of <strong>mechanical</strong> objects. <br>Only objects without any kind of technical mechanism should be classified as <strong>non-mechanical</strong>. <br><br>Press 'SPACE' to continue. </div>","32","","","","","","","","","","","","","","","","","","","",""
"html-keyboard-response","8","217174","0.0-2.0-0.0","ltncxj3br1jw83t","instructions","5ebac91735226005282f48dd","5f60e3c0a3b16e07647b2ff9","5f61dc0390e12618dc2e9754","false","50793.06000005454","<div align=justify>You will classify the objects using the <strong>'S'</strong> and the <strong>'L'</strong> keys on your keyboard.<br>For doing so, please place your <strong>left index finger</strong> on the <strong>'S'</strong> key and place your <strong>right index finger</strong> on the <strong>'L'</strong> key. <br><br> Each trial starts with an instruction, indicating which key ('S'/'L') you need to press to classify <br>the object as mechanical (letter M) or non-mechanical (letter N).<br>The instruction <strong>M + N</strong> indicates that, in the current trial, by pressing the left key ('S') you classify the displayed object as mechanical (M) <br> and by pressing the right key ('L') you classify the object as non-mechanical (N). <br>The instruction <strong>N + M</strong> on the other hand indicates that by pressing the left key ('S') you classify the displayed object as non-mechanical (N) <br> and by pressing the right key ('L') you classify the object as mechanical (M). <br><br>Please press the key corresponding to the correct classification as fast as possible as soon as the object is displayed and try to avoid making mistakes.<br>If you do not respond within a 2 second window, a corresponding feedback will be displayed and the next trial will start.<br> The experiment is divided into multiple blocks to give you the opportunity to take a break after each block. <br>First, you can now practice this task. <br><br>Please place your <strong>LEFT INDEX FINGER</strong> on the 'S' key and your <strong>RIGHT INDEX FINGER</strong> on the 'L' key now. <br><br>Press SPACE to continue.</div>","32","","","","","","","","","","","","","","","","","","","",""
"html-keyboard-response","9","226137","0.0-2.0-1.0","ltncxj3br1jw83t","instructions","5ebac91735226005282f48dd","5f60e3c0a3b16e07647b2ff9","5f61dc0390e12618dc2e9754","false","8962.199999950826","<div align=left> You will now have time to practice this task.<br><br>Remember: <br> <br><li>Please place your index fingers on the <strong>'S'</strong> and <strong>'L'</strong> keys <br>to respond as fast and accurately as possible.</li><li>Every picture can be classified as either mechanical or non-mechanical.</li><li>If you do not respond in time or commit an error, you will receive a corresponding feedback. </li><li> Please try to respond as <strong> fast </strong> and as <strong> accurately as possible </strong> .<br><li>To ensure optimal results, please minimize distractions and stay focused. </li><br><br>Press SPACE to continue.</div>","32","","","","","","","","","","","","","","","","","","","",""
"html-keyboard-response","10","226840","0.0-2.0-2.0-0.0","ltncxj3br1jw83t","practice_no_cue","5ebac91735226005282f48dd","5f60e3c0a3b16e07647b2ff9","5f61dc0390e12618dc2e9754","false","null","<span style=""color: black; font-size: 48px"">N + M</span>","null","","","","resp_prompt","","","","","","","","","","","","","","","",""
"categorize-image","11","229227","0.0-2.0-2.0-1.0","ltncxj3br1jw83t","practice_no_cue","5ebac91735226005282f48dd","5f60e3c0a3b16e07647b2ff9","5f61dc0390e12618dc2e9754","true","1884.3200001865625","./Stimuli/ImagesPractice/LM239.jpg","83","","","","test","false","N + M","76","","LM","LM239.jpg","forget","old","1","1","start","left","","","",""
"html-keyboard-response","12","229929","0.0-2.0-2.0-0.1","ltncxj3br1jw83t","practice_no_cue","5ebac91735226005282f48dd","5f60e3c0a3b16e07647b2ff9","5f61dc0390e12618dc2e9754","false","null","<span style=""color: black; font-size: 48px"">N + M</span>","null","","","","resp_prompt","","","","","","","","","","","","","","","",""
"categorize-image","13","231521","0.0-2.0-2.0-1.1","ltncxj3br1jw83t","practice_no_cue","5ebac91735226005282f48dd","5f60e3c0a3b16e07647b2ff9","5f61dc0390e12618dc2e9754","true","1088.5250000283122","./Stimuli/ImagesPractice/SM98.jpg","76","","","","test","true","N + M","76","","SM","SM98.jpg","remember","old","2","1","start","right","","","",""
"html-keyboard-response","14","232222","0.0-2.0-2.0-0.2","ltncxj3br1jw83t","practice_no_cue","5ebac91735226005282f48dd","5f60e3c0a3b16e07647b2ff9","5f61dc0390e12618dc2e9754","false","null","<span style=""color: black; font-size: 48px"">N + M</span>","null","","","","resp_prompt","","","","","","","","","","","","","","","",""
"categorize-image","15","233515","0.0-2.0-2.0-1.2","ltncxj3br1jw83t","practice_no_cue","5ebac91735226005282f48dd","5f60e3c0a3b16e07647b2ff9","5f61dc0390e12618dc2e9754","true","789.920000359416","./Stimuli/ImagesPractice/LM55.jpg","76","","","","test","true","N + M","76","","LM","LM55.jpg","remember","old","3","1","start","right","","","",""
"html-keyboard-response","16","234218","0.0-2.0-2.0-0.3","ltncxj3br1jw83t","practice_no_cue","5ebac91735226005282f48dd","5f60e3c0a3b16e07647b2ff9","5f61dc0390e12618dc2e9754","false","null","<span style=""color: black; font-size: 48px"">M + N</span>","null","","","","resp_prompt","","","","","","","","","","","","","","","",""
"categorize-image","17","235411","0.0-2.0-2.0-1.3","ltncxj3br1jw83t","practice_no_cue","5ebac91735226005282f48dd","5f60e3c0a3b16e07647b2ff9","5f61dc0390e12618dc2e9754","true","691.0800002515316","./Stimuli/ImagesPractice/LN15.jpg","83","","","","test","false","M + N","76","","LN","LN15.jpg","forget","old","4","1","start","left","","","",""
"html-keyboard-response","18","236113","0.0-2.0-2.0-0.4","ltncxj3br1jw83t","practice_no_cue","5ebac91735226005282f48dd","5f60e3c0a3b16e07647b2ff9","5f61dc0390e12618dc2e9754","false","null","<span style=""color: black; font-size: 48px"">M + N</span>","null","","","","resp_prompt","","","","","","","","","","","","","","","",""
"categorize-image","19","237047","0.0-2.0-2.0-1.4","ltncxj3br1jw83t","practice_no_cue","5ebac91735226005282f48dd","5f60e3c0a3b16e07647b2ff9","5f61dc0390e12618dc2e9754","true","430.1399998366833","./Stimuli/ImagesPractice/SN222.jpg","76","","","","test","true","M + N","76","","SN","SN222.jpg","remember","old","5","1","start","right","","","",""
"html-keyboard-response","20","237749","0.0-2.0-2.0-0.5","ltncxj3br1jw83t","practice_no_cue","5ebac91735226005282f48dd","5f60e3c0a3b16e07647b2ff9","5f61dc0390e12618dc2e9754","false","null","<span style=""color: black; font-size: 48px"">N + M</span>","null","","","","resp_prompt","","","","","","","","","","","","","","","",""
"categorize-image","21","238956","0.0-2.0-2.0-1.5","ltncxj3br1jw83t","practice_no_cue","5ebac91735226005282f48dd","5f60e3c0a3b16e07647b2ff9","5f61dc0390e12618dc2e9754","true","704.1800003498793","./Stimuli/ImagesPractice/LN72.jpg","76","","","","test","false","N + M","83","","LN","LN72.jpg","forget","old","6","1","start","right","","","",""
"html-keyboard-response","22","239658","0.0-2.0-2.0-0.6","ltncxj3br1jw83t","practice_no_cue","5ebac91735226005282f48dd","5f60e3c0a3b16e07647b2ff9","5f61dc0390e12618dc2e9754","false","null","<span style=""color: black; font-size: 48px"">N + M</span>","null","","","","resp_prompt","","","","","","","","","","","","","","","",""
"categorize-image","23","240703","0.0-2.0-2.0-1.6","ltncxj3br1jw83t","practice_no_cue","5ebac91735226005282f48dd","5f60e3c0a3b16e07647b2ff9","5f61dc0390e12618dc2e9754","true","542.8449995815754","./Stimuli/ImagesPractice/SM62.jpg","83","","","","test","false","N + M","76","","SM","SM62.jpg","remember","old","7","1","start","left","","","",""
"html-keyboard-response","24","241405","0.0-2.0-2.0-0.7","ltncxj3br1jw83t","practice_no_cue","5ebac91735226005282f48dd","5f60e3c0a3b16e07647b2ff9","5f61dc0390e12618dc2e9754","false","null","<span style=""color: black; font-size: 48px"">M + N</span>","null","","","","resp_prompt","","","","","","","","","","","","","","","",""
"categorize-image","25","242721","0.0-2.0-2.0-1.7","ltncxj3br1jw83t","practice_no_cue","5ebac91735226005282f48dd","5f60e3c0a3b16e07647b2ff9","5f61dc0390e12618dc2e9754","true","814.0850001946092","./Stimuli/ImagesPractice/SN221.jpg","76","","","","test","true","M + N","76","","SN","SN221.jpg","remember","old","8","1","start","right","","","",""
"html-keyboard-response","26","243423","0.0-2.0-2.0-0.8","ltncxj3br1jw83t","practice_no_cue","5ebac91735226005282f48dd","5f60e3c0a3b16e07647b2ff9","5f61dc0390e12618dc2e9754","false","null","<span style=""color: black; font-size: 48px"">N + M</span>","null","","","","resp_prompt","","","","","","","","","","","","","","","",""
"categorize-image","27","244549","0.0-2.0-2.0-1.8","ltncxj3br1jw83t","practice_no_cue","5ebac91735226005282f48dd","5f60e3c0a3b16e07647b2ff9","5f61dc0390e12618dc2e9754","true","623.6850004643202","./Stimuli/ImagesPractice/SM61.jpg","83","","","","test","false","N + M","76","","SM","SM61.jpg","forget","old","9","1","start","left","","","",""
"html-keyboard-response","28","245251","0.0-2.0-2.0-0.9","ltncxj3br1jw83t","practice_no_cue","5ebac91735226005282f48dd","5f60e3c0a3b16e07647b2ff9","5f61dc0390e12618dc2e9754","false","null","<span style=""color: black; font-size: 48px"">N + M</span>","null","","","","resp_prompt","","","","","","","","","","","","","","","",""
"categorize-image","29","246715","0.0-2.0-2.0-1.9","ltncxj3br1jw83t","practice_no_cue","5ebac91735226005282f48dd","5f60e3c0a3b16e07647b2ff9","5f61dc0390e12618dc2e9754","true","961.6749994456768","./Stimuli/ImagesPractice/LM230.jpg","76","","","","test","true","N + M","76","","LM","LM230.jpg","remember","old","10","1","start","right","","","",""
"html-keyboard-response","30","247417","0.0-2.0-2.0-0.10","ltncxj3br1jw83t","practice_no_cue","5ebac91735226005282f48dd","5f60e3c0a3b16e07647b2ff9","5f61dc0390e12618dc2e9754","false","null","<span style=""color: black; font-size: 48px"">N + M</span>","null","","","","resp_prompt","","","","","","","","","","","","","","","",""
"categorize-image","31","248770","0.0-2.0-2.0-1.10","ltncxj3br1jw83t","practice_no_cue","5ebac91735226005282f48dd","5f60e3c0a3b16e07647b2ff9","5f61dc0390e12618dc2e9754","true","850.6649993360043","./Stimuli/ImagesPractice/LN2.jpg","76","","","","test","false","N + M","83","","LN","LN2.jpg","forget","old","11","1","start","right","","","",""
"html-keyboard-response","32","249472","0.0-2.0-2.0-0.11","ltncxj3br1jw83t","practice_no_cue","5ebac91735226005282f48dd","5f60e3c0a3b16e07647b2ff9","5f61dc0390e12618dc2e9754","false","null","<span style=""color: black; font-size: 48px"">M + N</span>","null","","","","resp_prompt","","","","","","","","","","","","","","","",""
"categorize-image","33","250741","0.0-2.0-2.0-1.11","ltncxj3br1jw83t","practice_no_cue","5ebac91735226005282f48dd","5f60e3c0a3b16e07647b2ff9","5f61dc0390e12618dc2e9754","true","767.3899997025728","./Stimuli/ImagesPractice/LM224.jpg","76","","","","test","false","M + N","83","","LM","LM224.jpg","forget","old","12","1","start","right","","","",""
"html-keyboard-response","34","251443","0.0-2.0-2.0-0.12","ltncxj3br1jw83t","practice_no_cue","5ebac91735226005282f48dd","5f60e3c0a3b16e07647b2ff9","5f61dc0390e12618dc2e9754","false","null","<span style=""color: black; font-size: 48px"">M + N</span>","null","","","","resp_prompt","","","","","","","","","","","","","","","",""
"categorize-image","35","252868","0.0-2.0-2.0-1.12","ltncxj3br1jw83t","practice_no_cue","5ebac91735226005282f48dd","5f60e3c0a3b16e07647b2ff9","5f61dc0390e12618dc2e9754","true","922.9349996894598","./Stimuli/ImagesPractice/LM143.jpg","83","","","","test","true","M + N","83","","LM","LM143.jpg","forget","old","13","1","start","left","","","",""
"html-keyboard-response","36","253570","0.0-2.0-2.0-0.13","ltncxj3br1jw83t","practice_no_cue","5ebac91735226005282f48dd","5f60e3c0a3b16e07647b2ff9","5f61dc0390e12618dc2e9754","false","null","<span style=""color: black; font-size: 48px"">M + N</span>","null","","","","resp_prompt","","","","","","","","","","","","","","","",""
"categorize-image","37","255100","0.0-2.0-2.0-1.13","ltncxj3br1jw83t","practice_no_cue","5ebac91735226005282f48dd","5f60e3c0a3b16e07647b2ff9","5f61dc0390e12618dc2e9754","true","1028.5849999636412","./Stimuli/ImagesPractice/SN76.jpg","76","","","","test","true","M + N","76","","SN","SN76.jpg","forget","old","14","1","start","right","","","",""
"html-keyboard-response","38","255802","0.0-2.0-2.0-0.14","ltncxj3br1jw83t","practice_no_cue","5ebac91735226005282f48dd","5f60e3c0a3b16e07647b2ff9","5f61dc0390e12618dc2e9754","false","null","<span style=""color: black; font-size: 48px"">M + N</span>","null","","","","resp_prompt","","","","","","","","","","","","","","","",""
"categorize-image","39","257016","0.0-2.0-2.0-1.14","ltncxj3br1jw83t","practice_no_cue","5ebac91735226005282f48dd","5f60e3c0a3b16e07647b2ff9","5f61dc0390e12618dc2e9754","true","711.7649996653199","./Stimuli/ImagesPractice/SN220.jpg","76","","","","test","true","M + N","76","","SN","SN220.jpg","remember","old","15","1","start","right","","","",""
"html-keyboard-response","40","257717","0.0-2.0-2.0-0.15","ltncxj3br1jw83t","practice_no_cue","5ebac91735226005282f48dd","5f60e3c0a3b16e07647b2ff9","5f61dc0390e12618dc2e9754","false","null","<span style=""color: black; font-size: 48px"">M + N</span>","null","","","","resp_prompt","","","","","","","","","","","","","","","",""
"categorize-image","41","259058","0.0-2.0-2.0-1.15","ltncxj3br1jw83t","practice_no_cue","5ebac91735226005282f48dd","5f60e3c0a3b16e07647b2ff9","5f61dc0390e12618dc2e9754","true","838.1249997764826","./Stimuli/ImagesPractice/SM37.jpg","83","","","","test","true","M + N","83","","SM","SM37.jpg","remember","old","16","1","start","left","","","",""
"html-keyboard-response","42","265233","0.0-2.0-3.0","ltncxj3br1jw83t","break","5ebac91735226005282f48dd","5f60e3c0a3b16e07647b2ff9","5f61dc0390e12618dc2e9754","false","6173.955000005662","<p style='font-size: 32px;'>Break</><br><br><br><br><br><p style='font-size: 24px;'>In the last block, you committed 7 errors and did not respond in time on 0 trials.
</p><p style='font-size: 24px;'>Try to respond as fast and accurately as possible in the next block as well! </p><p style='font-size: 24px;'>Press SPACE to continue.</p>","32","","","","","","","","","","","","","","","","","","","",""
"html-keyboard-response","43","269101","0.0-2.0-4.0","ltncxj3br1jw83t","instructions","5ebac91735226005282f48dd","5f60e3c0a3b16e07647b2ff9","5f61dc0390e12618dc2e9754","false","3866.4549998939037","<div align=left> Great!<br><br>Are you ready to continue?<br><br>If you want to reread the instructions and redo the practice trials, <br>please press „Z“. <br><br>Press SPACE to CONTINUE with the experiment when you are ready. </div>","90","","","","","","","","","","","","","","","","","","","",""
"html-keyboard-response","44","269926","0.0-2.1-0.1","ltncxj3br1jw83t","instructions","5ebac91735226005282f48dd","5f60e3c0a3b16e07647b2ff9","5f61dc0390e12618dc2e9754","false","824.2300003767014","<div align=justify>You will classify the objects using the <strong>'S'</strong> and the <strong>'L'</strong> keys on your keyboard.<br>For doing so, please place your <strong>left index finger</strong> on the <strong>'S'</strong> key and place your <strong>right index finger</strong> on the <strong>'L'</strong> key. <br><br> Each trial starts with an instruction, indicating which key ('S'/'L') you need to press to classify <br>the object as mechanical (letter M) or non-mechanical (letter N).<br>The instruction <strong>M + N</strong> indicates that, in the current trial, by pressing the left key ('S') you classify the displayed object as mechanical (M) <br> and by pressing the right key ('L') you classify the object as non-mechanical (N). <br>The instruction <strong>N + M</strong> on the other hand indicates that by pressing the left key ('S') you classify the displayed object as non-mechanical (N) <br> and by pressing the right key ('L') you classify the object as mechanical (M). <br><br>Please press the key corresponding to the correct classification as fast as possible as soon as the object is displayed and try to avoid making mistakes.<br>If you do not respond within a 2 second window, a corresponding feedback will be displayed and the next trial will start.<br> The experiment is divided into multiple blocks to give you the opportunity to take a break after each block. <br>First, you can now practice this task. <br><br>Please place your <strong>LEFT INDEX FINGER</strong> on the 'S' key and your <strong>RIGHT INDEX FINGER</strong> on the 'L' key now. <br><br>Press SPACE to continue.</div>","32","","","","","","","","","","","","","","","","","","","",""
"html-keyboard-response","45","270487","0.0-2.1-1.1","ltncxj3br1jw83t","instructions","5ebac91735226005282f48dd","5f60e3c0a3b16e07647b2ff9","5f61dc0390e12618dc2e9754","false","559.6549995243549","<div align=left> You will now have time to practice this task.<br><br>Remember: <br> <br><li>Please place your index fingers on the <strong>'S'</strong> and <strong>'L'</strong> keys <br>to respond as fast and accurately as possible.</li><li>Every picture can be classified as either mechanical or non-mechanical.</li><li>If you do not respond in time or commit an error, you will receive a corresponding feedback. </li><li> Please try to respond as <strong> fast </strong> and as <strong> accurately as possible </strong> .<br><li>To ensure optimal results, please minimize distractions and stay focused. </li><br><br>Press SPACE to continue.</div>","32","","","","","","","","","","","","","","","","","","","",""
"html-keyboard-response","46","271189","0.0-2.1-2.1-0.16","ltncxj3br1jw83t","practice_no_cue","5ebac91735226005282f48dd","5f60e3c0a3b16e07647b2ff9","5f61dc0390e12618dc2e9754","false","null","<span style=""color: black; font-size: 48px"">N + M</span>","null","","","","resp_prompt","","","","","","","","","","","","","","","",""
"categorize-image","47","272292","0.0-2.1-2.1-1.16","ltncxj3br1jw83t","practice_no_cue","5ebac91735226005282f48dd","5f60e3c0a3b16e07647b2ff9","5f61dc0390e12618dc2e9754","true","601.4450006186962","./Stimuli/ImagesPractice/SM61.jpg","83","","","","test","false","N + M","76","","SM","SM61.jpg","forget","old","17","2","practice_forget","left","","","",""
"html-keyboard-response","48","272993","0.0-2.1-2.1-0.17","ltncxj3br1jw83t","practice_no_cue","5ebac91735226005282f48dd","5f60e3c0a3b16e07647b2ff9","5f61dc0390e12618dc2e9754","false","null","<span style=""color: black; font-size: 48px"">M + N</span>","null","","","","resp_prompt","","","","","","","","","","","","","","","",""
"categorize-image","49","273737","0.0-2.1-2.1-1.17","ltncxj3br1jw83t","practice_no_cue","5ebac91735226005282f48dd","5f60e3c0a3b16e07647b2ff9","5f61dc0390e12618dc2e9754","true","242.01999977231026","./Stimuli/ImagesPractice/SM37.jpg","76","","","","test","false","M + N","83","","SM","SM37.jpg","remember","old","18","2","practice_forget","right","","","",""
"html-keyboard-response","50","274440","0.0-2.1-2.1-0.18","ltncxj3br1jw83t","practice_no_cue","5ebac91735226005282f48dd","5f60e3c0a3b16e07647b2ff9","5f61dc0390e12618dc2e9754","false","null","<span style=""color: black; font-size: 48px"">M + N</span>","null","","","","resp_prompt","","","","","","","","","","","","","","","",""
"categorize-image","51","275205","0.0-2.1-2.1-1.18","ltncxj3br1jw83t","practice_no_cue","5ebac91735226005282f48dd","5f60e3c0a3b16e07647b2ff9","5f61dc0390e12618dc2e9754","true","262.81999982893467","./Stimuli/ImagesPractice/SN221.jpg","83","","","","test","false","M + N","76","","SN","SN221.jpg","remember","old","19","2","practice_forget","left","","","",""
"html-keyboard-response","52","275906","0.0-2.1-2.1-0.19","ltncxj3br1jw83t","practice_no_cue","5ebac91735226005282f48dd","5f60e3c0a3b16e07647b2ff9","5f61dc0390e12618dc2e9754","false","null","<span style=""color: black; font-size: 48px"">N + M</span>","null","","","","resp_prompt","","","","","","","","","","","","","","","",""
"categorize-image","53","277018","0.0-2.1-2.1-1.19","ltncxj3br1jw83t","practice_no_cue","5ebac91735226005282f48dd","5f60e3c0a3b16e07647b2ff9","5f61dc0390e12618dc2e9754","true","610.2999998256564","./Stimuli/ImagesPractice/LN72.jpg","76","","","","test","false","N + M","83","","LN","LN72.jpg","forget","old","20","2","practice_forget","right","","","",""
"html-keyboard-response","54","277720","0.0-2.1-2.1-0.20","ltncxj3br1jw83t","practice_no_cue","5ebac91735226005282f48dd","5f60e3c0a3b16e07647b2ff9","5f61dc0390e12618dc2e9754","false","null","<span style=""color: black; font-size: 48px"">N + M</span>","null","","","","resp_prompt","","","","","","","","","","","","","","","",""
"categorize-image","55","278824","0.0-2.1-2.1-1.20","ltncxj3br1jw83t","practice_no_cue","5ebac91735226005282f48dd","5f60e3c0a3b16e07647b2ff9","5f61dc0390e12618dc2e9754","true","601.9850000739098","./Stimuli/ImagesPractice/LM55.jpg","83","","","","test","false","N + M","76","","LM","LM55.jpg","remember","old","21","2","practice_forget","left","","","",""
"html-keyboard-response","56","279525","0.0-2.1-2.1-0.21","ltncxj3br1jw83t","practice_no_cue","5ebac91735226005282f48dd","5f60e3c0a3b16e07647b2ff9","5f61dc0390e12618dc2e9754","false","null","<span style=""color: black; font-size: 48px"">N + M</span>","null","","","","resp_prompt","","","","","","","","","","","","","","","",""
"categorize-image","57","280579","0.0-2.1-2.1-1.21","ltncxj3br1jw83t","practice_no_cue","5ebac91735226005282f48dd","5f60e3c0a3b16e07647b2ff9","5f61dc0390e12618dc2e9754","true","551.4299999922514","./Stimuli/ImagesPractice/SM62.jpg","76","","","","test","true","N + M","76","","SM","SM62.jpg","remember","old","22","2","practice_forget","right","","","",""
"html-keyboard-response","58","281282","0.0-2.1-2.1-0.22","ltncxj3br1jw83t","practice_no_cue","5ebac91735226005282f48dd","5f60e3c0a3b16e07647b2ff9","5f61dc0390e12618dc2e9754","false","null","<span style=""color: black; font-size: 48px"">M + N</span>","null","","","","resp_prompt","","","","","","","","","","","","","","","",""
"categorize-image","59","282895","0.0-2.1-2.1-1.22","ltncxj3br1jw83t","practice_no_cue","5ebac91735226005282f48dd","5f60e3c0a3b16e07647b2ff9","5f61dc0390e12618dc2e9754","true","1111.6249999031425","./Stimuli/ImagesPractice/LN15.jpg","83","","","","test","false","M + N","76","","LN","LN15.jpg","forget","old","23","2","practice_forget","left","","","",""
"html-keyboard-response","60","283598","0.0-2.1-2.1-0.23","ltncxj3br1jw83t","practice_no_cue","5ebac91735226005282f48dd","5f60e3c0a3b16e07647b2ff9","5f61dc0390e12618dc2e9754","false","null","<span style=""color: black; font-size: 48px"">M + N</span>","null","","","","resp_prompt","","","","","","","","","","","","","","","",""
"categorize-image","61","284662","0.0-2.1-2.1-1.23","ltncxj3br1jw83t","practice_no_cue","5ebac91735226005282f48dd","5f60e3c0a3b16e07647b2ff9","5f61dc0390e12618dc2e9754","true","562.2400008141994","./Stimuli/ImagesPractice/LM224.jpg","76","","","","test","false","M + N","83","","LM","LM224.jpg","forget","old","24","2","practice_forget","right","","","",""
"html-keyboard-response","62","285364","0.0-2.1-2.1-0.24","ltncxj3br1jw83t","practice_no_cue","5ebac91735226005282f48dd","5f60e3c0a3b16e07647b2ff9","5f61dc0390e12618dc2e9754","false","null","<span style=""color: black; font-size: 48px"">M + N</span>","null","","","","resp_prompt","","","","","","","","","","","","","","","",""
"categorize-image","63","287388","0.0-2.1-2.1-1.24","ltncxj3br1jw83t","practice_no_cue","5ebac91735226005282f48dd","5f60e3c0a3b16e07647b2ff9","5f61dc0390e12618dc2e9754","true","1521.8850001692772","./Stimuli/ImagesPractice/SN76.jpg","83","","","","test","false","M + N","76","","SN","SN76.jpg","forget","old","25","2","practice_forget","left","","","",""
"html-keyboard-response","64","288090","0.0-2.1-2.1-0.25","ltncxj3br1jw83t","practice_no_cue","5ebac91735226005282f48dd","5f60e3c0a3b16e07647b2ff9","5f61dc0390e12618dc2e9754","false","null","<span style=""color: black; font-size: 48px"">N + M</span>","null","","","","resp_prompt","","","","","","","","","","","","","","","",""
"categorize-image","65","289075","0.0-2.1-2.1-1.25","ltncxj3br1jw83t","practice_no_cue","5ebac91735226005282f48dd","5f60e3c0a3b16e07647b2ff9","5f61dc0390e12618dc2e9754","true","482.8599998727441","./Stimuli/ImagesPractice/LM230.jpg","76","","","","test","true","N + M","76","","LM","LM230.jpg","remember","old","26","2","practice_forget","right","","","",""
"html-keyboard-response","66","289776","0.0-2.1-2.1-0.26","ltncxj3br1jw83t","practice_no_cue","5ebac91735226005282f48dd","5f60e3c0a3b16e07647b2ff9","5f61dc0390e12618dc2e9754","false","null","<span style=""color: black; font-size: 48px"">N + M</span>","null","","","","resp_prompt","","","","","","","","","","","","","","","",""
"categorize-image","67","291705","0.0-2.1-2.1-1.26","ltncxj3br1jw83t","practice_no_cue","5ebac91735226005282f48dd","5f60e3c0a3b16e07647b2ff9","5f61dc0390e12618dc2e9754","true","1426.8149994313717","./Stimuli/ImagesPractice/LN2.jpg","83","","","","test","true","N + M","83","","LN","LN2.jpg","forget","old","27","2","practice_forget","left","","","",""
"html-keyboard-response","68","292407","0.0-2.1-2.1-0.27","ltncxj3br1jw83t","practice_no_cue","5ebac91735226005282f48dd","5f60e3c0a3b16e07647b2ff9","5f61dc0390e12618dc2e9754","false","null","<span style=""color: black; font-size: 48px"">N + M</span>","null","","","","resp_prompt","","","","","","","","","","","","","","","",""
"categorize-image","69","293957","0.0-2.1-2.1-1.27","ltncxj3br1jw83t","practice_no_cue","5ebac91735226005282f48dd","5f60e3c0a3b16e07647b2ff9","5f61dc0390e12618dc2e9754","true","1047.2950004041195","./Stimuli/ImagesPractice/SM98.jpg","76","","","","test","true","N + M","76","","SM","SM98.jpg","remember","old","28","2","practice_forget","right","","","",""
"html-keyboard-response","70","294659","0.0-2.1-2.1-0.28","ltncxj3br1jw83t","practice_no_cue","5ebac91735226005282f48dd","5f60e3c0a3b16e07647b2ff9","5f61dc0390e12618dc2e9754","false","null","<span style=""color: black; font-size: 48px"">M + N</span>","null","","","","resp_prompt","","","","","","","","","","","","","","","",""
"categorize-image","71","296157","0.0-2.1-2.1-1.28","ltncxj3br1jw83t","practice_no_cue","5ebac91735226005282f48dd","5f60e3c0a3b16e07647b2ff9","5f61dc0390e12618dc2e9754","true","995.4199995845556","./Stimuli/ImagesPractice/SN220.jpg","76","","","","test","true","M + N","76","","SN","SN220.jpg","remember","old","29","2","practice_forget","right","","","",""
"html-keyboard-response","72","296858","0.0-2.1-2.1-0.29","ltncxj3br1jw83t","practice_no_cue","5ebac91735226005282f48dd","5f60e3c0a3b16e07647b2ff9","5f61dc0390e12618dc2e9754","false","null","<span style=""color: black; font-size: 48px"">N + M</span>","null","","","","resp_prompt","","","","","","","","","","","","","","","",""
"categorize-image","73","297794","0.0-2.1-2.1-1.29","ltncxj3br1jw83t","practice_no_cue","5ebac91735226005282f48dd","5f60e3c0a3b16e07647b2ff9","5f61dc0390e12618dc2e9754","true","433.8899999856949","./Stimuli/ImagesPractice/LM239.jpg","83","","","","test","false","N + M","76","","LM","LM239.jpg","forget","old","30","2","practice_forget","left","","","",""
"html-keyboard-response","74","298496","0.0-2.1-2.1-0.30","ltncxj3br1jw83t","practice_no_cue","5ebac91735226005282f48dd","5f60e3c0a3b16e07647b2ff9","5f61dc0390e12618dc2e9754","false","null","<span style=""color: black; font-size: 48px"">M + N</span>","null","","","","resp_prompt","","","","","","","","","","","","","","","",""
"categorize-image","75","299759","0.0-2.1-2.1-1.30","ltncxj3br1jw83t","practice_no_cue","5ebac91735226005282f48dd","5f60e3c0a3b16e07647b2ff9","5f61dc0390e12618dc2e9754","true","761.8049997836351","./Stimuli/ImagesPractice/LM143.jpg","76","","","","test","false","M + N","83","","LM","LM143.jpg","forget","old","31","2","practice_forget","right","","","",""
"html-keyboard-response","76","300460","0.0-2.1-2.1-0.31","ltncxj3br1jw83t","practice_no_cue","5ebac91735226005282f48dd","5f60e3c0a3b16e07647b2ff9","5f61dc0390e12618dc2e9754","false","null","<span style=""color: black; font-size: 48px"">M + N</span>","null","","","","resp_prompt","","","","","","","","","","","","","","","",""
"categorize-image","77","301790","0.0-2.1-2.1-1.31","ltncxj3br1jw83t","practice_no_cue","5ebac91735226005282f48dd","5f60e3c0a3b16e07647b2ff9","5f61dc0390e12618dc2e9754","true","827.6900006458163","./Stimuli/ImagesPractice/SN222.jpg","76","","","","test","true","M + N","76","","SN","SN222.jpg","remember","old","32","2","practice_forget","right","","","",""
"html-keyboard-response","78","304259","0.0-2.1-3.1","ltncxj3br1jw83t","break","5ebac91735226005282f48dd","5f60e3c0a3b16e07647b2ff9","5f61dc0390e12618dc2e9754","false","2465.1600001379848","<p style='font-size: 32px;'>Break</><br><br><br><br><br><p style='font-size: 24px;'>In the last block, you committed 10 errors and did not respond in time on 0 trials.
</p><p style='font-size: 24px;'>Try to respond as fast and accurately as possible in the next block as well! </p><p style='font-size: 24px;'>Press SPACE to continue.</p>","32","","","","","","","","","","","","","","","","","","","",""
"html-keyboard-response","79","305349","0.0-2.1-4.1","ltncxj3br1jw83t","instructions","5ebac91735226005282f48dd","5f60e3c0a3b16e07647b2ff9","5f61dc0390e12618dc2e9754","false","1088.995000347495","<div align=left> Great!<br><br>Are you ready to continue?<br><br>If you want to reread the instructions and redo the practice trials, <br>please press „Z“. <br><br>Press SPACE to CONTINUE with the experiment when you are ready. </div>","32","","","","","","","","","","","","","","","","","","","",""
"html-keyboard-response","80","316213","0.0-3.0-0.0","ltncxj3br1jw83t","instructions","5ebac91735226005282f48dd","5f60e3c0a3b16e07647b2ff9","5f61dc0390e12618dc2e9754","false","10863.115000538528","<div align=left>Great!<br> <strong>Attention</strong>! You will now receive a second, additional task! <br><br>To this point it was you <strong>first task</strong> to correctly <strong>classify objects</strong>. <br><br>As mentioned in the beginning, we aim to examine how well humans can remember previously learned information.<br>We would like to find out whether our memory improves if we only remember information that is relevant to us. <br><br>Therefore, your <strong>second task</strong> will be to <strong>remember</strong> the pictures you are to categorize. <br> After the learning phase, there will be a memory test phase, in which you will be asked to indicate whether you have seen a picture before or not. <br>Some, but not all pictures shown in the learning phase will appear in the memory test phase.<br>After classifying a picture, you will be told whether you should remember it for the memory test phase or not. <br>Thus, some pictures can be forgotten, whereas others have to be remembered. <br><br>Note: From now on, feedback will only be displayed if you responded incorrectly or not in time.<br><br>Press SPACE to continue.</div>","32","","","","","","","","","","","","","","","","","","","",""
"html-keyboard-response","81","331339","0.0-3.0-1.0","ltncxj3br1jw83t","instructions","5ebac91735226005282f48dd","5f60e3c0a3b16e07647b2ff9","5f61dc0390e12618dc2e9754","false","15126.09999999404","<div align=left>In the following part, you will thus have to remember only some pictures. <br>Immediately after seeing and classifying the picture, a symbol will be displayed, indicating whether you should remember or forget the previous picture. <br><br>A <span style='color: dodgerblue; font-size: 28px'>O</span> indicates REMEMBER. That means, you have to remember this picture, because it will be tested later. <br><br>A <span style='color: darkorange; font-size:28px'>Ø</span> indicates FORGET. You do not have to remember this picture. <br><br> As you will have to remember a lot of pictures, it will be hard for you to remember all of them. <br>It will put you at an advantage if you instantly forget the pictures you are not asked to remember. <br> This will make it easier for you to remember the pictures that will be tested afterwards. <br><br>Press SPACE to continue.</div>","32","","","","","","","","","","","","","","","","","","","",""
"html-keyboard-response","82","337339","0.0-3.0-2.0","ltncxj3br1jw83t","instructions","5ebac91735226005282f48dd","5f60e3c0a3b16e07647b2ff9","5f61dc0390e12618dc2e9754","false","5998.095000162721","<div align=left> Now you have the chance to practice both tasks together.<br><br>Remember: <br> <br><li>Please place your index fingers on the <strong>'S'</strong> and <strong>'L'</strong> keys <br>to respond as fast and accurately as possible.</li><li>Every picture can be classified as either mechanical or non-mechanical.</li><li>If you do not respond in time or commit an error, you will receive a corresponding feedback. <br>Please try to respond as <strong> fast </strong> and as <strong> accurately as possible </strong>.</li><li> Please remember only the to-be-remembered <span style='color: dodgerblue; font-size: 28px'>O</span> pictures. <br></li><li> Please minimize distractions and stay focused. </li><br><br>Press SPACE to START</div>","32","","","","","","","","","","","","","","","","","","","",""
"html-keyboard-response","83","338040","0.0-3.0-3.0-0.0","ltncxj3br1jw83t","practice_cue","5ebac91735226005282f48dd","5f60e3c0a3b16e07647b2ff9","5f61dc0390e12618dc2e9754","false","null","<span style=""color: black; font-size: 48px"">N + M</span>","null","","","","resp_prompt","","","","","","","","","","","","","","","",""
"categorize-image","84","340045","0.0-3.0-3.0-1.0","ltncxj3br1jw83t","practice_cue","5ebac91735226005282f48dd","5f60e3c0a3b16e07647b2ff9","5f61dc0390e12618dc2e9754","true","null","./Stimuli/ImagesPractice/LM239.jpg","null","","","","test","false","N + M","76","","LM","LM239.jpg","forget","old","33","3","practice_forget","too_slow","","","",""
"html-keyboard-response","85","340547","0.0-3.0-3.0-2.0-0.0","ltncxj3br1jw83t","practice_cue","5ebac91735226005282f48dd","5f60e3c0a3b16e07647b2ff9","5f61dc0390e12618dc2e9754","false","null","<span style=""color: red; font-size: 48px"">Too slow!</span>","null","","","","feedback","","","","","","","","","","","","","","","",""
"html-keyboard-response","86","342548","0.0-3.0-3.0-3.0","ltncxj3br1jw83t","practice_cue","5ebac91735226005282f48dd","5f60e3c0a3b16e07647b2ff9","5f61dc0390e12618dc2e9754","false","null","<div style=""align-items: center; display: flex; color: darkorange; font-size: 90px""><b>ø</b></div>","null","","","","forget_cue","","","","","","","","","","","","","","","",""
"html-keyboard-response","87","343250","0.0-3.0-3.0-0.1","ltncxj3br1jw83t","practice_cue","5ebac91735226005282f48dd","5f60e3c0a3b16e07647b2ff9","5f61dc0390e12618dc2e9754","false","null","<span style=""color: black; font-size: 48px"">M + N</span>","null","","","","resp_prompt","","","","","","","","","","","","","","","",""
"categorize-image","88","344847","0.0-3.0-3.0-1.1","ltncxj3br1jw83t","practice_cue","5ebac91735226005282f48dd","5f60e3c0a3b16e07647b2ff9","5f61dc0390e12618dc2e9754","true","1594.2150000482798","./Stimuli/ImagesPractice/SN222.jpg","76","","","","test","true","M + N","76","","SN","SN222.jpg","remember","old","34","3","practice_forget","right","","","",""
"html-keyboard-response","89","346850","0.0-3.0-3.0-3.1","ltncxj3br1jw83t","practice_cue","5ebac91735226005282f48dd","5f60e3c0a3b16e07647b2ff9","5f61dc0390e12618dc2e9754","false","null","<div style=""align-items: center; display: flex; color: dodgerblue; font-size: 90px""><b>o</b></div>","null","","","","forget_cue","","","","","","","","","","","","","","","",""
"html-keyboard-response","90","347551","0.0-3.0-3.0-0.2","ltncxj3br1jw83t","practice_cue","5ebac91735226005282f48dd","5f60e3c0a3b16e07647b2ff9","5f61dc0390e12618dc2e9754","false","null","<span style=""color: black; font-size: 48px"">M + N</span>","null","","","","resp_prompt","","","","","","","","","","","","","","","",""
"categorize-image","91","348844","0.0-3.0-3.0-1.2","ltncxj3br1jw83t","practice_cue","5ebac91735226005282f48dd","5f60e3c0a3b16e07647b2ff9","5f61dc0390e12618dc2e9754","true","1289.7950001060963","./Stimuli/ImagesPractice/LN15.jpg","76","","","","test","true","M + N","76","","LN","LN15.jpg","forget","old","35","3","practice_forget","right","","","",""
"html-keyboard-response","92","350846","0.0-3.0-3.0-3.2","ltncxj3br1jw83t","practice_cue","5ebac91735226005282f48dd","5f60e3c0a3b16e07647b2ff9","5f61dc0390e12618dc2e9754","false","null","<div style=""align-items: center; display: flex; color: darkorange; font-size: 90px""><b>ø</b></div>","null","","","","forget_cue","","","","","","","","","","","","","","","",""
"html-keyboard-response","93","351547","0.0-3.0-3.0-0.3","ltncxj3br1jw83t","practice_cue","5ebac91735226005282f48dd","5f60e3c0a3b16e07647b2ff9","5f61dc0390e12618dc2e9754","false","null","<span style=""color: black; font-size: 48px"">M + N</span>","null","","","","resp_prompt","","","","","","","","","","","","","","","",""
"categorize-image","94","352448","0.0-3.0-3.0-1.3","ltncxj3br1jw83t","practice_cue","5ebac91735226005282f48dd","5f60e3c0a3b16e07647b2ff9","5f61dc0390e12618dc2e9754","true","897.0999997109175","./Stimuli/ImagesPractice/LM224.jpg","83","","","","test","true","M + N","83","","LM","LM224.jpg","forget","old","36","3","practice_forget","left","","","",""
"html-keyboard-response","95","354450","0.0-3.0-3.0-3.3","ltncxj3br1jw83t","practice_cue","5ebac91735226005282f48dd","5f60e3c0a3b16e07647b2ff9","5f61dc0390e12618dc2e9754","false","null","<div style=""align-items: center; display: flex; color: darkorange; font-size: 90px""><b>ø</b></div>","null","","","","forget_cue","","","","","","","","","","","","","","","",""
"html-keyboard-response","96","355152","0.0-3.0-3.0-0.4","ltncxj3br1jw83t","practice_cue","5ebac91735226005282f48dd","5f60e3c0a3b16e07647b2ff9","5f61dc0390e12618dc2e9754","false","null","<span style=""color: black; font-size: 48px"">N + M</span>","null","","","","resp_prompt","","","","","","","","","","","","","","","",""
"categorize-image","97","356270","0.0-3.0-3.0-1.4","ltncxj3br1jw83t","practice_cue","5ebac91735226005282f48dd","5f60e3c0a3b16e07647b2ff9","5f61dc0390e12618dc2e9754","true","1115.590000525117","./Stimuli/ImagesPractice/SM98.jpg","76","","","","test","true","N + M","76","","SM","SM98.jpg","remember","old","37","3","practice_forget","right","","","",""
"html-keyboard-response","98","358272","0.0-3.0-3.0-3.4","ltncxj3br1jw83t","practice_cue","5ebac91735226005282f48dd","5f60e3c0a3b16e07647b2ff9","5f61dc0390e12618dc2e9754","false","null","<div style=""align-items: center; display: flex; color: dodgerblue; font-size: 90px""><b>o</b></div>","null","","","","forget_cue","","","","","","","","","","","","","","","",""
"html-keyboard-response","99","358974","0.0-3.0-3.0-0.5","ltncxj3br1jw83t","practice_cue","5ebac91735226005282f48dd","5f60e3c0a3b16e07647b2ff9","5f61dc0390e12618dc2e9754","false","null","<span style=""color: black; font-size: 48px"">N + M</span>","null","","","","resp_prompt","","","","","","","","","","","","","","","",""
"categorize-image","100","360514","0.0-3.0-3.0-1.5","ltncxj3br1jw83t","practice_cue","5ebac91735226005282f48dd","5f60e3c0a3b16e07647b2ff9","5f61dc0390e12618dc2e9754","true","1537.5100001692772","./Stimuli/ImagesPractice/SM61.jpg","76","","","","test","true","N + M","76","","SM","SM61.jpg","forget","old","38","3","practice_forget","right","","","",""
"html-keyboard-response","101","362516","0.0-3.0-3.0-3.5","ltncxj3br1jw83t","practice_cue","5ebac91735226005282f48dd","5f60e3c0a3b16e07647b2ff9","5f61dc0390e12618dc2e9754","false","null","<div style=""align-items: center; display: flex; color: darkorange; font-size: 90px""><b>ø</b></div>","null","","","","forget_cue","","","","","","","","","","","","","","","",""
"html-keyboard-response","102","363218","0.0-3.0-3.0-0.6","ltncxj3br1jw83t","practice_cue","5ebac91735226005282f48dd","5f60e3c0a3b16e07647b2ff9","5f61dc0390e12618dc2e9754","false","null","<span style=""color: black; font-size: 48px"">M + N</span>","null","","","","resp_prompt","","","","","","","","","","","","","","","",""
"categorize-image","103","364544","0.0-3.0-3.0-1.6","ltncxj3br1jw83t","practice_cue","5ebac91735226005282f48dd","5f60e3c0a3b16e07647b2ff9","5f61dc0390e12618dc2e9754","true","1323.560000397265","./Stimuli/ImagesPractice/SN76.jpg","76","","","","test","true","M + N","76","","SN","SN76.jpg","forget","old","39","3","practice_forget","right","","","",""
"html-keyboard-response","104","366546","0.0-3.0-3.0-3.6","ltncxj3br1jw83t","practice_cue","5ebac91735226005282f48dd","5f60e3c0a3b16e07647b2ff9","5f61dc0390e12618dc2e9754","false","null","<div style=""align-items: center; display: flex; color: darkorange; font-size: 90px""><b>ø</b></div>","null","","","","forget_cue","","","","","","","","","","","","","","","",""
"html-keyboard-response","105","367248","0.0-3.0-3.0-0.7","ltncxj3br1jw83t","practice_cue","5ebac91735226005282f48dd","5f60e3c0a3b16e07647b2ff9","5f61dc0390e12618dc2e9754","false","null","<span style=""color: black; font-size: 48px"">M + N</span>","null","","","","resp_prompt","","","","","","","","","","","","","","","",""
"categorize-image","106","368736","0.0-3.0-3.0-1.7","ltncxj3br1jw83t","practice_cue","5ebac91735226005282f48dd","5f60e3c0a3b16e07647b2ff9","5f61dc0390e12618dc2e9754","true","1485.0600007921457","./Stimuli/ImagesPractice/SN220.jpg","76","","","","test","true","M + N","76","","SN","SN220.jpg","remember","old","40","3","practice_forget","right","","","",""
"html-keyboard-response","107","370737","0.0-3.0-3.0-3.7","ltncxj3br1jw83t","practice_cue","5ebac91735226005282f48dd","5f60e3c0a3b16e07647b2ff9","5f61dc0390e12618dc2e9754","false","null","<div style=""align-items: center; display: flex; color: dodgerblue; font-size: 90px""><b>o</b></div>","null","","","","forget_cue","","","","","","","","","","","","","","","",""
"html-keyboard-response","108","371439","0.0-3.0-3.0-0.8","ltncxj3br1jw83t","practice_cue","5ebac91735226005282f48dd","5f60e3c0a3b16e07647b2ff9","5f61dc0390e12618dc2e9754","false","null","<span style=""color: black; font-size: 48px"">M + N</span>","null","","","","resp_prompt","","","","","","","","","","","","","","","",""
"categorize-image","109","372733","0.0-3.0-3.0-1.8","ltncxj3br1jw83t","practice_cue","5ebac91735226005282f48dd","5f60e3c0a3b16e07647b2ff9","5f61dc0390e12618dc2e9754","true","1291.4399998262525","./Stimuli/ImagesPractice/SN221.jpg","76","","","","test","true","M + N","76","","SN","SN221.jpg","remember","old","41","3","practice_forget","right","","","",""
"html-keyboard-response","110","374735","0.0-3.0-3.0-3.8","ltncxj3br1jw83t","practice_cue","5ebac91735226005282f48dd","5f60e3c0a3b16e07647b2ff9","5f61dc0390e12618dc2e9754","false","null","<div style=""align-items: center; display: flex; color: dodgerblue; font-size: 90px""><b>o</b></div>","null","","","","forget_cue","","","","","","","","","","","","","","","",""
"html-keyboard-response","111","375436","0.0-3.0-3.0-0.9","ltncxj3br1jw83t","practice_cue","5ebac91735226005282f48dd","5f60e3c0a3b16e07647b2ff9","5f61dc0390e12618dc2e9754","false","null","<span style=""color: black; font-size: 48px"">M + N</span>","null","","","","resp_prompt","","","","","","","","","","","","","","","",""
"categorize-image","112","376969","0.0-3.0-3.0-1.9","ltncxj3br1jw83t","practice_cue","5ebac91735226005282f48dd","5f60e3c0a3b16e07647b2ff9","5f61dc0390e12618dc2e9754","true","1529.4699994847178","./Stimuli/ImagesPractice/SM37.jpg","83","","","","test","true","M + N","83","","SM","SM37.jpg","remember","old","42","3","practice_forget","left","","","",""
"html-keyboard-response","113","378971","0.0-3.0-3.0-3.9","ltncxj3br1jw83t","practice_cue","5ebac91735226005282f48dd","5f60e3c0a3b16e07647b2ff9","5f61dc0390e12618dc2e9754","false","null","<div style=""align-items: center; display: flex; color: dodgerblue; font-size: 90px""><b>o</b></div>","null","","","","forget_cue","","","","","","","","","","","","","","","",""
"html-keyboard-response","114","379673","0.0-3.0-3.0-0.10","ltncxj3br1jw83t","practice_cue","5ebac91735226005282f48dd","5f60e3c0a3b16e07647b2ff9","5f61dc0390e12618dc2e9754","false","null","<span style=""color: black; font-size: 48px"">N + M</span>","null","","","","resp_prompt","","","","","","","","","","","","","","","",""
"categorize-image","115","381512","0.0-3.0-3.0-1.10","ltncxj3br1jw83t","practice_cue","5ebac91735226005282f48dd","5f60e3c0a3b16e07647b2ff9","5f61dc0390e12618dc2e9754","true","1835.7999995350838","./Stimuli/ImagesPractice/LN2.jpg","83","","","","test","true","N + M","83","","LN","LN2.jpg","forget","old","43","3","practice_forget","left","","","",""
"html-keyboard-response","116","383513","0.0-3.0-3.0-3.10","ltncxj3br1jw83t","practice_cue","5ebac91735226005282f48dd","5f60e3c0a3b16e07647b2ff9","5f61dc0390e12618dc2e9754","false","null","<div style=""align-items: center; display: flex; color: darkorange; font-size: 90px""><b>ø</b></div>","null","","","","forget_cue","","","","","","","","","","","","","","","",""
"html-keyboard-response","117","384215","0.0-3.0-3.0-0.11","ltncxj3br1jw83t","practice_cue","5ebac91735226005282f48dd","5f60e3c0a3b16e07647b2ff9","5f61dc0390e12618dc2e9754","false","null","<span style=""color: black; font-size: 48px"">N + M</span>","null","","","","resp_prompt","","","","","","","","","","","","","","","",""
"categorize-image","118","386089","0.0-3.0-3.0-1.11","ltncxj3br1jw83t","practice_cue","5ebac91735226005282f48dd","5f60e3c0a3b16e07647b2ff9","5f61dc0390e12618dc2e9754","true","1871.3999995961785","./Stimuli/ImagesPractice/LM230.jpg","76","","","","test","true","N + M","76","","LM","LM230.jpg","remember","old","44","3","practice_forget","right","","","",""
"html-keyboard-response","119","388091","0.0-3.0-3.0-3.11","ltncxj3br1jw83t","practice_cue","5ebac91735226005282f48dd","5f60e3c0a3b16e07647b2ff9","5f61dc0390e12618dc2e9754","false","null","<div style=""align-items: center; display: flex; color: dodgerblue; font-size: 90px""><b>o</b></div>","null","","","","forget_cue","","","","","","","","","","","","","","","",""
"html-keyboard-response","120","388792","0.0-3.0-3.0-0.12","ltncxj3br1jw83t","practice_cue","5ebac91735226005282f48dd","5f60e3c0a3b16e07647b2ff9","5f61dc0390e12618dc2e9754","false","null","<span style=""color: black; font-size: 48px"">M + N</span>","null","","","","resp_prompt","","","","","","","","","","","","","","","",""
"categorize-image","121","389581","0.0-3.0-3.0-1.12","ltncxj3br1jw83t","practice_cue","5ebac91735226005282f48dd","5f60e3c0a3b16e07647b2ff9","5f61dc0390e12618dc2e9754","true","785.7849998399615","./Stimuli/ImagesPractice/LM143.jpg","83","","","","test","true","M + N","83","","LM","LM143.jpg","forget","old","45","3","practice_forget","left","","","",""
"html-keyboard-response","122","391583","0.0-3.0-3.0-3.12","ltncxj3br1jw83t","practice_cue","5ebac91735226005282f48dd","5f60e3c0a3b16e07647b2ff9","5f61dc0390e12618dc2e9754","false","null","<div style=""align-items: center; display: flex; color: darkorange; font-size: 90px""><b>ø</b></div>","null","","","","forget_cue","","","","","","","","","","","","","","","",""
"html-keyboard-response","123","392285","0.0-3.0-3.0-0.13","ltncxj3br1jw83t","practice_cue","5ebac91735226005282f48dd","5f60e3c0a3b16e07647b2ff9","5f61dc0390e12618dc2e9754","false","null","<span style=""color: black; font-size: 48px"">N + M</span>","null","","","","resp_prompt","","","","","","","","","","","","","","","",""
"categorize-image","124","393852","0.0-3.0-3.0-1.13","ltncxj3br1jw83t","practice_cue","5ebac91735226005282f48dd","5f60e3c0a3b16e07647b2ff9","5f61dc0390e12618dc2e9754","true","1563.6799996718764","./Stimuli/ImagesPractice/SM62.jpg","76","","","","test","true","N + M","76","","SM","SM62.jpg","remember","old","46","3","practice_forget","right","","","",""
"html-keyboard-response","125","395854","0.0-3.0-3.0-3.13","ltncxj3br1jw83t","practice_cue","5ebac91735226005282f48dd","5f60e3c0a3b16e07647b2ff9","5f61dc0390e12618dc2e9754","false","null","<div style=""align-items: center; display: flex; color: dodgerblue; font-size: 90px""><b>o</b></div>","null","","","","forget_cue","","","","","","","","","","","","","","","",""
"html-keyboard-response","126","396556","0.0-3.0-3.0-0.14","ltncxj3br1jw83t","practice_cue","5ebac91735226005282f48dd","5f60e3c0a3b16e07647b2ff9","5f61dc0390e12618dc2e9754","false","null","<span style=""color: black; font-size: 48px"">N + M</span>","null","","","","resp_prompt","","","","","","","","","","","","","","","",""
"categorize-image","127","397459","0.0-3.0-3.0-1.14","ltncxj3br1jw83t","practice_cue","5ebac91735226005282f48dd","5f60e3c0a3b16e07647b2ff9","5f61dc0390e12618dc2e9754","true","900.3149997442961","./Stimuli/ImagesPractice/LM55.jpg","76","","","","test","true","N + M","76","","LM","LM55.jpg","remember","old","47","3","practice_forget","right","","","",""
"html-keyboard-response","128","399461","0.0-3.0-3.0-3.14","ltncxj3br1jw83t","practice_cue","5ebac91735226005282f48dd","5f60e3c0a3b16e07647b2ff9","5f61dc0390e12618dc2e9754","false","null","<div style=""align-items: center; display: flex; color: dodgerblue; font-size: 90px""><b>o</b></div>","null","","","","forget_cue","","","","","","","","","","","","","","","",""
"html-keyboard-response","129","400163","0.0-3.0-3.0-0.15","ltncxj3br1jw83t","practice_cue","5ebac91735226005282f48dd","5f60e3c0a3b16e07647b2ff9","5f61dc0390e12618dc2e9754","false","null","<span style=""color: black; font-size: 48px"">N + M</span>","null","","","","resp_prompt","","","","","","","","","","","","","","","",""
"categorize-image","130","400973","0.0-3.0-3.0-1.15","ltncxj3br1jw83t","practice_cue","5ebac91735226005282f48dd","5f60e3c0a3b16e07647b2ff9","5f61dc0390e12618dc2e9754","true","807.1750001981854","./Stimuli/ImagesPractice/LN72.jpg","83","","","","test","true","N + M","83","","LN","LN72.jpg","forget","old","48","3","practice_forget","left","","","",""
"html-keyboard-response","131","402975","0.0-3.0-3.0-3.15","ltncxj3br1jw83t","practice_cue","5ebac91735226005282f48dd","5f60e3c0a3b16e07647b2ff9","5f61dc0390e12618dc2e9754","false","null","<div style=""align-items: center; display: flex; color: darkorange; font-size: 90px""><b>ø</b></div>","null","","","","forget_cue","","","","","","","","","","","","","","","",""
"html-keyboard-response","132","409655","0.0-3.0-4.0","ltncxj3br1jw83t","break","5ebac91735226005282f48dd","5f60e3c0a3b16e07647b2ff9","5f61dc0390e12618dc2e9754","false","6679.459999315441","<p style='font-size: 32px;'>Break</><br><br><br><br><br><p style='font-size: 24px;'>In the last block, you committed 0 errors and did not respond in time on 1 trials.
</p><p style='font-size: 24px;'>Try to respond as fast and accurately as possible in the next block as well! </p><p style='font-size: 24px;'>Press SPACE to continue.</p>","32","","","","","","","","","","","","","","","","","","","",""
"html-keyboard-response","133","410798","0.0-3.0-5.0","ltncxj3br1jw83t","instructions","5ebac91735226005282f48dd","5f60e3c0a3b16e07647b2ff9","5f61dc0390e12618dc2e9754","false","1141.6150005534291","<div align=left> Now, to practice, we kindly ask you to remember as many of the to-be-remembered pictures<br>of the previous learning phase as possible.<br><br>The pictures you were instructed to remember were the pictures followed by a <span style='color: dodgerblue; font-size: 28px'>O</span>.<br><br>In this memory test phase, you will also see some new pictures.<br>It is your task to remember whether you were presented with this specific picture in this study so far or not.<br>If you recognize an object (you have already seen it in this study), it is an OLD object. <br>If you do not recognize an object (you have NOT seen it in this study), it is a NEW object. <br><strong> Attention</strong>: As already mentioned, <span style='color: darkorange; font-size:28px'>Ø</span>-pictures will <strong>never</strong> appear in this memory test (neither as new objects). <br><br>Press SPACE to continue. </div>","32","","","","","","","","","","","","","","","","","","","",""
"html-keyboard-response","134","412054","0.0-3.0-6.0","ltncxj3br1jw83t","instructions","5ebac91735226005282f48dd","5f60e3c0a3b16e07647b2ff9","5f61dc0390e12618dc2e9754","false","1255.3700003772974","<div align=left> M and N no longer will appear on the left/right of the fixation cross. <br>Instead there will be a note at the bottom of the left or right side  <br>indicating which key you should press for an old or new object:  <br> <br>Press the <strong>right</strong> key to classify an object as <strong>old</strong> and press the <strong>left</strong>, to classify an object as <strong>new</strong>.<br>Please classify the objects as new/old by again placing your index finger on the 'S' and 'L' keys <br>and press them accordingly.<br><br><strong>Old:</strong> This object has been presented before. <br><strong>New:</strong> This object has <strong>not</strong> been presented.<br><br>Now please put your right and left index fingers on the 'S' and 'L' keys of your keyboard. <br>Please respond as fast and as accurately as possible!<br><br>Press SPACE to continue. </div>","32","","","","","","","","","","","","","","","","","","","",""
"categorize-image","135","415762","0.0-3.0-7.0-0.0","ltncxj3br1jw83t","practice_recog","5ebac91735226005282f48dd","5f60e3c0a3b16e07647b2ff9","5f61dc0390e12618dc2e9754","true","3205.1050001755357","./Stimuli/ImagesPractice/SM97.jpg","83","","","","test","true","","83","","SM","SM97.jpg","","new","49","4","practice_recog","left","","","",""
"categorize-image","136","417521","0.0-3.0-7.0-0.1","ltncxj3br1jw83t","practice_recog","5ebac91735226005282f48dd","5f60e3c0a3b16e07647b2ff9","5f61dc0390e12618dc2e9754","true","1256.190000101924","./Stimuli/ImagesPractice/LM55.jpg","83","","","","test","false","","76","","LM","LM55.jpg","","old","50","4","practice_recog","left","","","",""
"categorize-image","137","419134","0.0-3.0-7.0-0.2","ltncxj3br1jw83t","practice_recog","5ebac91735226005282f48dd","5f60e3c0a3b16e07647b2ff9","5f61dc0390e12618dc2e9754","true","1109.6700001507998","./Stimuli/ImagesPractice/LN17.jpg","76","","","","test","false","","83","","LN","LN17.jpg","","new","51","4","practice_recog","right","","","",""
"categorize-image","138","422270","0.0-3.0-7.0-0.3","ltncxj3br1jw83t","practice_recog","5ebac91735226005282f48dd","5f60e3c0a3b16e07647b2ff9","5f61dc0390e12618dc2e9754","true","2633.650000207126","./Stimuli/ImagesPractice/SN205.jpg","83","","","","test","true","","83","","SN","SN205.jpg","","new","52","4","practice_recog","left","","","",""
"categorize-image","139","424287","0.0-3.0-7.0-0.4","ltncxj3br1jw83t","practice_recog","5ebac91735226005282f48dd","5f60e3c0a3b16e07647b2ff9","5f61dc0390e12618dc2e9754","true","1513.2250003516674","./Stimuli/ImagesPractice/LM147.jpg","83","","","","test","true","","83","","LM","LM147.jpg","","new","53","4","practice_recog","left","","","",""
"categorize-image","140","426482","0.0-3.0-7.0-0.5","ltncxj3br1jw83t","practice_recog","5ebac91735226005282f48dd","5f60e3c0a3b16e07647b2ff9","5f61dc0390e12618dc2e9754","true","1694.0250005573034","./Stimuli/ImagesPractice/LM230.jpg","76","","","","test","true","","76","","LM","LM230.jpg","","old","54","4","practice_recog","right","","","",""
"categorize-image","141","428074","0.0-3.0-7.0-0.6","ltncxj3br1jw83t","practice_recog","5ebac91735226005282f48dd","5f60e3c0a3b16e07647b2ff9","5f61dc0390e12618dc2e9754","true","1089.5549999549985","./Stimuli/ImagesPractice/SM98.jpg","76","","","","test","true","","76","","SM","SM98.jpg","","old","55","4","practice_recog","right","","","",""
"categorize-image","142","429598","0.0-3.0-7.0-0.7","ltncxj3br1jw83t","practice_recog","5ebac91735226005282f48dd","5f60e3c0a3b16e07647b2ff9","5f61dc0390e12618dc2e9754","true","1022.3300000652671","./Stimuli/ImagesPractice/LN109.jpg","83","","","","test","true","","83","","LN","LN109.jpg","","new","56","4","practice_recog","left","","","",""
"categorize-image","143","431153","0.0-3.0-7.0-0.8","ltncxj3br1jw83t","practice_recog","5ebac91735226005282f48dd","5f60e3c0a3b16e07647b2ff9","5f61dc0390e12618dc2e9754","true","1053.1050004065037","./Stimuli/ImagesPractice/SN220.jpg","76","","","","test","true","","76","","SN","SN220.jpg","","old","57","4","practice_recog","right","","","",""
"categorize-image","144","433489","0.0-3.0-7.0-0.9","ltncxj3br1jw83t","practice_recog","5ebac91735226005282f48dd","5f60e3c0a3b16e07647b2ff9","5f61dc0390e12618dc2e9754","true","1833.9399993419647","./Stimuli/ImagesPractice/SN221.jpg","76","","","","test","true","","76","","SN","SN221.jpg","","old","58","4","practice_recog","right","","","",""
"categorize-image","145","435697","0.0-3.0-7.0-0.10","ltncxj3br1jw83t","practice_recog","5ebac91735226005282f48dd","5f60e3c0a3b16e07647b2ff9","5f61dc0390e12618dc2e9754","true","1702.929999679327","./Stimuli/ImagesPractice/SM35.jpg","76","","","","test","false","","83","","SM","SM35.jpg","","new","59","4","practice_recog","right","","","",""
"categorize-image","146","436974","0.0-3.0-7.0-0.11","ltncxj3br1jw83t","practice_recog","5ebac91735226005282f48dd","5f60e3c0a3b16e07647b2ff9","5f61dc0390e12618dc2e9754","true","775.5400007590652","./Stimuli/ImagesPractice/SM37.jpg","83","","","","test","false","","76","","SM","SM37.jpg","","old","60","4","practice_recog","left","","","",""
"categorize-image","147","438610","0.0-3.0-7.0-0.12","ltncxj3br1jw83t","practice_recog","5ebac91735226005282f48dd","5f60e3c0a3b16e07647b2ff9","5f61dc0390e12618dc2e9754","true","1134.1149993240833","./Stimuli/ImagesPractice/SN222.jpg","76","","","","test","true","","76","","SN","SN222.jpg","","old","61","4","practice_recog","right","","","",""
"categorize-image","148","440067","0.0-3.0-7.0-0.13","ltncxj3br1jw83t","practice_recog","5ebac91735226005282f48dd","5f60e3c0a3b16e07647b2ff9","5f61dc0390e12618dc2e9754","true","954.7350006178021","./Stimuli/ImagesPractice/SM62.jpg","76","","","","test","true","","76","","SM","SM62.jpg","","old","62","4","practice_recog","right","","","",""
"categorize-image","149","442346","0.0-3.0-7.0-0.14","ltncxj3br1jw83t","practice_recog","5ebac91735226005282f48dd","5f60e3c0a3b16e07647b2ff9","5f61dc0390e12618dc2e9754","true","1776.8700001761317","./Stimuli/ImagesPractice/SN75.jpg","83","","","","test","true","","83","","SN","SN75.jpg","","new","63","4","practice_recog","left","","","",""
"categorize-image","150","443774","0.0-3.0-7.0-0.15","ltncxj3br1jw83t","practice_recog","5ebac91735226005282f48dd","5f60e3c0a3b16e07647b2ff9","5f61dc0390e12618dc2e9754","true","925.0349998474121","./Stimuli/ImagesPractice/LN4.jpg","83","","","","test","true","","83","","LN","LN4.jpg","","new","64","4","practice_recog","left","","","",""
"html-keyboard-response","151","448070","0.0-3.0-8.0","ltncxj3br1jw83t","instructions","5ebac91735226005282f48dd","5f60e3c0a3b16e07647b2ff9","5f61dc0390e12618dc2e9754","false","4295.319999568164","<div align=left> Great!<br><br>Are you ready to continue?<br>If you want to reread the instructions and redo the practice trials, please <br>press „Z“.<br><br>You can proceed when you are ready.<br><br>After the presentation of each object, you will receive an instruction whether to <br>remember or to forget the object.<br>We will test your memory of the following pictures only at the very end of <br>the experiment after all learning blocks are completed. <br><br>Press SPACE to CONTINUE when you are ready. </div>","32","","","","","","","","","","","","","","","","","","","",""
"html-keyboard-response","152","454140","0.0-4.0-0.0","ltncxj3br1jw83t","instructions","5ebac91735226005282f48dd","5f60e3c0a3b16e07647b2ff9","5f61dc0390e12618dc2e9754","false","6068.075000308454","<div align=left> The actual experiment is about to start.<br>The practice trials are over!<br><br>Please always respond both fast and accurately!<br><br>Remember: <br> <br><li> Please place your index fingers on the <strong>'S'</strong> and <strong>'L'</strong> keys <br>to respond as fast and accurately as possible.</li><li> Every picture can be classified as either mechanical or non-mechanical.</li><li> If you do not respond in time or commit an error, you will receive a corresponding feedback.<br> Please try to respond as <strong> fast </strong> and as <strong> accurately as possible </strong>.</li><li> Remember the <span style='color: dodgerblue; font-size: 28px'>O</span> pictures. <br></li><li> Please minimize distractions and stay focused. </li><br><br>Press SPACE to START.</div>","32","","","","","","","","","","","","","","","","","","","",""
"html-keyboard-response","153","454841","0.0-4.0-1.0-0.0","ltncxj3br1jw83t","prime","5ebac91735226005282f48dd","5f60e3c0a3b16e07647b2ff9","5f61dc0390e12618dc2e9754","false","null","<span style=""color: black; font-size: 48px"">N + M</span>","null","","","","resp_prompt","","","","","","","","","","","","","","","",""
"categorize-image","154","456288","0.0-4.0-1.0-1.0","ltncxj3br1jw83t","prime","5ebac91735226005282f48dd","5f60e3c0a3b16e07647b2ff9","5f61dc0390e12618dc2e9754","true","1444.0050004050136","./Stimuli/SelectedImages/LN/LN150.bmp","83","","","","test","true","N + M","83","repetition","LN","LN150.bmp","remember","","65","4","prime1","left","","","",""
"html-keyboard-response","155","458290","0.0-4.0-1.0-3.0","ltncxj3br1jw83t","prime","5ebac91735226005282f48dd","5f60e3c0a3b16e07647b2ff9","5f61dc0390e12618dc2e9754","false","null","<div style=""align-items: center; display: flex; color: dodgerblue; font-size: 90px""><b>o</b></div>","null","","","","forget_cue","","","","","","","","","","","","","","","",""
"html-keyboard-response","156","458992","0.0-4.0-1.0-0.1","ltncxj3br1jw83t","prime","5ebac91735226005282f48dd","5f60e3c0a3b16e07647b2ff9","5f61dc0390e12618dc2e9754","false","null","<span style=""color: black; font-size: 48px"">M + N</span>","null","","","","resp_prompt","","","","","","","","","","","","","","","",""
"categorize-image","157","460201","0.0-4.0-1.0-1.1","ltncxj3br1jw83t","prime","5ebac91735226005282f48dd","5f60e3c0a3b16e07647b2ff9","5f61dc0390e12618dc2e9754","true","1206.5699994564056","./Stimuli/SelectedImages/SN/SN60.bmp","76","","","","test","true","M + N","76","switch","SN","SN60.bmp","forget","","66","4","prime1","right","","","",""
"html-keyboard-response","158","462203","0.0-4.0-1.0-3.1","ltncxj3br1jw83t","prime","5ebac91735226005282f48dd","5f60e3c0a3b16e07647b2ff9","5f61dc0390e12618dc2e9754","false","null","<div style=""align-items: center; display: flex; color: darkorange; font-size: 90px""><b>ø</b></div>","null","","","","forget_cue","","","","","","","","","","","","","","","",""
"html-keyboard-response","159","462904","0.0-4.0-1.0-0.2","ltncxj3br1jw83t","prime","5ebac91735226005282f48dd","5f60e3c0a3b16e07647b2ff9","5f61dc0390e12618dc2e9754","false","null","<span style=""color: black; font-size: 48px"">M + N</span>","null","","","","resp_prompt","","","","","","","","","","","","","","","",""
"categorize-image","160","464284","0.0-4.0-1.0-1.2","ltncxj3br1jw83t","prime","5ebac91735226005282f48dd","5f60e3c0a3b16e07647b2ff9","5f61dc0390e12618dc2e9754","true","1376.9699996337295","./Stimuli/SelectedImages/SM/SM74.bmp","83","","","","test","true","M + N","83","switch","SM","SM74.bmp","remember","","67","4","prime1","left","","","",""
"html-keyboard-response","161","466286","0.0-4.0-1.0-3.2","ltncxj3br1jw83t","prime","5ebac91735226005282f48dd","5f60e3c0a3b16e07647b2ff9","5f61dc0390e12618dc2e9754","false","null","<div style=""align-items: center; display: flex; color: dodgerblue; font-size: 90px""><b>o</b></div>","null","","","","forget_cue","","","","","","","","","","","","","","","",""
"html-keyboard-response","162","466988","0.0-4.0-1.0-0.3","ltncxj3br1jw83t","prime","5ebac91735226005282f48dd","5f60e3c0a3b16e07647b2ff9","5f61dc0390e12618dc2e9754","false","null","<span style=""color: black; font-size: 48px"">N + M</span>","null","","","","resp_prompt","","","","","","","","","","","","","","","",""
"categorize-image","163","468996","0.0-4.0-1.0-1.3","ltncxj3br1jw83t","prime","5ebac91735226005282f48dd","5f60e3c0a3b16e07647b2ff9","5f61dc0390e12618dc2e9754","true","null","./Stimuli/SelectedImages/LN/LN12.bmp","null","","","","test","false","N + M","83","switch","LN","LN12.bmp","remember","","68","4","prime1","too_slow","","","",""
"html-keyboard-response","164","469498","0.0-4.0-1.0-2.3-0.3","ltncxj3br1jw83t","prime","5ebac91735226005282f48dd","5f60e3c0a3b16e07647b2ff9","5f61dc0390e12618dc2e9754","false","null","<span style=""color: red; font-size: 48px"">Too slow!</span>","null","","","","feedback","","","","","","","","","","","","","","","",""
"html-keyboard-response","165","471499","0.0-4.0-1.0-3.3","ltncxj3br1jw83t","prime","5ebac91735226005282f48dd","5f60e3c0a3b16e07647b2ff9","5f61dc0390e12618dc2e9754","false","null","<div style=""align-items: center; display: flex; color: dodgerblue; font-size: 90px""><b>o</b></div>","null","","","","forget_cue","","","","","","","","","","","","","","","",""
"html-keyboard-response","166","472201","0.0-4.0-1.0-0.4","ltncxj3br1jw83t","prime","5ebac91735226005282f48dd","5f60e3c0a3b16e07647b2ff9","5f61dc0390e12618dc2e9754","false","null","<span style=""color: black; font-size: 48px"">N + M</span>","null","","","","resp_prompt","","","","","","","","","","","","","","","",""
"categorize-image","167","473070","0.0-4.0-1.0-1.4","ltncxj3br1jw83t","prime","5ebac91735226005282f48dd","5f60e3c0a3b16e07647b2ff9","5f61dc0390e12618dc2e9754","true","866.9799994677305","./Stimuli/SelectedImages/LN/LN28.bmp","83","","","","test","true","N + M","83","switch","LN","LN28.bmp","forget","","69","4","prime1","left","","","",""
"html-keyboard-response","168","475073","0.0-4.0-1.0-3.4","ltncxj3br1jw83t","prime","5ebac91735226005282f48dd","5f60e3c0a3b16e07647b2ff9","5f61dc0390e12618dc2e9754","false","null","<div style=""align-items: center; display: flex; color: darkorange; font-size: 90px""><b>ø</b></div>","null","","","","forget_cue","","","","","","","","","","","","","","","",""
"html-keyboard-response","169","475775","0.0-4.0-1.0-0.5","ltncxj3br1jw83t","prime","5ebac91735226005282f48dd","5f60e3c0a3b16e07647b2ff9","5f61dc0390e12618dc2e9754","false","null","<span style=""color: black; font-size: 48px"">N + M</span>","null","","","","resp_prompt","","","","","","","","","","","","","","","",""
"categorize-image","170","476773","0.0-4.0-1.0-1.5","ltncxj3br1jw83t","prime","5ebac91735226005282f48dd","5f60e3c0a3b16e07647b2ff9","5f61dc0390e12618dc2e9754","true","995.7849998027086","./Stimuli/SelectedImages/LM/LM48.bmp","83","","","","test","false","N + M","76","repetition","LM","LM48.bmp","forget","","70","4","prime1","left","","","",""
"html-keyboard-response","171","477275","0.0-4.0-1.0-2.5-0.5","ltncxj3br1jw83t","prime","5ebac91735226005282f48dd","5f60e3c0a3b16e07647b2ff9","5f61dc0390e12618dc2e9754","false","null","<span style=""color: red; font-size: 48px"">Error!</span>","null","","","","feedback","","","","","","","","","","","","","","","",""
"html-keyboard-response","172","479277","0.0-4.0-1.0-3.5","ltncxj3br1jw83t","prime","5ebac91735226005282f48dd","5f60e3c0a3b16e07647b2ff9","5f61dc0390e12618dc2e9754","false","null","<div style=""align-items: center; display: flex; color: darkorange; font-size: 90px""><b>ø</b></div>","null","","","","forget_cue","","","","","","","","","","","","","","","",""
"html-keyboard-response","173","479979","0.0-4.0-1.0-0.6","ltncxj3br1jw83t","prime","5ebac91735226005282f48dd","5f60e3c0a3b16e07647b2ff9","5f61dc0390e12618dc2e9754","false","null","<span style=""color: black; font-size: 48px"">N + M</span>","null","","","","resp_prompt","","","","","","","","","","","","","","","",""
"categorize-image","174","480864","0.0-4.0-1.0-1.6","ltncxj3br1jw83t","prime","5ebac91735226005282f48dd","5f60e3c0a3b16e07647b2ff9","5f61dc0390e12618dc2e9754","true","882.9699996858835","./Stimuli/SelectedImages/SM/SM108.bmp","76","","","","test","true","N + M","76","switch","SM","SM108.bmp","remember","","71","4","prime1","right","","","",""
"html-keyboard-response","175","482866","0.0-4.0-1.0-3.6","ltncxj3br1jw83t","prime","5ebac91735226005282f48dd","5f60e3c0a3b16e07647b2ff9","5f61dc0390e12618dc2e9754","false","null","<div style=""align-items: center; display: flex; color: dodgerblue; font-size: 90px""><b>o</b></div>","null","","","","forget_cue","","","","","","","","","","","","","","","",""
"html-keyboard-response","176","483567","0.0-4.0-1.0-0.7","ltncxj3br1jw83t","prime","5ebac91735226005282f48dd","5f60e3c0a3b16e07647b2ff9","5f61dc0390e12618dc2e9754","false","null","<span style=""color: black; font-size: 48px"">N + M</span>","null","","","","resp_prompt","","","","","","","","","","","","","","","",""
"categorize-image","177","484497","0.0-4.0-1.0-1.7","ltncxj3br1jw83t","prime","5ebac91735226005282f48dd","5f60e3c0a3b16e07647b2ff9","5f61dc0390e12618dc2e9754","true","927.2300004959106","./Stimuli/SelectedImages/SM/SM106.bmp","76","","","","test","true","N + M","76","repetition","SM","SM106.bmp","remember","","72","4","prime1","right","","","",""
"html-keyboard-response","178","486498","0.0-4.0-1.0-3.7","ltncxj3br1jw83t","prime","5ebac91735226005282f48dd","5f60e3c0a3b16e07647b2ff9","5f61dc0390e12618dc2e9754","false","null","<div style=""align-items: center; display: flex; color: dodgerblue; font-size: 90px""><b>o</b></div>","null","","","","forget_cue","","","","","","","","","","","","","","","",""
"html-keyboard-response","179","487199","0.0-4.0-1.0-0.8","ltncxj3br1jw83t","prime","5ebac91735226005282f48dd","5f60e3c0a3b16e07647b2ff9","5f61dc0390e12618dc2e9754","false","null","<span style=""color: black; font-size: 48px"">M + N</span>","null","","","","resp_prompt","","","","","","","","","","","","","","","",""
"categorize-image","180","487899","0.0-4.0-1.0-1.8","ltncxj3br1jw83t","prime","5ebac91735226005282f48dd","5f60e3c0a3b16e07647b2ff9","5f61dc0390e12618dc2e9754","true","697.0549998804927","./Stimuli/SelectedImages/SN/SN140.bmp","76","","","","test","true","M + N","76","switch","SN","SN140.bmp","remember","","73","4","prime1","right","","","",""
"html-keyboard-response","181","489901","0.0-4.0-1.0-3.8","ltncxj3br1jw83t","prime","5ebac91735226005282f48dd","5f60e3c0a3b16e07647b2ff9","5f61dc0390e12618dc2e9754","false","null","<div style=""align-items: center; display: flex; color: dodgerblue; font-size: 90px""><b>o</b></div>","null","","","","forget_cue","","","","","","","","","","","","","","","",""
"html-keyboard-response","182","490603","0.0-4.0-1.0-0.9","ltncxj3br1jw83t","prime","5ebac91735226005282f48dd","5f60e3c0a3b16e07647b2ff9","5f61dc0390e12618dc2e9754","false","null","<span style=""color: black; font-size: 48px"">M + N</span>","null","","","","resp_prompt","","","","","","","","","","","","","","","",""
"categorize-image","183","491365","0.0-4.0-1.0-1.9","ltncxj3br1jw83t","prime","5ebac91735226005282f48dd","5f60e3c0a3b16e07647b2ff9","5f61dc0390e12618dc2e9754","true","758.5150003433228","./Stimuli/SelectedImages/SM/SM207.bmp","83","","","","test","true","M + N","83","repetition","SM","SM207.bmp","remember","","74","4","prime1","left","","","",""
"html-keyboard-response","184","493367","0.0-4.0-1.0-3.9","ltncxj3br1jw83t","prime","5ebac91735226005282f48dd","5f60e3c0a3b16e07647b2ff9","5f61dc0390e12618dc2e9754","false","null","<div style=""align-items: center; display: flex; color: dodgerblue; font-size: 90px""><b>o</b></div>","null","","","","forget_cue","","","","","","","","","","","","","","","",""
"html-keyboard-response","185","494069","0.0-4.0-1.0-0.10","ltncxj3br1jw83t","prime","5ebac91735226005282f48dd","5f60e3c0a3b16e07647b2ff9","5f61dc0390e12618dc2e9754","false","null","<span style=""color: black; font-size: 48px"">M + N</span>","null","","","","resp_prompt","","","","","","","","","","","","","","","",""
"categorize-image","186","494950","0.0-4.0-1.0-1.10","ltncxj3br1jw83t","prime","5ebac91735226005282f48dd","5f60e3c0a3b16e07647b2ff9","5f61dc0390e12618dc2e9754","true","877.9100002720952","./Stimuli/SelectedImages/LM/LM235.bmp","83","","","","test","true","M + N","83","switch","LM","LM235.bmp","forget","","75","4","prime1","left","","","",""
"html-keyboard-response","187","496951","0.0-4.0-1.0-3.10","ltncxj3br1jw83t","prime","5ebac91735226005282f48dd","5f60e3c0a3b16e07647b2ff9","5f61dc0390e12618dc2e9754","false","null","<div style=""align-items: center; display: flex; color: darkorange; font-size: 90px""><b>ø</b></div>","null","","","","forget_cue","","","","","","","","","","","","","","","",""
"html-keyboard-response","188","497653","0.0-4.0-1.0-0.11","ltncxj3br1jw83t","prime","5ebac91735226005282f48dd","5f60e3c0a3b16e07647b2ff9","5f61dc0390e12618dc2e9754","false","null","<span style=""color: black; font-size: 48px"">N + M</span>","null","","","","resp_prompt","","","","","","","","","","","","","","","",""
"categorize-image","189","498532","0.0-4.0-1.0-1.11","ltncxj3br1jw83t","prime","5ebac91735226005282f48dd","5f60e3c0a3b16e07647b2ff9","5f61dc0390e12618dc2e9754","true","876.0600006207824","./Stimuli/SelectedImages/LN/LN59.bmp","83","","","","test","true","N + M","83","repetition","LN","LN59.bmp","remember","","76","4","prime1","left","","","",""
"html-keyboard-response","190","500533","0.0-4.0-1.0-3.11","ltncxj3br1jw83t","prime","5ebac91735226005282f48dd","5f60e3c0a3b16e07647b2ff9","5f61dc0390e12618dc2e9754","false","null","<div style=""align-items: center; display: flex; color: dodgerblue; font-size: 90px""><b>o</b></div>","null","","","","forget_cue","","","","","","","","","","","","","","","",""
"html-keyboard-response","191","501234","0.0-4.0-1.0-0.12","ltncxj3br1jw83t","prime","5ebac91735226005282f48dd","5f60e3c0a3b16e07647b2ff9","5f61dc0390e12618dc2e9754","false","null","<span style=""color: black; font-size: 48px"">N + M</span>","null","","","","resp_prompt","","","","","","","","","","","","","","","",""
"categorize-image","192","501983","0.0-4.0-1.0-1.12","ltncxj3br1jw83t","prime","5ebac91735226005282f48dd","5f60e3c0a3b16e07647b2ff9","5f61dc0390e12618dc2e9754","true","745.325000025332","./Stimuli/SelectedImages/LM/LM58.bmp","83","","","","test","false","N + M","76","repetition","LM","LM58.bmp","forget","","77","4","prime1","left","","","",""
"html-keyboard-response","193","502485","0.0-4.0-1.0-2.12-0.12","ltncxj3br1jw83t","prime","5ebac91735226005282f48dd","5f60e3c0a3b16e07647b2ff9","5f61dc0390e12618dc2e9754","false","null","<span style=""color: red; font-size: 48px"">Error!</span>","null","","","","feedback","","","","","","","","","","","","","","","",""
"html-keyboard-response","194","504487","0.0-4.0-1.0-3.12","ltncxj3br1jw83t","prime","5ebac91735226005282f48dd","5f60e3c0a3b16e07647b2ff9","5f61dc0390e12618dc2e9754","false","null","<div style=""align-items: center; display: flex; color: darkorange; font-size: 90px""><b>ø</b></div>","null","","","","forget_cue","","","","","","","","","","","","","","","",""
"html-keyboard-response","195","505188","0.0-4.0-1.0-0.13","ltncxj3br1jw83t","prime","5ebac91735226005282f48dd","5f60e3c0a3b16e07647b2ff9","5f61dc0390e12618dc2e9754","false","null","<span style=""color: black; font-size: 48px"">N + M</span>","null","","","","resp_prompt","","","","","","","","","","","","","","","",""
"categorize-image","196","505712","0.0-4.0-1.0-1.13","ltncxj3br1jw83t","prime","5ebac91735226005282f48dd","5f60e3c0a3b16e07647b2ff9","5f61dc0390e12618dc2e9754","true","520.6199996173382","./Stimuli/SelectedImages/LN/LN111.bmp","76","","","","test","false","N + M","83","repetition","LN","LN111.bmp","forget","","78","4","prime1","right","","","",""
"html-keyboard-response","197","506214","0.0-4.0-1.0-2.13-0.13","ltncxj3br1jw83t","prime","5ebac91735226005282f48dd","5f60e3c0a3b16e07647b2ff9","5f61dc0390e12618dc2e9754","false","null","<span style=""color: red; font-size: 48px"">Error!</span>","null","","","","feedback","","","","","","","","","","","","","","","",""
"html-keyboard-response","198","508216","0.0-4.0-1.0-3.13","ltncxj3br1jw83t","prime","5ebac91735226005282f48dd","5f60e3c0a3b16e07647b2ff9","5f61dc0390e12618dc2e9754","false","null","<div style=""align-items: center; display: flex; color: darkorange; font-size: 90px""><b>ø</b></div>","null","","","","forget_cue","","","","","","","","","","","","","","","",""
"html-keyboard-response","199","508917","0.0-4.0-1.0-0.14","ltncxj3br1jw83t","prime","5ebac91735226005282f48dd","5f60e3c0a3b16e07647b2ff9","5f61dc0390e12618dc2e9754","false","null","<span style=""color: black; font-size: 48px"">M + N</span>","null","","","","resp_prompt","","","","","","","","","","","","","","","",""
"categorize-image","200","509559","0.0-4.0-1.0-1.14","ltncxj3br1jw83t","prime","5ebac91735226005282f48dd","5f60e3c0a3b16e07647b2ff9","5f61dc0390e12618dc2e9754","true","638.7900002300739","./Stimuli/SelectedImages/SN/SN52.bmp","76","","","","test","true","M + N","76","repetition","SN","SN52.bmp","remember","","79","4","prime1","right","","","",""
"html-keyboard-response","201","511560","0.0-4.0-1.0-3.14","ltncxj3br1jw83t","prime","5ebac91735226005282f48dd","5f60e3c0a3b16e07647b2ff9","5f61dc0390e12618dc2e9754","false","null","<div style=""align-items: center; display: flex; color: dodgerblue; font-size: 90px""><b>o</b></div>","null","","","","forget_cue","","","","","","","","","","","","","","","",""
"html-keyboard-response","202","512262","0.0-4.0-1.0-0.15","ltncxj3br1jw83t","prime","5ebac91735226005282f48dd","5f60e3c0a3b16e07647b2ff9","5f61dc0390e12618dc2e9754","false","null","<span style=""color: black; font-size: 48px"">M + N</span>","null","","","","resp_prompt","","","","","","","","","","","","","","","",""
"categorize-image","203","512864","0.0-4.0-1.0-1.15","ltncxj3br1jw83t","prime","5ebac91735226005282f48dd","5f60e3c0a3b16e07647b2ff9","5f61dc0390e12618dc2e9754","true","598.9150004461408","./Stimuli/SelectedImages/LN/LN13.bmp","83","","","","test","false","M + N","76","switch","LN","LN13.bmp","forget","","80","4","prime1","left","","","",""
"html-keyboard-response","204","513365","0.0-4.0-1.0-2.15-0.15","ltncxj3br1jw83t","prime","5ebac91735226005282f48dd","5f60e3c0a3b16e07647b2ff9","5f61dc0390e12618dc2e9754","false","null","<span style=""color: red; font-size: 48px"">Error!</span>","null","","","","feedback","","","","","","","","","","","","","","","",""
"html-keyboard-response","205","515367","0.0-4.0-1.0-3.15","ltncxj3br1jw83t","prime","5ebac91735226005282f48dd","5f60e3c0a3b16e07647b2ff9","5f61dc0390e12618dc2e9754","false","null","<div style=""align-items: center; display: flex; color: darkorange; font-size: 90px""><b>ø</b></div>","null","","","","forget_cue","","","","","","","","","","","","","","","",""
"html-keyboard-response","206","516069","0.0-4.0-1.0-0.16","ltncxj3br1jw83t","prime","5ebac91735226005282f48dd","5f60e3c0a3b16e07647b2ff9","5f61dc0390e12618dc2e9754","false","null","<span style=""color: black; font-size: 48px"">M + N</span>","null","","","","resp_prompt","","","","","","","","","","","","","","","",""
"categorize-image","207","516745","0.0-4.0-1.0-1.16","ltncxj3br1jw83t","prime","5ebac91735226005282f48dd","5f60e3c0a3b16e07647b2ff9","5f61dc0390e12618dc2e9754","true","672.7400003001094","./Stimuli/SelectedImages/LN/LN131.bmp","83","","","","test","false","M + N","76","switch","LN","LN131.bmp","remember","","81","4","prime1","left","","","",""
"html-keyboard-response","208","517247","0.0-4.0-1.0-2.16-0.16","ltncxj3br1jw83t","prime","5ebac91735226005282f48dd","5f60e3c0a3b16e07647b2ff9","5f61dc0390e12618dc2e9754","false","null","<span style=""color: red; font-size: 48px"">Error!</span>","null","","","","feedback","","","","","","","","","","","","","","","",""
"html-keyboard-response","209","519249","0.0-4.0-1.0-3.16","ltncxj3br1jw83t","prime","5ebac91735226005282f48dd","5f60e3c0a3b16e07647b2ff9","5f61dc0390e12618dc2e9754","false","null","<div style=""align-items: center; display: flex; color: dodgerblue; font-size: 90px""><b>o</b></div>","null","","","","forget_cue","","","","","","","","","","","","","","","",""
"html-keyboard-response","210","519950","0.0-4.0-1.0-0.17","ltncxj3br1jw83t","prime","5ebac91735226005282f48dd","5f60e3c0a3b16e07647b2ff9","5f61dc0390e12618dc2e9754","false","null","<span style=""color: black; font-size: 48px"">M + N</span>","null","","","","resp_prompt","","","","","","","","","","","","","","","",""
"categorize-image","211","520592","0.0-4.0-1.0-1.17","ltncxj3br1jw83t","prime","5ebac91735226005282f48dd","5f60e3c0a3b16e07647b2ff9","5f61dc0390e12618dc2e9754","true","638.4499995037913","./Stimuli/SelectedImages/LN/LN128.bmp","76","","","","test","true","M + N","76","repetition","LN","LN128.bmp","remember","","82","4","prime1","right","","","",""
"html-keyboard-response","212","522593","0.0-4.0-1.0-3.17","ltncxj3br1jw83t","prime","5ebac91735226005282f48dd","5f60e3c0a3b16e07647b2ff9","5f61dc0390e12618dc2e9754","false","null","<div style=""align-items: center; display: flex; color: dodgerblue; font-size: 90px""><b>o</b></div>","null","","","","forget_cue","","","","","","","","","","","","","","","",""
"html-keyboard-response","213","523295","0.0-4.0-1.0-0.18","ltncxj3br1jw83t","prime","5ebac91735226005282f48dd","5f60e3c0a3b16e07647b2ff9","5f61dc0390e12618dc2e9754","false","null","<span style=""color: black; font-size: 48px"">N + M</span>","null","","","","resp_prompt","","","","","","","","","","","","","","","",""
"categorize-image","214","524294","0.0-4.0-1.0-1.18","ltncxj3br1jw83t","prime","5ebac91735226005282f48dd","5f60e3c0a3b16e07647b2ff9","5f61dc0390e12618dc2e9754","true","996.140000410378","./Stimuli/SelectedImages/LM/LM100.bmp","76","","","","test","true","N + M","76","switch","LM","LM100.bmp","forget","","83","4","prime1","right","","","",""
"html-keyboard-response","215","526296","0.0-4.0-1.0-3.18","ltncxj3br1jw83t","prime","5ebac91735226005282f48dd","5f60e3c0a3b16e07647b2ff9","5f61dc0390e12618dc2e9754","false","null","<div style=""align-items: center; display: flex; color: darkorange; font-size: 90px""><b>ø</b></div>","null","","","","forget_cue","","","","","","","","","","","","","","","",""
"html-keyboard-response","216","526997","0.0-4.0-1.0-0.19","ltncxj3br1jw83t","prime","5ebac91735226005282f48dd","5f60e3c0a3b16e07647b2ff9","5f61dc0390e12618dc2e9754","false","null","<span style=""color: black; font-size: 48px"">N + M</span>","null","","","","resp_prompt","","","","","","","","","","","","","","","",""
"categorize-image","217","527673","0.0-4.0-1.0-1.19","ltncxj3br1jw83t","prime","5ebac91735226005282f48dd","5f60e3c0a3b16e07647b2ff9","5f61dc0390e12618dc2e9754","true","672.8500006720424","./Stimuli/SelectedImages/SN/SN18.bmp","83","","","","test","true","N + M","83","repetition","SN","SN18.bmp","forget","","84","4","prime1","left","","","",""
"html-keyboard-response","218","529675","0.0-4.0-1.0-3.19","ltncxj3br1jw83t","prime","5ebac91735226005282f48dd","5f60e3c0a3b16e07647b2ff9","5f61dc0390e12618dc2e9754","false","null","<div style=""align-items: center; display: flex; color: darkorange; font-size: 90px""><b>ø</b></div>","null","","","","forget_cue","","","","","","","","","","","","","","","",""
"html-keyboard-response","219","530377","0.0-4.0-1.0-0.20","ltncxj3br1jw83t","prime","5ebac91735226005282f48dd","5f60e3c0a3b16e07647b2ff9","5f61dc0390e12618dc2e9754","false","null","<span style=""color: black; font-size: 48px"">M + N</span>","null","","","","resp_prompt","","","","","","","","","","","","","","","",""
"categorize-image","220","531411","0.0-4.0-1.0-1.20","ltncxj3br1jw83t","prime","5ebac91735226005282f48dd","5f60e3c0a3b16e07647b2ff9","5f61dc0390e12618dc2e9754","true","1030.9300003573298","./Stimuli/SelectedImages/SN/SN93.bmp","76","","","","test","true","M + N","76","repetition","SN","SN93.bmp","remember","","85","4","prime1","right","","","",""
"html-keyboard-response","221","533413","0.0-4.0-1.0-3.20","ltncxj3br1jw83t","prime","5ebac91735226005282f48dd","5f60e3c0a3b16e07647b2ff9","5f61dc0390e12618dc2e9754","false","null","<div style=""align-items: center; display: flex; color: dodgerblue; font-size: 90px""><b>o</b></div>","null","","","","forget_cue","","","","","","","","","","","","","","","",""
"html-keyboard-response","222","534115","0.0-4.0-1.0-0.21","ltncxj3br1jw83t","prime","5ebac91735226005282f48dd","5f60e3c0a3b16e07647b2ff9","5f61dc0390e12618dc2e9754","false","null","<span style=""color: black; font-size: 48px"">M + N</span>","null","","","","resp_prompt","","","","","","","","","","","","","","","",""
"categorize-image","223","534760","0.0-4.0-1.0-1.21","ltncxj3br1jw83t","prime","5ebac91735226005282f48dd","5f60e3c0a3b16e07647b2ff9","5f61dc0390e12618dc2e9754","true","642.3199996352196","./Stimuli/SelectedImages/SM/SM205.bmp","83","","","","test","true","M + N","83","switch","SM","SM205.bmp","remember","","86","4","prime1","left","","","",""
"html-keyboard-response","224","536762","0.0-4.0-1.0-3.21","ltncxj3br1jw83t","prime","5ebac91735226005282f48dd","5f60e3c0a3b16e07647b2ff9","5f61dc0390e12618dc2e9754","false","null","<div style=""align-items: center; display: flex; color: dodgerblue; font-size: 90px""><b>o</b></div>","null","","","","forget_cue","","","","","","","","","","","","","","","",""
"html-keyboard-response","225","537464","0.0-4.0-1.0-0.22","ltncxj3br1jw83t","prime","5ebac91735226005282f48dd","5f60e3c0a3b16e07647b2ff9","5f61dc0390e12618dc2e9754","false","null","<span style=""color: black; font-size: 48px"">N + M</span>","null","","","","resp_prompt","","","","","","","","","","","","","","","",""
"categorize-image","226","537980","0.0-4.0-1.0-1.22","ltncxj3br1jw83t","prime","5ebac91735226005282f48dd","5f60e3c0a3b16e07647b2ff9","5f61dc0390e12618dc2e9754","true","513.4749999269843","./Stimuli/SelectedImages/SN/SN240.bmp","83","","","","test","true","N + M","83","switch","SN","SN240.bmp","forget","","87","4","prime1","left","","","",""
"html-keyboard-response","227","539982","0.0-4.0-1.0-3.22","ltncxj3br1jw83t","prime","5ebac91735226005282f48dd","5f60e3c0a3b16e07647b2ff9","5f61dc0390e12618dc2e9754","false","null","<div style=""align-items: center; display: flex; color: darkorange; font-size: 90px""><b>ø</b></div>","null","","","","forget_cue","","","","","","","","","","","","","","","",""
"html-keyboard-response","228","540684","0.0-4.0-1.0-0.23","ltncxj3br1jw83t","prime","5ebac91735226005282f48dd","5f60e3c0a3b16e07647b2ff9","5f61dc0390e12618dc2e9754","false","null","<span style=""color: black; font-size: 48px"">M + N</span>","null","","","","resp_prompt","","","","","","","","","","","","","","","",""
"categorize-image","229","541342","0.0-4.0-1.0-1.23","ltncxj3br1jw83t","prime","5ebac91735226005282f48dd","5f60e3c0a3b16e07647b2ff9","5f61dc0390e12618dc2e9754","true","654.335000552237","./Stimuli/SelectedImages/SM/SM213.bmp","83","","","","test","true","M + N","83","repetition","SM","SM213.bmp","forget","","88","4","prime1","left","","","",""
"html-keyboard-response","230","543344","0.0-4.0-1.0-3.23","ltncxj3br1jw83t","prime","5ebac91735226005282f48dd","5f60e3c0a3b16e07647b2ff9","5f61dc0390e12618dc2e9754","false","null","<div style=""align-items: center; display: flex; color: darkorange; font-size: 90px""><b>ø</b></div>","null","","","","forget_cue","","","","","","","","","","","","","","","",""
"html-keyboard-response","231","544045","0.0-4.0-1.0-0.24","ltncxj3br1jw83t","prime","5ebac91735226005282f48dd","5f60e3c0a3b16e07647b2ff9","5f61dc0390e12618dc2e9754","false","null","<span style=""color: black; font-size: 48px"">M + N</span>","null","","","","resp_prompt","","","","","","","","","","","","","","","",""
"categorize-image","232","544540","0.0-4.0-1.0-1.24","ltncxj3br1jw83t","prime","5ebac91735226005282f48dd","5f60e3c0a3b16e07647b2ff9","5f61dc0390e12618dc2e9754","true","491.9099994003773","./Stimuli/SelectedImages/LM/LM51.bmp","83","","","","test","true","M + N","83","switch","LM","LM51.bmp","remember","","89","4","prime1","left","","","",""
"html-keyboard-response","233","546541","0.0-4.0-1.0-3.24","ltncxj3br1jw83t","prime","5ebac91735226005282f48dd","5f60e3c0a3b16e07647b2ff9","5f61dc0390e12618dc2e9754","false","null","<div style=""align-items: center; display: flex; color: dodgerblue; font-size: 90px""><b>o</b></div>","null","","","","forget_cue","","","","","","","","","","","","","","","",""
"html-keyboard-response","234","547243","0.0-4.0-1.0-0.25","ltncxj3br1jw83t","prime","5ebac91735226005282f48dd","5f60e3c0a3b16e07647b2ff9","5f61dc0390e12618dc2e9754","false","null","<span style=""color: black; font-size: 48px"">N + M</span>","null","","","","resp_prompt","","","","","","","","","","","","","","","",""
"categorize-image","235","548027","0.0-4.0-1.0-1.25","ltncxj3br1jw83t","prime","5ebac91735226005282f48dd","5f60e3c0a3b16e07647b2ff9","5f61dc0390e12618dc2e9754","true","781.530000269413","./Stimuli/SelectedImages/SM/SM195.bmp","76","","","","test","true","N + M","76","repetition","SM","SM195.bmp","forget","","90","4","prime1","right","","","",""
"html-keyboard-response","236","550030","0.0-4.0-1.0-3.25","ltncxj3br1jw83t","prime","5ebac91735226005282f48dd","5f60e3c0a3b16e07647b2ff9","5f61dc0390e12618dc2e9754","false","null","<div style=""align-items: center; display: flex; color: darkorange; font-size: 90px""><b>ø</b></div>","null","","","","forget_cue","","","","","","","","","","","","","","","",""
"html-keyboard-response","237","550731","0.0-4.0-1.0-0.26","ltncxj3br1jw83t","prime","5ebac91735226005282f48dd","5f60e3c0a3b16e07647b2ff9","5f61dc0390e12618dc2e9754","false","null","<span style=""color: black; font-size: 48px"">N + M</span>","null","","","","resp_prompt","","","","","","","","","","","","","","","",""
"categorize-image","238","551541","0.0-4.0-1.0-1.26","ltncxj3br1jw83t","prime","5ebac91735226005282f48dd","5f60e3c0a3b16e07647b2ff9","5f61dc0390e12618dc2e9754","true","807.2349997237325","./Stimuli/SelectedImages/SN/SN64.bmp","76","","","","test","false","N + M","83","switch","SN","SN64.bmp","remember","","91","4","prime1","right","","","",""
"html-keyboard-response","239","552042","0.0-4.0-1.0-2.26-0.26","ltncxj3br1jw83t","prime","5ebac91735226005282f48dd","5f60e3c0a3b16e07647b2ff9","5f61dc0390e12618dc2e9754","false","null","<span style=""color: red; font-size: 48px"">Error!</span>","null","","","","feedback","","","","","","","","","","","","","","","",""
"html-keyboard-response","240","554044","0.0-4.0-1.0-3.26","ltncxj3br1jw83t","prime","5ebac91735226005282f48dd","5f60e3c0a3b16e07647b2ff9","5f61dc0390e12618dc2e9754","false","null","<div style=""align-items: center; display: flex; color: dodgerblue; font-size: 90px""><b>o</b></div>","null","","","","forget_cue","","","","","","","","","","","","","","","",""
"html-keyboard-response","241","554747","0.0-4.0-1.0-0.27","ltncxj3br1jw83t","prime","5ebac91735226005282f48dd","5f60e3c0a3b16e07647b2ff9","5f61dc0390e12618dc2e9754","false","null","<span style=""color: black; font-size: 48px"">N + M</span>","null","","","","resp_prompt","","","","","","","","","","","","","","","",""
"categorize-image","242","555860","0.0-4.0-1.0-1.27","ltncxj3br1jw83t","prime","5ebac91735226005282f48dd","5f60e3c0a3b16e07647b2ff9","5f61dc0390e12618dc2e9754","true","1110.4649994522333","./Stimuli/SelectedImages/SN/SN155.bmp","83","","","","test","true","N + M","83","switch","SN","SN155.bmp","remember","","92","4","prime1","left","","","",""
"html-keyboard-response","243","557862","0.0-4.0-1.0-3.27","ltncxj3br1jw83t","prime","5ebac91735226005282f48dd","5f60e3c0a3b16e07647b2ff9","5f61dc0390e12618dc2e9754","false","null","<div style=""align-items: center; display: flex; color: dodgerblue; font-size: 90px""><b>o</b></div>","null","","","","forget_cue","","","","","","","","","","","","","","","",""
"html-keyboard-response","244","558563","0.0-4.0-1.0-0.28","ltncxj3br1jw83t","prime","5ebac91735226005282f48dd","5f60e3c0a3b16e07647b2ff9","5f61dc0390e12618dc2e9754","false","null","<span style=""color: black; font-size: 48px"">M + N</span>","null","","","","resp_prompt","","","","","","","","","","","","","","","",""
"categorize-image","245","559697","0.0-4.0-1.0-1.28","ltncxj3br1jw83t","prime","5ebac91735226005282f48dd","5f60e3c0a3b16e07647b2ff9","5f61dc0390e12618dc2e9754","true","1131.509999744594","./Stimuli/SelectedImages/LN/LN149.bmp","83","","","","test","false","M + N","76","switch","LN","LN149.bmp","forget","","93","4","prime1","left","","","",""
