"trial_type","trial_index","time_elapsed","internal_node_id","subject","exp_part","prolific_PID","study_ID","session_ID","use","rt","stimulus","key_press","button_pressed","responses","question_order","trial_part","correct","resp_map","correct_resp","probe_condition","category","image","forget_condition","list","trial_num","block_num","block","response","test_part","n_span","sequence","num_spaces"
"pavlovia","0","4","0.0-0.0","uxlvwmjk9xgp2uy","","5f4bd5af6591fd0a0899594f","5f60e3c0a3b16e07647b2ff9","5f60f5226d9e1a02137c8b4c","false","","","","","","","","","","","","","","","","","","","","","","",""
"html-keyboard-response","1","18375","0.0-1.0-0.0-0.0","uxlvwmjk9xgp2uy","welcome","5f4bd5af6591fd0a0899594f","5f60e3c0a3b16e07647b2ff9","5f60f5226d9e1a02137c8b4c","false","18369.234999991022","<div align=left>Dear participant, <br> thank you for participating in an online study of the Cognition, Action, and Sustainability Unit of the University of Freiburg! <br> <br>The aim of this study is to examine our ability to remember previously learned information. <br>Our goal is to find out, whether our memory improves, when we only remember information that is relevant to us. <br>The experiment will take about 35 minutes to complete. <br> <br>Please, note that you can only participate in this study if you are using a device with a keyboard (PC, Laptop etc.) <br>and not if you are using a mobile device such as a tablet or smartphone.<br> <br>Press 'SPACE' to proceed to the experiment. </div>","32","","","","","","","","","","","","","","","","","","","",""
"html-keyboard-response","2","37533","0.0-1.0-0.0-1.0","uxlvwmjk9xgp2uy","welcome","5f4bd5af6591fd0a0899594f","5f60e3c0a3b16e07647b2ff9","5f60f5226d9e1a02137c8b4c","false","19158.204999985173","<div align=left><strong> Time Course of this experiment: </strong> <br><br> <strong> 1.</strong>  First, please fill in some information regarding your demographic data. <br><br> <strong> 2.</strong>  Next, your task will be to classify everyday objects. <br>In addition, you will be asked to remember certain objects and recall them later. <br>Working on these tasks requires your undivided attention and concentration.<br>It is therefore essential that you eliminate any sources of distraction in your  <br>environment and ensure that you will not be disturbed. <br><br><strong> 3.</strong>  At the end of the experiment, you will be asked to answer a few additional questions. <br> <br><strong> Important:</strong> After finishing the experiment, only close the browser window <br> by clicking on the 'end the experiment'-button when you are asked to do so. <br>Closing the browser window prematurely will make the allocation of your participation credit impossible. <br><br> Press 'SPACE' to start the experiment. </div>","32","","","","","","","","","","","","","","","","","","","",""
"html-button-response","3","42981","0.0-1.0-0.0-2.0","uxlvwmjk9xgp2uy","welcome","5f4bd5af6591fd0a0899594f","5f60e3c0a3b16e07647b2ff9","5f60f5226d9e1a02137c8b4c","true","5446.560000069439","<div align=left><strong> Informed consent </strong>  <br>The aim of our research is to better understand human behavior and mental processes. <br>In the following study your behavior (e.g. choices, reaction times) will be studied. <br> <br><strong> Voluntariness and Anonymity </strong> <br>Your participation in this study is  <strong> voluntary</strong>.<br>You may withdraw your consent to participate at any time without providing a reason for doing so and without fear of prejudice. <br><br>As no personal data will be collected, <strong>your data and your person cannot be connected after data collection</strong> – the data-set is anonymous. <br>Respectively, deletion of your data will not be possible after data collection has been completed, as we cannot retrace your data-set.<br>The results and anonymized data collected in this study will be published as a scientific publication. <br>This will happen in an <strong>anonymized format</strong>, so that no data can be traced back to a specific person. <br> <br>The anonymized data of this study will be made available to other researchers and/or in a data archive on the Internet as a means of transparency and to enable subsequent re-use. By doing so, this study follows the recommendations of the Deutsche Forschungsgemeinschaft (DFG, German Research Foundation) and Deutsche Gesellschaft für Psychologie (DGPS, German Psychological Society) regarding quality assurance in research.<br>If you have any questions now or after the experiment, please contact our team (experiments@cs.uni-freiburg.de).<br><br><br>I hereby declare, that I understand the above described conditions of participation and I agree to participate under these conditions. <br><br> </div>","","0","","","","","","","","","","","","","","","","","","",""
"html-keyboard-response","4","60164","0.0-1.0-0.0-3.0","uxlvwmjk9xgp2uy","welcome","5f4bd5af6591fd0a0899594f","5f60e3c0a3b16e07647b2ff9","5f60f5226d9e1a02137c8b4c","false","17182.205000077374","<div align=left><strong> General information concerning the experiment </strong>  <br> <br>Please follow the instructions:<ol> <li><strong> Do not leave this tab (your browser window) during the experiment and do not reload this tab! </strong>  <br>If you do switch tabs/windows during the experiment (to check your mail or visit another website, for example), <br>the experiment will end automatically and you will <strong>not receive credit</strong> for your participation. <br>Repeated participation or resumption of the experiment is impossible.</li> <br><li>Please close all other programs for the duration of your participation. </li> <br><li>Please mute or turn off your phone and put it out of your reach. </li> <br><li>Please also take off any disturbing accessories (such as wristwatches, bracelets, etc.). </li> <br><li>If you have music playing in the background, please turn it off now. </li> <br></ol>Thank you! <br>Press 'SPACE' to continue. </div>","32","","","","","","","","","","","","","","","","","","","",""
"survey-text","5","64045","0.0-1.0-1.0-0.0","uxlvwmjk9xgp2uy","demographics","5f4bd5af6591fd0a0899594f","5f60e3c0a3b16e07647b2ff9","5f60f5226d9e1a02137c8b4c","true","3877.9250000370666","","","","{""age"":""23""}","","","","","","","","","","","","","","","","","",""
"survey-multi-choice","6","92236","0.0-1.0-1.0-1.0","uxlvwmjk9xgp2uy","demographics","5f4bd5af6591fd0a0899594f","5f60e3c0a3b16e07647b2ff9","5f60f5226d9e1a02137c8b4c","true","28189.47000009939","","","","{""gender"":""male"",""school"":""high school"",""education"":""Completed university degree or equivalent""}","[0,1,2]","","","","","","","","","","","","","","","","",""
"html-keyboard-response","7","110787","0.0-1.0-2.0","uxlvwmjk9xgp2uy","instructions","5f4bd5af6591fd0a0899594f","5f60e3c0a3b16e07647b2ff9","5f60f5226d9e1a02137c8b4c","false","18549.98000001069","<div align=left> The experiment is now about to start: <br> <br>In the following part, you will be presented pictures of everyday objects. <br>Your first task is to <strong>classify these objects. </strong> <br> <br> You will classify them either as mechanical or non-mechanical objects. <br> <br>Objects that include any kind of technical mechanism (for example, wheels, switches, levers, <br> electronic components) fall under the category of <strong>mechanical</strong> objects. <br>Only objects without any kind of technical mechanism should be classified as <strong>non-mechanical</strong>. <br><br>Press 'SPACE' to continue. </div>","32","","","","","","","","","","","","","","","","","","","",""
"html-keyboard-response","8","160473","0.0-2.0-0.0","uxlvwmjk9xgp2uy","instructions","5f4bd5af6591fd0a0899594f","5f60e3c0a3b16e07647b2ff9","5f60f5226d9e1a02137c8b4c","false","49686.94499996491","<div align=justify>You will classify the objects using the <strong>'S'</strong> and the <strong>'L'</strong> keys on your keyboard.<br>For doing so, please place your <strong>left index finger</strong> on the <strong>'S'</strong> key and place your <strong>right index finger</strong> on the <strong>'L'</strong> key. <br><br> Each trial starts with an instruction, indicating which key ('S'/'L') you need to press to classify <br>the object as mechanical (letter M) or non-mechanical (letter N).<br>The instruction <strong>M + N</strong> indicates that, in the current trial, by pressing the left key ('S') you classify the displayed object as mechanical (M) <br> and by pressing the right key ('L') you classify the object as non-mechanical (N). <br>The instruction <strong>N + M</strong> on the other hand indicates that by pressing the left key ('S') you classify the displayed object as non-mechanical (N) <br> and by pressing the right key ('L') you classify the object as mechanical (M). <br><br>Please press the key corresponding to the correct classification as fast as possible as soon as the object is displayed and try to avoid making mistakes.<br>If you do not respond within a 2 second window, a corresponding feedback will be displayed and the next trial will start.<br> The experiment is divided into multiple blocks to give you the opportunity to take a break after each block. <br>First, you can now practice this task. <br><br>Please place your <strong>LEFT INDEX FINGER</strong> on the 'S' key and your <strong>RIGHT INDEX FINGER</strong> on the 'L' key now. <br><br>Press SPACE to continue.</div>","32","","","","","","","","","","","","","","","","","","","",""
"html-keyboard-response","9","169560","0.0-2.0-1.0","uxlvwmjk9xgp2uy","instructions","5f4bd5af6591fd0a0899594f","5f60e3c0a3b16e07647b2ff9","5f60f5226d9e1a02137c8b4c","false","9086.32000000216","<div align=left> You will now have time to practice this task.<br><br>Remember: <br> <br><li>Please place your index fingers on the <strong>'S'</strong> and <strong>'L'</strong> keys <br>to respond as fast and accurately as possible.</li><li>Every picture can be classified as either mechanical or non-mechanical.</li><li>If you do not respond in time or commit an error, you will receive a corresponding feedback. </li><li> Please try to respond as <strong> fast </strong> and as <strong> accurately as possible </strong> .<br><li>To ensure optimal results, please minimize distractions and stay focused. </li><br><br>Press SPACE to continue.</div>","32","","","","","","","","","","","","","","","","","","","",""
"html-keyboard-response","10","170266","0.0-2.0-2.0-0.0","uxlvwmjk9xgp2uy","practice_no_cue","5f4bd5af6591fd0a0899594f","5f60e3c0a3b16e07647b2ff9","5f60f5226d9e1a02137c8b4c","false","null","<span style=""color: black; font-size: 48px"">M + N</span>","null","","","","resp_prompt","","","","","","","","","","","","","","","",""
"categorize-image","11","171929","0.0-2.0-2.0-1.0","uxlvwmjk9xgp2uy","practice_no_cue","5f4bd5af6591fd0a0899594f","5f60e3c0a3b16e07647b2ff9","5f60f5226d9e1a02137c8b4c","true","1156.3299999106675","./Stimuli/ImagesPractice/SM97.jpg","83","","","","test","true","M + N","83","","SM","SM97.jpg","remember","old","1","1","start","left","","","",""
"html-keyboard-response","12","172635","0.0-2.0-2.0-0.1","uxlvwmjk9xgp2uy","practice_no_cue","5f4bd5af6591fd0a0899594f","5f60e3c0a3b16e07647b2ff9","5f60f5226d9e1a02137c8b4c","false","null","<span style=""color: black; font-size: 48px"">N + M</span>","null","","","","resp_prompt","","","","","","","","","","","","","","","",""
"categorize-image","13","174269","0.0-2.0-2.0-1.1","uxlvwmjk9xgp2uy","practice_no_cue","5f4bd5af6591fd0a0899594f","5f60e3c0a3b16e07647b2ff9","5f60f5226d9e1a02137c8b4c","true","1131.760000018403","./Stimuli/ImagesPractice/SN221.jpg","83","","","","test","true","N + M","83","","SN","SN221.jpg","forget","old","2","1","start","left","","","",""
"html-keyboard-response","14","174976","0.0-2.0-2.0-0.2","uxlvwmjk9xgp2uy","practice_no_cue","5f4bd5af6591fd0a0899594f","5f60e3c0a3b16e07647b2ff9","5f60f5226d9e1a02137c8b4c","false","null","<span style=""color: black; font-size: 48px"">N + M</span>","null","","","","resp_prompt","","","","","","","","","","","","","","","",""
"categorize-image","15","176824","0.0-2.0-2.0-1.2","uxlvwmjk9xgp2uy","practice_no_cue","5f4bd5af6591fd0a0899594f","5f60e3c0a3b16e07647b2ff9","5f60f5226d9e1a02137c8b4c","true","1342.57500001695","./Stimuli/ImagesPractice/SN76.jpg","83","","","","test","true","N + M","83","","SN","SN76.jpg","forget","old","3","1","start","left","","","",""
"html-keyboard-response","16","177530","0.0-2.0-2.0-0.3","uxlvwmjk9xgp2uy","practice_no_cue","5f4bd5af6591fd0a0899594f","5f60e3c0a3b16e07647b2ff9","5f60f5226d9e1a02137c8b4c","false","null","<span style=""color: black; font-size: 48px"">M + N</span>","null","","","","resp_prompt","","","","","","","","","","","","","","","",""
"categorize-image","17","178928","0.0-2.0-2.0-1.3","uxlvwmjk9xgp2uy","practice_no_cue","5f4bd5af6591fd0a0899594f","5f60e3c0a3b16e07647b2ff9","5f60f5226d9e1a02137c8b4c","true","892.7099999273196","./Stimuli/ImagesPractice/SN222.jpg","76","","","","test","true","M + N","76","","SN","SN222.jpg","remember","old","4","1","start","right","","","",""
"html-keyboard-response","18","179634","0.0-2.0-2.0-0.4","uxlvwmjk9xgp2uy","practice_no_cue","5f4bd5af6591fd0a0899594f","5f60e3c0a3b16e07647b2ff9","5f60f5226d9e1a02137c8b4c","false","null","<span style=""color: black; font-size: 48px"">M + N</span>","null","","","","resp_prompt","","","","","","","","","","","","","","","",""
"categorize-image","19","180992","0.0-2.0-2.0-1.4","uxlvwmjk9xgp2uy","practice_no_cue","5f4bd5af6591fd0a0899594f","5f60e3c0a3b16e07647b2ff9","5f60f5226d9e1a02137c8b4c","true","851.630000048317","./Stimuli/ImagesPractice/LM143.jpg","83","","","","test","true","M + N","83","","LM","LM143.jpg","forget","old","5","1","start","left","","","",""
"html-keyboard-response","20","181698","0.0-2.0-2.0-0.5","uxlvwmjk9xgp2uy","practice_no_cue","5f4bd5af6591fd0a0899594f","5f60e3c0a3b16e07647b2ff9","5f60f5226d9e1a02137c8b4c","false","null","<span style=""color: black; font-size: 48px"">N + M</span>","null","","","","resp_prompt","","","","","","","","","","","","","","","",""
"categorize-image","21","183257","0.0-2.0-2.0-1.5","uxlvwmjk9xgp2uy","practice_no_cue","5f4bd5af6591fd0a0899594f","5f60e3c0a3b16e07647b2ff9","5f60f5226d9e1a02137c8b4c","true","1052.750000031665","./Stimuli/ImagesPractice/SM37.jpg","76","","","","test","true","N + M","76","","SM","SM37.jpg","forget","old","6","1","start","right","","","",""
"html-keyboard-response","22","183963","0.0-2.0-2.0-0.6","uxlvwmjk9xgp2uy","practice_no_cue","5f4bd5af6591fd0a0899594f","5f60e3c0a3b16e07647b2ff9","5f60f5226d9e1a02137c8b4c","false","null","<span style=""color: black; font-size: 48px"">N + M</span>","null","","","","resp_prompt","","","","","","","","","","","","","","","",""
"categorize-image","23","185928","0.0-2.0-2.0-1.6","uxlvwmjk9xgp2uy","practice_no_cue","5f4bd5af6591fd0a0899594f","5f60e3c0a3b16e07647b2ff9","5f60f5226d9e1a02137c8b4c","true","1459.580000024289","./Stimuli/ImagesPractice/LN4.jpg","76","","","","test","false","N + M","83","","LN","LN4.jpg","remember","old","7","1","start","right","","","",""
"html-keyboard-response","24","186634","0.0-2.0-2.0-0.7","uxlvwmjk9xgp2uy","practice_no_cue","5f4bd5af6591fd0a0899594f","5f60e3c0a3b16e07647b2ff9","5f60f5226d9e1a02137c8b4c","false","null","<span style=""color: black; font-size: 48px"">N + M</span>","null","","","","resp_prompt","","","","","","","","","","","","","","","",""
"categorize-image","25","188024","0.0-2.0-2.0-1.7","uxlvwmjk9xgp2uy","practice_no_cue","5f4bd5af6591fd0a0899594f","5f60e3c0a3b16e07647b2ff9","5f60f5226d9e1a02137c8b4c","true","883.9900000020862","./Stimuli/ImagesPractice/LN72.jpg","83","","","","test","true","N + M","83","","LN","LN72.jpg","forget","old","8","1","start","left","","","",""
"html-keyboard-response","26","188730","0.0-2.0-2.0-0.8","uxlvwmjk9xgp2uy","practice_no_cue","5f4bd5af6591fd0a0899594f","5f60e3c0a3b16e07647b2ff9","5f60f5226d9e1a02137c8b4c","false","null","<span style=""color: black; font-size: 48px"">M + N</span>","null","","","","resp_prompt","","","","","","","","","","","","","","","",""
"categorize-image","27","190112","0.0-2.0-2.0-1.8","uxlvwmjk9xgp2uy","practice_no_cue","5f4bd5af6591fd0a0899594f","5f60e3c0a3b16e07647b2ff9","5f60f5226d9e1a02137c8b4c","true","875.594999990426","./Stimuli/ImagesPractice/SN220.jpg","76","","","","test","true","M + N","76","","SN","SN220.jpg","remember","old","9","1","start","right","","","",""
"html-keyboard-response","28","190818","0.0-2.0-2.0-0.9","uxlvwmjk9xgp2uy","practice_no_cue","5f4bd5af6591fd0a0899594f","5f60e3c0a3b16e07647b2ff9","5f60f5226d9e1a02137c8b4c","false","null","<span style=""color: black; font-size: 48px"">N + M</span>","null","","","","resp_prompt","","","","","","","","","","","","","","","",""
"categorize-image","29","192463","0.0-2.0-2.0-1.9","uxlvwmjk9xgp2uy","practice_no_cue","5f4bd5af6591fd0a0899594f","5f60e3c0a3b16e07647b2ff9","5f60f5226d9e1a02137c8b4c","true","1140.1799999875948","./Stimuli/ImagesPractice/LM239.jpg","76","","","","test","true","N + M","76","","LM","LM239.jpg","remember","old","10","1","start","right","","","",""
"html-keyboard-response","30","193169","0.0-2.0-2.0-0.10","uxlvwmjk9xgp2uy","practice_no_cue","5f4bd5af6591fd0a0899594f","5f60e3c0a3b16e07647b2ff9","5f60f5226d9e1a02137c8b4c","false","null","<span style=""color: black; font-size: 48px"">M + N</span>","null","","","","resp_prompt","","","","","","","","","","","","","","","",""
"categorize-image","31","194496","0.0-2.0-2.0-1.10","uxlvwmjk9xgp2uy","practice_no_cue","5f4bd5af6591fd0a0899594f","5f60e3c0a3b16e07647b2ff9","5f60f5226d9e1a02137c8b4c","true","821.2449999991804","./Stimuli/ImagesPractice/LM55.jpg","83","","","","test","true","M + N","83","","LM","LM55.jpg","forget","old","11","1","start","left","","","",""
"html-keyboard-response","32","195202","0.0-2.0-2.0-0.11","uxlvwmjk9xgp2uy","practice_no_cue","5f4bd5af6591fd0a0899594f","5f60e3c0a3b16e07647b2ff9","5f60f5226d9e1a02137c8b4c","false","null","<span style=""color: black; font-size: 48px"">M + N</span>","null","","","","resp_prompt","","","","","","","","","","","","","","","",""
"categorize-image","33","196712","0.0-2.0-2.0-1.11","uxlvwmjk9xgp2uy","practice_no_cue","5f4bd5af6591fd0a0899594f","5f60e3c0a3b16e07647b2ff9","5f60f5226d9e1a02137c8b4c","true","1003.6400000099093","./Stimuli/ImagesPractice/SN205.jpg","76","","","","test","true","M + N","76","","SN","SN205.jpg","remember","old","12","1","start","right","","","",""
"html-keyboard-response","34","197417","0.0-2.0-2.0-0.12","uxlvwmjk9xgp2uy","practice_no_cue","5f4bd5af6591fd0a0899594f","5f60e3c0a3b16e07647b2ff9","5f60f5226d9e1a02137c8b4c","false","null","<span style=""color: black; font-size: 48px"">M + N</span>","null","","","","resp_prompt","","","","","","","","","","","","","","","",""
"categorize-image","35","198680","0.0-2.0-2.0-1.12","uxlvwmjk9xgp2uy","practice_no_cue","5f4bd5af6591fd0a0899594f","5f60e3c0a3b16e07647b2ff9","5f60f5226d9e1a02137c8b4c","true","756.1599999899045","./Stimuli/ImagesPractice/LM147.jpg","83","","","","test","true","M + N","83","","LM","LM147.jpg","forget","old","13","1","start","left","","","",""
"html-keyboard-response","36","199385","0.0-2.0-2.0-0.13","uxlvwmjk9xgp2uy","practice_no_cue","5f4bd5af6591fd0a0899594f","5f60e3c0a3b16e07647b2ff9","5f60f5226d9e1a02137c8b4c","false","null","<span style=""color: black; font-size: 48px"">N + M</span>","null","","","","resp_prompt","","","","","","","","","","","","","","","",""
"categorize-image","37","200821","0.0-2.0-2.0-1.13","uxlvwmjk9xgp2uy","practice_no_cue","5f4bd5af6591fd0a0899594f","5f60e3c0a3b16e07647b2ff9","5f60f5226d9e1a02137c8b4c","true","932.0550000993535","./Stimuli/ImagesPractice/LN109.jpg","83","","","","test","true","N + M","83","","LN","LN109.jpg","remember","old","14","1","start","left","","","",""
"html-keyboard-response","38","201523","0.0-2.0-2.0-0.14","uxlvwmjk9xgp2uy","practice_no_cue","5f4bd5af6591fd0a0899594f","5f60e3c0a3b16e07647b2ff9","5f60f5226d9e1a02137c8b4c","false","null","<span style=""color: black; font-size: 48px"">M + N</span>","null","","","","resp_prompt","","","","","","","","","","","","","","","",""
"categorize-image","39","202974","0.0-2.0-2.0-1.14","uxlvwmjk9xgp2uy","practice_no_cue","5f4bd5af6591fd0a0899594f","5f60e3c0a3b16e07647b2ff9","5f60f5226d9e1a02137c8b4c","true","946.1149999406189","./Stimuli/ImagesPractice/LM224.jpg","83","","","","test","true","M + N","83","","LM","LM224.jpg","forget","old","15","1","start","left","","","",""
"html-keyboard-response","40","203679","0.0-2.0-2.0-0.15","uxlvwmjk9xgp2uy","practice_no_cue","5f4bd5af6591fd0a0899594f","5f60e3c0a3b16e07647b2ff9","5f60f5226d9e1a02137c8b4c","false","null","<span style=""color: black; font-size: 48px"">N + M</span>","null","","","","resp_prompt","","","","","","","","","","","","","","","",""
"categorize-image","41","204992","0.0-2.0-2.0-1.15","uxlvwmjk9xgp2uy","practice_no_cue","5f4bd5af6591fd0a0899594f","5f60e3c0a3b16e07647b2ff9","5f60f5226d9e1a02137c8b4c","true","806.80499994196","./Stimuli/ImagesPractice/SN75.jpg","83","","","","test","true","N + M","83","","SN","SN75.jpg","remember","old","16","1","start","left","","","",""
"html-keyboard-response","42","211622","0.0-2.0-3.0","uxlvwmjk9xgp2uy","break","5f4bd5af6591fd0a0899594f","5f60e3c0a3b16e07647b2ff9","5f60f5226d9e1a02137c8b4c","false","6629.249999998137","<p style='font-size: 32px;'>Break</><br><br><br><br><br><p style='font-size: 24px;'>In the last block, you committed 1 errors and did not respond in time on 0 trials.
</p><p style='font-size: 24px;'>Try to respond as fast and accurately as possible in the next block as well! </p><p style='font-size: 24px;'>Press SPACE to continue.</p>","32","","","","","","","","","","","","","","","","","","","",""
"html-keyboard-response","43","216070","0.0-2.0-4.0","uxlvwmjk9xgp2uy","instructions","5f4bd5af6591fd0a0899594f","5f60e3c0a3b16e07647b2ff9","5f60f5226d9e1a02137c8b4c","false","4447.464999975637","<div align=left> Great!<br><br>Are you ready to continue?<br><br>If you want to reread the instructions and redo the practice trials, <br>please press „Z“. <br><br>Press SPACE to CONTINUE with the experiment when you are ready. </div>","32","","","","","","","","","","","","","","","","","","","",""
"html-keyboard-response","44","245949","0.0-3.0-0.0","uxlvwmjk9xgp2uy","instructions","5f4bd5af6591fd0a0899594f","5f60e3c0a3b16e07647b2ff9","5f60f5226d9e1a02137c8b4c","false","29879.039999912493","<div align=left>Great!<br> <strong>Attention</strong>! You will now receive a second, additional task! <br><br>To this point it was you <strong>first task</strong> to correctly <strong>classify objects</strong>. <br><br>As mentioned in the beginning, we aim to examine how well humans can remember previously learned information.<br>We would like to find out whether our memory improves if we only remember information that is relevant to us. <br><br>Therefore, your <strong>second task</strong> will be to <strong>remember</strong> the pictures you are to categorize. <br> After the learning phase, there will be a memory test phase, in which you will be asked to indicate whether you have seen a picture before or not. <br>Some, but not all pictures shown in the learning phase will appear in the memory test phase.<br>After classifying a picture, you will be told whether you should remember it for the memory test phase or not. <br>Thus, some pictures can be forgotten, whereas others have to be remembered. <br><br>Note: From now on, feedback will only be displayed if you responded incorrectly or not in time.<br><br>Press SPACE to continue.</div>","32","","","","","","","","","","","","","","","","","","","",""
"html-keyboard-response","45","265421","0.0-3.0-1.0","uxlvwmjk9xgp2uy","instructions","5f4bd5af6591fd0a0899594f","5f60e3c0a3b16e07647b2ff9","5f60f5226d9e1a02137c8b4c","false","19471.06500004884","<div align=left>In the following part, you will thus have to remember only some pictures. <br>Immediately after seeing and classifying the picture, a symbol will be displayed, indicating whether you should remember or forget the previous picture. <br><br>A <span style='color: dodgerblue; font-size: 28px'>O</span> indicates REMEMBER. That means, you have to remember this picture, because it will be tested later. <br><br>A <span style='color: darkorange; font-size:28px'>Ø</span> indicates FORGET. You do not have to remember this picture. <br><br> As you will have to remember a lot of pictures, it will be hard for you to remember all of them. <br>It will put you at an advantage if you instantly forget the pictures you are not asked to remember. <br> This will make it easier for you to remember the pictures that will be tested afterwards. <br><br>Press SPACE to continue.</div>","32","","","","","","","","","","","","","","","","","","","",""
"html-keyboard-response","46","270684","0.0-3.0-2.0","uxlvwmjk9xgp2uy","instructions","5f4bd5af6591fd0a0899594f","5f60e3c0a3b16e07647b2ff9","5f60f5226d9e1a02137c8b4c","false","5262.449999921955","<div align=left> Now you have the chance to practice both tasks together.<br><br>Remember: <br> <br><li>Please place your index fingers on the <strong>'S'</strong> and <strong>'L'</strong> keys <br>to respond as fast and accurately as possible.</li><li>Every picture can be classified as either mechanical or non-mechanical.</li><li>If you do not respond in time or commit an error, you will receive a corresponding feedback. <br>Please try to respond as <strong> fast </strong> and as <strong> accurately as possible </strong>.</li><li> Please remember only the to-be-remembered <span style='color: dodgerblue; font-size: 28px'>O</span> pictures. <br></li><li> Please minimize distractions and stay focused. </li><br><br>Press SPACE to START</div>","32","","","","","","","","","","","","","","","","","","","",""
"html-keyboard-response","47","271386","0.0-3.0-3.0-0.0","uxlvwmjk9xgp2uy","practice_cue","5f4bd5af6591fd0a0899594f","5f60e3c0a3b16e07647b2ff9","5f60f5226d9e1a02137c8b4c","false","null","<span style=""color: black; font-size: 48px"">M + N</span>","null","","","","resp_prompt","","","","","","","","","","","","","","","",""
"categorize-image","48","272341","0.0-3.0-3.0-1.0","uxlvwmjk9xgp2uy","practice_cue","5f4bd5af6591fd0a0899594f","5f60e3c0a3b16e07647b2ff9","5f60f5226d9e1a02137c8b4c","true","952.0049999700859","./Stimuli/ImagesPractice/SN222.jpg","76","","","","test","true","M + N","76","","SN","SN222.jpg","remember","old","17","2","practice_forget","right","","","",""
"html-keyboard-response","49","274343","0.0-3.0-3.0-3.0","uxlvwmjk9xgp2uy","practice_cue","5f4bd5af6591fd0a0899594f","5f60e3c0a3b16e07647b2ff9","5f60f5226d9e1a02137c8b4c","false","null","<div style=""align-items: center; display: flex; color: dodgerblue; font-size: 90px""><b>o</b></div>","null","","","","forget_cue","","","","","","","","","","","","","","","",""
"html-keyboard-response","50","275047","0.0-3.0-3.0-0.1","uxlvwmjk9xgp2uy","practice_cue","5f4bd5af6591fd0a0899594f","5f60e3c0a3b16e07647b2ff9","5f60f5226d9e1a02137c8b4c","false","null","<span style=""color: black; font-size: 48px"">M + N</span>","null","","","","resp_prompt","","","","","","","","","","","","","","","",""
"categorize-image","51","275806","0.0-3.0-3.0-1.1","uxlvwmjk9xgp2uy","practice_cue","5f4bd5af6591fd0a0899594f","5f60e3c0a3b16e07647b2ff9","5f60f5226d9e1a02137c8b4c","true","756.180000025779","./Stimuli/ImagesPractice/LM224.jpg","83","","","","test","true","M + N","83","","LM","LM224.jpg","forget","old","18","2","practice_forget","left","","","",""
"html-keyboard-response","52","277811","0.0-3.0-3.0-3.1","uxlvwmjk9xgp2uy","practice_cue","5f4bd5af6591fd0a0899594f","5f60e3c0a3b16e07647b2ff9","5f60f5226d9e1a02137c8b4c","false","null","<div style=""align-items: center; display: flex; color: darkorange; font-size: 90px""><b>ø</b></div>","null","","","","forget_cue","","","","","","","","","","","","","","","",""
"html-keyboard-response","53","278517","0.0-3.0-3.0-0.2","uxlvwmjk9xgp2uy","practice_cue","5f4bd5af6591fd0a0899594f","5f60e3c0a3b16e07647b2ff9","5f60f5226d9e1a02137c8b4c","false","null","<span style=""color: black; font-size: 48px"">M + N</span>","null","","","","resp_prompt","","","","","","","","","","","","","","","",""
"categorize-image","54","279165","0.0-3.0-3.0-1.2","uxlvwmjk9xgp2uy","practice_cue","5f4bd5af6591fd0a0899594f","5f60e3c0a3b16e07647b2ff9","5f60f5226d9e1a02137c8b4c","true","645.1349999988452","./Stimuli/ImagesPractice/LM143.jpg","83","","","","test","true","M + N","83","","LM","LM143.jpg","forget","old","19","2","practice_forget","left","","","",""
"html-keyboard-response","55","281167","0.0-3.0-3.0-3.2","uxlvwmjk9xgp2uy","practice_cue","5f4bd5af6591fd0a0899594f","5f60e3c0a3b16e07647b2ff9","5f60f5226d9e1a02137c8b4c","false","null","<div style=""align-items: center; display: flex; color: darkorange; font-size: 90px""><b>ø</b></div>","null","","","","forget_cue","","","","","","","","","","","","","","","",""
"html-keyboard-response","56","281873","0.0-3.0-3.0-0.3","uxlvwmjk9xgp2uy","practice_cue","5f4bd5af6591fd0a0899594f","5f60e3c0a3b16e07647b2ff9","5f60f5226d9e1a02137c8b4c","false","null","<span style=""color: black; font-size: 48px"">N + M</span>","null","","","","resp_prompt","","","","","","","","","","","","","","","",""
"categorize-image","57","283005","0.0-3.0-3.0-1.3","uxlvwmjk9xgp2uy","practice_cue","5f4bd5af6591fd0a0899594f","5f60e3c0a3b16e07647b2ff9","5f60f5226d9e1a02137c8b4c","true","1129.6400000574067","./Stimuli/ImagesPractice/LN4.jpg","83","","","","test","true","N + M","83","","LN","LN4.jpg","remember","old","20","2","practice_forget","left","","","",""
"html-keyboard-response","58","285007","0.0-3.0-3.0-3.3","uxlvwmjk9xgp2uy","practice_cue","5f4bd5af6591fd0a0899594f","5f60e3c0a3b16e07647b2ff9","5f60f5226d9e1a02137c8b4c","false","null","<div style=""align-items: center; display: flex; color: dodgerblue; font-size: 90px""><b>o</b></div>","null","","","","forget_cue","","","","","","","","","","","","","","","",""
"html-keyboard-response","59","285707","0.0-3.0-3.0-0.4","uxlvwmjk9xgp2uy","practice_cue","5f4bd5af6591fd0a0899594f","5f60e3c0a3b16e07647b2ff9","5f60f5226d9e1a02137c8b4c","false","null","<span style=""color: black; font-size: 48px"">M + N</span>","null","","","","resp_prompt","","","","","","","","","","","","","","","",""
"categorize-image","60","286533","0.0-3.0-3.0-1.4","uxlvwmjk9xgp2uy","practice_cue","5f4bd5af6591fd0a0899594f","5f60e3c0a3b16e07647b2ff9","5f60f5226d9e1a02137c8b4c","true","823.1849999865517","./Stimuli/ImagesPractice/SM97.jpg","83","","","","test","true","M + N","83","","SM","SM97.jpg","remember","old","21","2","practice_forget","left","","","",""
"html-keyboard-response","61","288539","0.0-3.0-3.0-3.4","uxlvwmjk9xgp2uy","practice_cue","5f4bd5af6591fd0a0899594f","5f60e3c0a3b16e07647b2ff9","5f60f5226d9e1a02137c8b4c","false","null","<div style=""align-items: center; display: flex; color: dodgerblue; font-size: 90px""><b>o</b></div>","null","","","","forget_cue","","","","","","","","","","","","","","","",""
"html-keyboard-response","62","289245","0.0-3.0-3.0-0.5","uxlvwmjk9xgp2uy","practice_cue","5f4bd5af6591fd0a0899594f","5f60e3c0a3b16e07647b2ff9","5f60f5226d9e1a02137c8b4c","false","null","<span style=""color: black; font-size: 48px"">M + N</span>","null","","","","resp_prompt","","","","","","","","","","","","","","","",""
"categorize-image","63","290045","0.0-3.0-3.0-1.5","uxlvwmjk9xgp2uy","practice_cue","5f4bd5af6591fd0a0899594f","5f60e3c0a3b16e07647b2ff9","5f60f5226d9e1a02137c8b4c","true","797.1599999582395","./Stimuli/ImagesPractice/SN205.jpg","76","","","","test","true","M + N","76","","SN","SN205.jpg","remember","old","22","2","practice_forget","right","","","",""
"html-keyboard-response","64","292045","0.0-3.0-3.0-3.5","uxlvwmjk9xgp2uy","practice_cue","5f4bd5af6591fd0a0899594f","5f60e3c0a3b16e07647b2ff9","5f60f5226d9e1a02137c8b4c","false","null","<div style=""align-items: center; display: flex; color: dodgerblue; font-size: 90px""><b>o</b></div>","null","","","","forget_cue","","","","","","","","","","","","","","","",""
"html-keyboard-response","65","292751","0.0-3.0-3.0-0.6","uxlvwmjk9xgp2uy","practice_cue","5f4bd5af6591fd0a0899594f","5f60e3c0a3b16e07647b2ff9","5f60f5226d9e1a02137c8b4c","false","null","<span style=""color: black; font-size: 48px"">N + M</span>","null","","","","resp_prompt","","","","","","","","","","","","","","","",""
"categorize-image","66","293413","0.0-3.0-3.0-1.6","uxlvwmjk9xgp2uy","practice_cue","5f4bd5af6591fd0a0899594f","5f60e3c0a3b16e07647b2ff9","5f60f5226d9e1a02137c8b4c","true","658.4250000305474","./Stimuli/ImagesPractice/SN221.jpg","83","","","","test","true","N + M","83","","SN","SN221.jpg","forget","old","23","2","practice_forget","left","","","",""
"html-keyboard-response","67","295418","0.0-3.0-3.0-3.6","uxlvwmjk9xgp2uy","practice_cue","5f4bd5af6591fd0a0899594f","5f60e3c0a3b16e07647b2ff9","5f60f5226d9e1a02137c8b4c","false","null","<div style=""align-items: center; display: flex; color: darkorange; font-size: 90px""><b>ø</b></div>","null","","","","forget_cue","","","","","","","","","","","","","","","",""
"html-keyboard-response","68","296124","0.0-3.0-3.0-0.7","uxlvwmjk9xgp2uy","practice_cue","5f4bd5af6591fd0a0899594f","5f60e3c0a3b16e07647b2ff9","5f60f5226d9e1a02137c8b4c","false","null","<span style=""color: black; font-size: 48px"">M + N</span>","null","","","","resp_prompt","","","","","","","","","","","","","","","",""
"categorize-image","69","297061","0.0-3.0-3.0-1.7","uxlvwmjk9xgp2uy","practice_cue","5f4bd5af6591fd0a0899594f","5f60e3c0a3b16e07647b2ff9","5f60f5226d9e1a02137c8b4c","true","933.9949999703094","./Stimuli/ImagesPractice/LM55.jpg","83","","","","test","true","M + N","83","","LM","LM55.jpg","forget","old","24","2","practice_forget","left","","","",""
"html-keyboard-response","70","299065","0.0-3.0-3.0-3.7","uxlvwmjk9xgp2uy","practice_cue","5f4bd5af6591fd0a0899594f","5f60e3c0a3b16e07647b2ff9","5f60f5226d9e1a02137c8b4c","false","null","<div style=""align-items: center; display: flex; color: darkorange; font-size: 90px""><b>ø</b></div>","null","","","","forget_cue","","","","","","","","","","","","","","","",""
"html-keyboard-response","71","299771","0.0-3.0-3.0-0.8","uxlvwmjk9xgp2uy","practice_cue","5f4bd5af6591fd0a0899594f","5f60e3c0a3b16e07647b2ff9","5f60f5226d9e1a02137c8b4c","false","null","<span style=""color: black; font-size: 48px"">N + M</span>","null","","","","resp_prompt","","","","","","","","","","","","","","","",""
"categorize-image","72","300436","0.0-3.0-3.0-1.8","uxlvwmjk9xgp2uy","practice_cue","5f4bd5af6591fd0a0899594f","5f60e3c0a3b16e07647b2ff9","5f60f5226d9e1a02137c8b4c","true","662.3550000367686","./Stimuli/ImagesPractice/LN109.jpg","83","","","","test","true","N + M","83","","LN","LN109.jpg","remember","old","25","2","practice_forget","left","","","",""
"html-keyboard-response","73","302437","0.0-3.0-3.0-3.8","uxlvwmjk9xgp2uy","practice_cue","5f4bd5af6591fd0a0899594f","5f60e3c0a3b16e07647b2ff9","5f60f5226d9e1a02137c8b4c","false","null","<div style=""align-items: center; display: flex; color: dodgerblue; font-size: 90px""><b>o</b></div>","null","","","","forget_cue","","","","","","","","","","","","","","","",""
"html-keyboard-response","74","303143","0.0-3.0-3.0-0.9","uxlvwmjk9xgp2uy","practice_cue","5f4bd5af6591fd0a0899594f","5f60e3c0a3b16e07647b2ff9","5f60f5226d9e1a02137c8b4c","false","null","<span style=""color: black; font-size: 48px"">N + M</span>","null","","","","resp_prompt","","","","","","","","","","","","","","","",""
"categorize-image","75","303844","0.0-3.0-3.0-1.9","uxlvwmjk9xgp2uy","practice_cue","5f4bd5af6591fd0a0899594f","5f60e3c0a3b16e07647b2ff9","5f60f5226d9e1a02137c8b4c","true","698.6950000282377","./Stimuli/ImagesPractice/LM239.jpg","76","","","","test","true","N + M","76","","LM","LM239.jpg","remember","old","26","2","practice_forget","right","","","",""
"html-keyboard-response","76","305850","0.0-3.0-3.0-3.9","uxlvwmjk9xgp2uy","practice_cue","5f4bd5af6591fd0a0899594f","5f60e3c0a3b16e07647b2ff9","5f60f5226d9e1a02137c8b4c","false","null","<div style=""align-items: center; display: flex; color: dodgerblue; font-size: 90px""><b>o</b></div>","null","","","","forget_cue","","","","","","","","","","","","","","","",""
"html-keyboard-response","77","306556","0.0-3.0-3.0-0.10","uxlvwmjk9xgp2uy","practice_cue","5f4bd5af6591fd0a0899594f","5f60e3c0a3b16e07647b2ff9","5f60f5226d9e1a02137c8b4c","false","null","<span style=""color: black; font-size: 48px"">N + M</span>","null","","","","resp_prompt","","","","","","","","","","","","","","","",""
"categorize-image","78","307252","0.0-3.0-3.0-1.10","uxlvwmjk9xgp2uy","practice_cue","5f4bd5af6591fd0a0899594f","5f60e3c0a3b16e07647b2ff9","5f60f5226d9e1a02137c8b4c","true","693.0899999570101","./Stimuli/ImagesPractice/SN75.jpg","83","","","","test","true","N + M","83","","SN","SN75.jpg","remember","old","27","2","practice_forget","left","","","",""
"html-keyboard-response","79","309258","0.0-3.0-3.0-3.10","uxlvwmjk9xgp2uy","practice_cue","5f4bd5af6591fd0a0899594f","5f60e3c0a3b16e07647b2ff9","5f60f5226d9e1a02137c8b4c","false","null","<div style=""align-items: center; display: flex; color: dodgerblue; font-size: 90px""><b>o</b></div>","null","","","","forget_cue","","","","","","","","","","","","","","","",""
"html-keyboard-response","80","309964","0.0-3.0-3.0-0.11","uxlvwmjk9xgp2uy","practice_cue","5f4bd5af6591fd0a0899594f","5f60e3c0a3b16e07647b2ff9","5f60f5226d9e1a02137c8b4c","false","null","<span style=""color: black; font-size: 48px"">N + M</span>","null","","","","resp_prompt","","","","","","","","","","","","","","","",""
"categorize-image","81","310684","0.0-3.0-3.0-1.11","uxlvwmjk9xgp2uy","practice_cue","5f4bd5af6591fd0a0899594f","5f60e3c0a3b16e07647b2ff9","5f60f5226d9e1a02137c8b4c","true","717.3550000879914","./Stimuli/ImagesPractice/LN72.jpg","83","","","","test","true","N + M","83","","LN","LN72.jpg","forget","old","28","2","practice_forget","left","","","",""
"html-keyboard-response","82","312690","0.0-3.0-3.0-3.11","uxlvwmjk9xgp2uy","practice_cue","5f4bd5af6591fd0a0899594f","5f60e3c0a3b16e07647b2ff9","5f60f5226d9e1a02137c8b4c","false","null","<div style=""align-items: center; display: flex; color: darkorange; font-size: 90px""><b>ø</b></div>","null","","","","forget_cue","","","","","","","","","","","","","","","",""
"html-keyboard-response","83","313395","0.0-3.0-3.0-0.12","uxlvwmjk9xgp2uy","practice_cue","5f4bd5af6591fd0a0899594f","5f60e3c0a3b16e07647b2ff9","5f60f5226d9e1a02137c8b4c","false","null","<span style=""color: black; font-size: 48px"">M + N</span>","null","","","","resp_prompt","","","","","","","","","","","","","","","",""
"categorize-image","84","314076","0.0-3.0-3.0-1.12","uxlvwmjk9xgp2uy","practice_cue","5f4bd5af6591fd0a0899594f","5f60e3c0a3b16e07647b2ff9","5f60f5226d9e1a02137c8b4c","true","678.1549999723211","./Stimuli/ImagesPractice/LM147.jpg","83","","","","test","true","M + N","83","","LM","LM147.jpg","forget","old","29","2","practice_forget","left","","","",""
"html-keyboard-response","85","316081","0.0-3.0-3.0-3.12","uxlvwmjk9xgp2uy","practice_cue","5f4bd5af6591fd0a0899594f","5f60e3c0a3b16e07647b2ff9","5f60f5226d9e1a02137c8b4c","false","null","<div style=""align-items: center; display: flex; color: darkorange; font-size: 90px""><b>ø</b></div>","null","","","","forget_cue","","","","","","","","","","","","","","","",""
"html-keyboard-response","86","316786","0.0-3.0-3.0-0.13","uxlvwmjk9xgp2uy","practice_cue","5f4bd5af6591fd0a0899594f","5f60e3c0a3b16e07647b2ff9","5f60f5226d9e1a02137c8b4c","false","null","<span style=""color: black; font-size: 48px"">N + M</span>","null","","","","resp_prompt","","","","","","","","","","","","","","","",""
"categorize-image","87","317500","0.0-3.0-3.0-1.13","uxlvwmjk9xgp2uy","practice_cue","5f4bd5af6591fd0a0899594f","5f60e3c0a3b16e07647b2ff9","5f60f5226d9e1a02137c8b4c","true","711.7099999450147","./Stimuli/ImagesPractice/SN76.jpg","83","","","","test","true","N + M","83","","SN","SN76.jpg","forget","old","30","2","practice_forget","left","","","",""
"html-keyboard-response","88","319506","0.0-3.0-3.0-3.13","uxlvwmjk9xgp2uy","practice_cue","5f4bd5af6591fd0a0899594f","5f60e3c0a3b16e07647b2ff9","5f60f5226d9e1a02137c8b4c","false","null","<div style=""align-items: center; display: flex; color: darkorange; font-size: 90px""><b>ø</b></div>","null","","","","forget_cue","","","","","","","","","","","","","","","",""
"html-keyboard-response","89","320211","0.0-3.0-3.0-0.14","uxlvwmjk9xgp2uy","practice_cue","5f4bd5af6591fd0a0899594f","5f60e3c0a3b16e07647b2ff9","5f60f5226d9e1a02137c8b4c","false","null","<span style=""color: black; font-size: 48px"">M + N</span>","null","","","","resp_prompt","","","","","","","","","","","","","","","",""
"categorize-image","90","320931","0.0-3.0-3.0-1.14","uxlvwmjk9xgp2uy","practice_cue","5f4bd5af6591fd0a0899594f","5f60e3c0a3b16e07647b2ff9","5f60f5226d9e1a02137c8b4c","true","717.2649999847636","./Stimuli/ImagesPractice/SN220.jpg","76","","","","test","true","M + N","76","","SN","SN220.jpg","remember","old","31","2","practice_forget","right","","","",""
"html-keyboard-response","91","322934","0.0-3.0-3.0-3.14","uxlvwmjk9xgp2uy","practice_cue","5f4bd5af6591fd0a0899594f","5f60e3c0a3b16e07647b2ff9","5f60f5226d9e1a02137c8b4c","false","null","<div style=""align-items: center; display: flex; color: dodgerblue; font-size: 90px""><b>o</b></div>","null","","","","forget_cue","","","","","","","","","","","","","","","",""
"html-keyboard-response","92","323639","0.0-3.0-3.0-0.15","uxlvwmjk9xgp2uy","practice_cue","5f4bd5af6591fd0a0899594f","5f60e3c0a3b16e07647b2ff9","5f60f5226d9e1a02137c8b4c","false","null","<span style=""color: black; font-size: 48px"">N + M</span>","null","","","","resp_prompt","","","","","","","","","","","","","","","",""
"categorize-image","93","324483","0.0-3.0-3.0-1.15","uxlvwmjk9xgp2uy","practice_cue","5f4bd5af6591fd0a0899594f","5f60e3c0a3b16e07647b2ff9","5f60f5226d9e1a02137c8b4c","true","841.1250000353903","./Stimuli/ImagesPractice/SM37.jpg","76","","","","test","true","N + M","76","","SM","SM37.jpg","forget","old","32","2","practice_forget","right","","","",""
"html-keyboard-response","94","326485","0.0-3.0-3.0-3.15","uxlvwmjk9xgp2uy","practice_cue","5f4bd5af6591fd0a0899594f","5f60e3c0a3b16e07647b2ff9","5f60f5226d9e1a02137c8b4c","false","null","<div style=""align-items: center; display: flex; color: darkorange; font-size: 90px""><b>ø</b></div>","null","","","","forget_cue","","","","","","","","","","","","","","","",""
"html-keyboard-response","95","330002","0.0-3.0-4.0","uxlvwmjk9xgp2uy","break","5f4bd5af6591fd0a0899594f","5f60e3c0a3b16e07647b2ff9","5f60f5226d9e1a02137c8b4c","false","3516.6800000006333","<p style='font-size: 32px;'>Break</><br><br><br><br><br><p style='font-size: 24px;'>In the last block, you committed 0 errors and did not respond in time on 0 trials.
</p><p style='font-size: 24px;'>Try to respond as fast and accurately as possible in the next block as well! </p><p style='font-size: 24px;'>Press SPACE to continue.</p>","32","","","","","","","","","","","","","","","","","","","",""
"html-keyboard-response","96","349882","0.0-3.0-5.0","uxlvwmjk9xgp2uy","instructions","5f4bd5af6591fd0a0899594f","5f60e3c0a3b16e07647b2ff9","5f60f5226d9e1a02137c8b4c","false","19879.285000031814","<div align=left> Now, to practice, we kindly ask you to remember as many of the to-be-remembered pictures<br>of the previous learning phase as possible.<br><br>The pictures you were instructed to remember were the pictures followed by a <span style='color: dodgerblue; font-size: 28px'>O</span>.<br><br>In this memory test phase, you will also see some new pictures.<br>It is your task to remember whether you were presented with this specific picture in this study so far or not.<br>If you recognize an object (you have already seen it in this study), it is an OLD object. <br>If you do not recognize an object (you have NOT seen it in this study), it is a NEW object. <br><strong> Attention</strong>: As already mentioned, <span style='color: darkorange; font-size:28px'>Ø</span>-pictures will <strong>never</strong> appear in this memory test (neither as new objects). <br><br>Press SPACE to continue. </div>","32","","","","","","","","","","","","","","","","","","","",""
"html-keyboard-response","97","388392","0.0-3.0-6.0","uxlvwmjk9xgp2uy","instructions","5f4bd5af6591fd0a0899594f","5f60e3c0a3b16e07647b2ff9","5f60f5226d9e1a02137c8b4c","false","38510.9250000678","<div align=left> M and N no longer will appear on the left/right of the fixation cross. <br>Instead there will be a note at the bottom of the left or right side  <br>indicating which key you should press for an old or new object:  <br> <br>Press the <strong>right</strong> key to classify an object as <strong>old</strong> and press the <strong>left</strong>, to classify an object as <strong>new</strong>.<br>Please classify the objects as new/old by again placing your index finger on the 'S' and 'L' keys <br>and press them accordingly.<br><br><strong>Old:</strong> This object has been presented before. <br><strong>New:</strong> This object has <strong>not</strong> been presented.<br><br>Now please put your right and left index fingers on the 'S' and 'L' keys of your keyboard. <br>Please respond as fast and as accurately as possible!<br><br>Press SPACE to continue. </div>","32","","","","","","","","","","","","","","","","","","","",""
"categorize-image","98","391464","0.0-3.0-7.0-0.0","uxlvwmjk9xgp2uy","practice_recog","5f4bd5af6591fd0a0899594f","5f60e3c0a3b16e07647b2ff9","5f60f5226d9e1a02137c8b4c","true","2565.30500005465","./Stimuli/ImagesPractice/SM62.jpg","76","","","","test","true","","76","","SM","SM62.jpg","","new","33","3","practice_recog","right","","","",""
"categorize-image","99","393232","0.0-3.0-7.0-0.1","uxlvwmjk9xgp2uy","practice_recog","5f4bd5af6591fd0a0899594f","5f60e3c0a3b16e07647b2ff9","5f60f5226d9e1a02137c8b4c","true","1261.6599999601021","./Stimuli/ImagesPractice/SN205.jpg","83","","","","test","true","","83","","SN","SN205.jpg","","old","34","3","practice_recog","left","","","",""
"categorize-image","100","394888","0.0-3.0-7.0-0.2","uxlvwmjk9xgp2uy","practice_recog","5f4bd5af6591fd0a0899594f","5f60e3c0a3b16e07647b2ff9","5f60f5226d9e1a02137c8b4c","true","1150.290000019595","./Stimuli/ImagesPractice/SM35.jpg","76","","","","test","true","","76","","SM","SM35.jpg","","new","35","3","practice_recog","right","","","",""
"categorize-image","101","396528","0.0-3.0-7.0-0.3","uxlvwmjk9xgp2uy","practice_recog","5f4bd5af6591fd0a0899594f","5f60e3c0a3b16e07647b2ff9","5f60f5226d9e1a02137c8b4c","true","1133.7200000416487","./Stimuli/ImagesPractice/SN75.jpg","83","","","","test","true","","83","","SN","SN75.jpg","","old","36","3","practice_recog","left","","","",""
"categorize-image","102","397796","0.0-3.0-7.0-0.4","uxlvwmjk9xgp2uy","practice_recog","5f4bd5af6591fd0a0899594f","5f60e3c0a3b16e07647b2ff9","5f60f5226d9e1a02137c8b4c","true","766.1500000394881","./Stimuli/ImagesPractice/LM239.jpg","83","","","","test","true","","83","","LM","LM239.jpg","","old","37","3","practice_recog","left","","","",""
"categorize-image","103","399072","0.0-3.0-7.0-0.5","uxlvwmjk9xgp2uy","practice_recog","5f4bd5af6591fd0a0899594f","5f60e3c0a3b16e07647b2ff9","5f60f5226d9e1a02137c8b4c","true","770.6899999175221","./Stimuli/ImagesPractice/SM97.jpg","83","","","","test","true","","83","","SM","SM97.jpg","","old","38","3","practice_recog","left","","","",""
"categorize-image","104","400368","0.0-3.0-7.0-0.6","uxlvwmjk9xgp2uy","practice_recog","5f4bd5af6591fd0a0899594f","5f60e3c0a3b16e07647b2ff9","5f60f5226d9e1a02137c8b4c","true","789.1550000058487","./Stimuli/ImagesPractice/LN4.jpg","83","","","","test","true","","83","","LN","LN4.jpg","","old","39","3","practice_recog","left","","","",""
"categorize-image","105","401728","0.0-3.0-7.0-0.7","uxlvwmjk9xgp2uy","practice_recog","5f4bd5af6591fd0a0899594f","5f60e3c0a3b16e07647b2ff9","5f60f5226d9e1a02137c8b4c","true","853.7900000810623","./Stimuli/ImagesPractice/LN17.jpg","76","","","","test","true","","76","","LN","LN17.jpg","","new","40","3","practice_recog","right","","","",""
"categorize-image","106","403279","0.0-3.0-7.0-0.8","uxlvwmjk9xgp2uy","practice_recog","5f4bd5af6591fd0a0899594f","5f60e3c0a3b16e07647b2ff9","5f60f5226d9e1a02137c8b4c","true","1045.6900000572205","./Stimuli/ImagesPractice/SN222.jpg","83","","","","test","true","","83","","SN","SN222.jpg","","old","41","3","practice_recog","left","","","",""
"categorize-image","107","404968","0.0-3.0-7.0-0.9","uxlvwmjk9xgp2uy","practice_recog","5f4bd5af6591fd0a0899594f","5f60e3c0a3b16e07647b2ff9","5f60f5226d9e1a02137c8b4c","true","1182.630000053905","./Stimuli/ImagesPractice/LN15.jpg","76","","","","test","true","","76","","LN","LN15.jpg","","new","42","3","practice_recog","right","","","",""
"categorize-image","108","406583","0.0-3.0-7.0-0.10","uxlvwmjk9xgp2uy","practice_recog","5f4bd5af6591fd0a0899594f","5f60e3c0a3b16e07647b2ff9","5f60f5226d9e1a02137c8b4c","true","1109.7400001017377","./Stimuli/ImagesPractice/LN109.jpg","83","","","","test","true","","83","","LN","LN109.jpg","","old","43","3","practice_recog","left","","","",""
"categorize-image","109","407924","0.0-3.0-7.0-0.11","uxlvwmjk9xgp2uy","practice_recog","5f4bd5af6591fd0a0899594f","5f60e3c0a3b16e07647b2ff9","5f60f5226d9e1a02137c8b4c","true","837.9399999976158","./Stimuli/ImagesPractice/LM230.jpg","76","","","","test","true","","76","","LM","LM230.jpg","","new","44","3","practice_recog","right","","","",""
"categorize-image","110","409200","0.0-3.0-7.0-0.12","uxlvwmjk9xgp2uy","practice_recog","5f4bd5af6591fd0a0899594f","5f60e3c0a3b16e07647b2ff9","5f60f5226d9e1a02137c8b4c","true","768.9550000941381","./Stimuli/ImagesPractice/SM61.jpg","76","","","","test","true","","76","","SM","SM61.jpg","","new","45","3","practice_recog","right","","","",""
"categorize-image","111","410400","0.0-3.0-7.0-0.13","uxlvwmjk9xgp2uy","practice_recog","5f4bd5af6591fd0a0899594f","5f60e3c0a3b16e07647b2ff9","5f60f5226d9e1a02137c8b4c","true","693.19500005804","./Stimuli/ImagesPractice/LN2.jpg","76","","","","test","true","","76","","LN","LN2.jpg","","new","46","3","practice_recog","right","","","",""
"categorize-image","112","411647","0.0-3.0-7.0-0.14","uxlvwmjk9xgp2uy","practice_recog","5f4bd5af6591fd0a0899594f","5f60e3c0a3b16e07647b2ff9","5f60f5226d9e1a02137c8b4c","true","741.6499999817461","./Stimuli/ImagesPractice/SN220.jpg","83","","","","test","true","","83","","SN","SN220.jpg","","old","47","3","practice_recog","left","","","",""
"categorize-image","113","412951","0.0-3.0-7.0-0.15","uxlvwmjk9xgp2uy","practice_recog","5f4bd5af6591fd0a0899594f","5f60e3c0a3b16e07647b2ff9","5f60f5226d9e1a02137c8b4c","true","797.8150000562891","./Stimuli/ImagesPractice/SM98.jpg","76","","","","test","true","","76","","SM","SM98.jpg","","new","48","3","practice_recog","right","","","",""
"html-keyboard-response","114","418590","0.0-3.0-8.0","uxlvwmjk9xgp2uy","instructions","5f4bd5af6591fd0a0899594f","5f60e3c0a3b16e07647b2ff9","5f60f5226d9e1a02137c8b4c","false","5637.775000068359","<div align=left> Great!<br><br>Are you ready to continue?<br>If you want to reread the instructions and redo the practice trials, please <br>press „Z“.<br><br>You can proceed when you are ready.<br><br>After the presentation of each object, you will receive an instruction whether to <br>remember or to forget the object.<br>We will test your memory of the following pictures only at the very end of <br>the experiment after all learning blocks are completed. <br><br>Press SPACE to CONTINUE when you are ready. </div>","32","","","","","","","","","","","","","","","","","","","",""
"html-keyboard-response","115","424543","0.0-4.0-0.0","uxlvwmjk9xgp2uy","instructions","5f4bd5af6591fd0a0899594f","5f60e3c0a3b16e07647b2ff9","5f60f5226d9e1a02137c8b4c","false","5951.500000082888","<div align=left> The actual experiment is about to start.<br>The practice trials are over!<br><br>Please always respond both fast and accurately!<br><br>Remember: <br> <br><li> Please place your index fingers on the <strong>'S'</strong> and <strong>'L'</strong> keys <br>to respond as fast and accurately as possible.</li><li> Every picture can be classified as either mechanical or non-mechanical.</li><li> If you do not respond in time or commit an error, you will receive a corresponding feedback.<br> Please try to respond as <strong> fast </strong> and as <strong> accurately as possible </strong>.</li><li> Remember the <span style='color: dodgerblue; font-size: 28px'>O</span> pictures. <br></li><li> Please minimize distractions and stay focused. </li><br><br>Press SPACE to START.</div>","32","","","","","","","","","","","","","","","","","","","",""
"html-keyboard-response","116","425248","0.0-4.0-1.0-0.0","uxlvwmjk9xgp2uy","prime","5f4bd5af6591fd0a0899594f","5f60e3c0a3b16e07647b2ff9","5f60f5226d9e1a02137c8b4c","false","null","<span style=""color: black; font-size: 48px"">N + M</span>","null","","","","resp_prompt","","","","","","","","","","","","","","","",""
"categorize-image","117","426232","0.0-4.0-1.0-1.0","uxlvwmjk9xgp2uy","prime","5f4bd5af6591fd0a0899594f","5f60e3c0a3b16e07647b2ff9","5f60f5226d9e1a02137c8b4c","true","980.3299999330193","./Stimuli/SelectedImages/SN/SN140.bmp","83","","","","test","true","N + M","83","repetition","SN","SN140.bmp","forget","","49","3","prime1","left","","","",""
"html-keyboard-response","118","428237","0.0-4.0-1.0-3.0","uxlvwmjk9xgp2uy","prime","5f4bd5af6591fd0a0899594f","5f60e3c0a3b16e07647b2ff9","5f60f5226d9e1a02137c8b4c","false","null","<div style=""align-items: center; display: flex; color: darkorange; font-size: 90px""><b>ø</b></div>","null","","","","forget_cue","","","","","","","","","","","","","","","",""
"html-keyboard-response","119","428941","0.0-4.0-1.0-0.1","uxlvwmjk9xgp2uy","prime","5f4bd5af6591fd0a0899594f","5f60e3c0a3b16e07647b2ff9","5f60f5226d9e1a02137c8b4c","false","null","<span style=""color: black; font-size: 48px"">M + N</span>","null","","","","resp_prompt","","","","","","","","","","","","","","","",""
"categorize-image","120","429823","0.0-4.0-1.0-1.1","uxlvwmjk9xgp2uy","prime","5f4bd5af6591fd0a0899594f","5f60e3c0a3b16e07647b2ff9","5f60f5226d9e1a02137c8b4c","true","879.6700000530109","./Stimuli/SelectedImages/SM/SM108.bmp","83","","","","test","true","M + N","83","switch","SM","SM108.bmp","remember","","50","3","prime1","left","","","",""
"html-keyboard-response","121","431829","0.0-4.0-1.0-3.1","uxlvwmjk9xgp2uy","prime","5f4bd5af6591fd0a0899594f","5f60e3c0a3b16e07647b2ff9","5f60f5226d9e1a02137c8b4c","false","null","<div style=""align-items: center; display: flex; color: dodgerblue; font-size: 90px""><b>o</b></div>","null","","","","forget_cue","","","","","","","","","","","","","","","",""
"html-keyboard-response","122","432535","0.0-4.0-1.0-0.2","uxlvwmjk9xgp2uy","prime","5f4bd5af6591fd0a0899594f","5f60e3c0a3b16e07647b2ff9","5f60f5226d9e1a02137c8b4c","false","null","<span style=""color: black; font-size: 48px"">M + N</span>","null","","","","resp_prompt","","","","","","","","","","","","","","","",""
"categorize-image","123","433415","0.0-4.0-1.0-1.2","uxlvwmjk9xgp2uy","prime","5f4bd5af6591fd0a0899594f","5f60e3c0a3b16e07647b2ff9","5f60f5226d9e1a02137c8b4c","true","877.6599999982864","./Stimuli/SelectedImages/SM/SM213.bmp","83","","","","test","true","M + N","83","repetition","SM","SM213.bmp","remember","","51","3","prime1","left","","","",""
"html-keyboard-response","124","435421","0.0-4.0-1.0-3.2","uxlvwmjk9xgp2uy","prime","5f4bd5af6591fd0a0899594f","5f60e3c0a3b16e07647b2ff9","5f60f5226d9e1a02137c8b4c","false","null","<div style=""align-items: center; display: flex; color: dodgerblue; font-size: 90px""><b>o</b></div>","null","","","","forget_cue","","","","","","","","","","","","","","","",""
"html-keyboard-response","125","436127","0.0-4.0-1.0-0.3","uxlvwmjk9xgp2uy","prime","5f4bd5af6591fd0a0899594f","5f60e3c0a3b16e07647b2ff9","5f60f5226d9e1a02137c8b4c","false","null","<span style=""color: black; font-size: 48px"">M + N</span>","null","","","","resp_prompt","","","","","","","","","","","","","","","",""
"categorize-image","126","436848","0.0-4.0-1.0-1.3","uxlvwmjk9xgp2uy","prime","5f4bd5af6591fd0a0899594f","5f60e3c0a3b16e07647b2ff9","5f60f5226d9e1a02137c8b4c","true","718.1700000073761","./Stimuli/SelectedImages/SN/SN187.bmp","76","","","","test","true","M + N","76","switch","SN","SN187.bmp","forget","","52","3","prime1","right","","","",""
"html-keyboard-response","127","438853","0.0-4.0-1.0-3.3","uxlvwmjk9xgp2uy","prime","5f4bd5af6591fd0a0899594f","5f60e3c0a3b16e07647b2ff9","5f60f5226d9e1a02137c8b4c","false","null","<div style=""align-items: center; display: flex; color: darkorange; font-size: 90px""><b>ø</b></div>","null","","","","forget_cue","","","","","","","","","","","","","","","",""
"html-keyboard-response","128","439559","0.0-4.0-1.0-0.4","uxlvwmjk9xgp2uy","prime","5f4bd5af6591fd0a0899594f","5f60e3c0a3b16e07647b2ff9","5f60f5226d9e1a02137c8b4c","false","null","<span style=""color: black; font-size: 48px"">N + M</span>","null","","","","resp_prompt","","","","","","","","","","","","","","","",""
"categorize-image","129","440559","0.0-4.0-1.0-1.4","uxlvwmjk9xgp2uy","prime","5f4bd5af6591fd0a0899594f","5f60e3c0a3b16e07647b2ff9","5f60f5226d9e1a02137c8b4c","true","997.1799999475479","./Stimuli/SelectedImages/LM/LM75.bmp","76","","","","test","true","N + M","76","switch","LM","LM75.bmp","forget","","53","3","prime1","right","","","",""
"html-keyboard-response","130","442565","0.0-4.0-1.0-3.4","uxlvwmjk9xgp2uy","prime","5f4bd5af6591fd0a0899594f","5f60e3c0a3b16e07647b2ff9","5f60f5226d9e1a02137c8b4c","false","null","<div style=""align-items: center; display: flex; color: darkorange; font-size: 90px""><b>ø</b></div>","null","","","","forget_cue","","","","","","","","","","","","","","","",""
"html-keyboard-response","131","443270","0.0-4.0-1.0-0.5","uxlvwmjk9xgp2uy","prime","5f4bd5af6591fd0a0899594f","5f60e3c0a3b16e07647b2ff9","5f60f5226d9e1a02137c8b4c","false","null","<span style=""color: black; font-size: 48px"">M + N</span>","null","","","","resp_prompt","","","","","","","","","","","","","","","",""
"categorize-image","132","444207","0.0-4.0-1.0-1.5","uxlvwmjk9xgp2uy","prime","5f4bd5af6591fd0a0899594f","5f60e3c0a3b16e07647b2ff9","5f60f5226d9e1a02137c8b4c","true","933.699999935925","./Stimuli/SelectedImages/SM/SM73.bmp","83","","","","test","true","M + N","83","switch","SM","SM73.bmp","forget","","54","3","prime1","left","","","",""
"html-keyboard-response","133","446211","0.0-4.0-1.0-3.5","uxlvwmjk9xgp2uy","prime","5f4bd5af6591fd0a0899594f","5f60e3c0a3b16e07647b2ff9","5f60f5226d9e1a02137c8b4c","false","null","<div style=""align-items: center; display: flex; color: darkorange; font-size: 90px""><b>ø</b></div>","null","","","","forget_cue","","","","","","","","","","","","","","","",""
"html-keyboard-response","134","446917","0.0-4.0-1.0-0.6","uxlvwmjk9xgp2uy","prime","5f4bd5af6591fd0a0899594f","5f60e3c0a3b16e07647b2ff9","5f60f5226d9e1a02137c8b4c","false","null","<span style=""color: black; font-size: 48px"">N + M</span>","null","","","","resp_prompt","","","","","","","","","","","","","","","",""
"categorize-image","135","447807","0.0-4.0-1.0-1.6","uxlvwmjk9xgp2uy","prime","5f4bd5af6591fd0a0899594f","5f60e3c0a3b16e07647b2ff9","5f60f5226d9e1a02137c8b4c","true","887.4950000317767","./Stimuli/SelectedImages/LM/LM179.bmp","76","","","","test","true","N + M","76","repetition","LM","LM179.bmp","remember","","55","3","prime1","right","","","",""
"html-keyboard-response","136","449813","0.0-4.0-1.0-3.6","uxlvwmjk9xgp2uy","prime","5f4bd5af6591fd0a0899594f","5f60e3c0a3b16e07647b2ff9","5f60f5226d9e1a02137c8b4c","false","null","<div style=""align-items: center; display: flex; color: dodgerblue; font-size: 90px""><b>o</b></div>","null","","","","forget_cue","","","","","","","","","","","","","","","",""
"html-keyboard-response","137","450518","0.0-4.0-1.0-0.7","uxlvwmjk9xgp2uy","prime","5f4bd5af6591fd0a0899594f","5f60e3c0a3b16e07647b2ff9","5f60f5226d9e1a02137c8b4c","false","null","<span style=""color: black; font-size: 48px"">N + M</span>","null","","","","resp_prompt","","","","","","","","","","","","","","","",""
"categorize-image","138","451623","0.0-4.0-1.0-1.7","uxlvwmjk9xgp2uy","prime","5f4bd5af6591fd0a0899594f","5f60e3c0a3b16e07647b2ff9","5f60f5226d9e1a02137c8b4c","true","1102.100000018254","./Stimuli/SelectedImages/SM/SM148.bmp","76","","","","test","true","N + M","76","repetition","SM","SM148.bmp","remember","","56","3","prime1","right","","","",""
"html-keyboard-response","139","453628","0.0-4.0-1.0-3.7","uxlvwmjk9xgp2uy","prime","5f4bd5af6591fd0a0899594f","5f60e3c0a3b16e07647b2ff9","5f60f5226d9e1a02137c8b4c","false","null","<div style=""align-items: center; display: flex; color: dodgerblue; font-size: 90px""><b>o</b></div>","null","","","","forget_cue","","","","","","","","","","","","","","","",""
"html-keyboard-response","140","454334","0.0-4.0-1.0-0.8","uxlvwmjk9xgp2uy","prime","5f4bd5af6591fd0a0899594f","5f60e3c0a3b16e07647b2ff9","5f60f5226d9e1a02137c8b4c","false","null","<span style=""color: black; font-size: 48px"">M + N</span>","null","","","","resp_prompt","","","","","","","","","","","","","","","",""
"categorize-image","141","455526","0.0-4.0-1.0-1.8","uxlvwmjk9xgp2uy","prime","5f4bd5af6591fd0a0899594f","5f60e3c0a3b16e07647b2ff9","5f60f5226d9e1a02137c8b4c","true","1189.4150000298396","./Stimuli/SelectedImages/SM/SM24.bmp","83","","","","test","true","M + N","83","repetition","SM","SM24.bmp","forget","","57","3","prime1","left","","","",""
"html-keyboard-response","142","457532","0.0-4.0-1.0-3.8","uxlvwmjk9xgp2uy","prime","5f4bd5af6591fd0a0899594f","5f60e3c0a3b16e07647b2ff9","5f60f5226d9e1a02137c8b4c","false","null","<div style=""align-items: center; display: flex; color: darkorange; font-size: 90px""><b>ø</b></div>","null","","","","forget_cue","","","","","","","","","","","","","","","",""
"html-keyboard-response","143","458238","0.0-4.0-1.0-0.9","uxlvwmjk9xgp2uy","prime","5f4bd5af6591fd0a0899594f","5f60e3c0a3b16e07647b2ff9","5f60f5226d9e1a02137c8b4c","false","null","<span style=""color: black; font-size: 48px"">M + N</span>","null","","","","resp_prompt","","","","","","","","","","","","","","","",""
"categorize-image","144","459175","0.0-4.0-1.0-1.9","uxlvwmjk9xgp2uy","prime","5f4bd5af6591fd0a0899594f","5f60e3c0a3b16e07647b2ff9","5f60f5226d9e1a02137c8b4c","true","933.9250000193715","./Stimuli/SelectedImages/SN/SN64.bmp","76","","","","test","true","M + N","76","repetition","SN","SN64.bmp","remember","","58","3","prime1","right","","","",""
"html-keyboard-response","145","461181","0.0-4.0-1.0-3.9","uxlvwmjk9xgp2uy","prime","5f4bd5af6591fd0a0899594f","5f60e3c0a3b16e07647b2ff9","5f60f5226d9e1a02137c8b4c","false","null","<div style=""align-items: center; display: flex; color: dodgerblue; font-size: 90px""><b>o</b></div>","null","","","","forget_cue","","","","","","","","","","","","","","","",""
"html-keyboard-response","146","461886","0.0-4.0-1.0-0.10","uxlvwmjk9xgp2uy","prime","5f4bd5af6591fd0a0899594f","5f60e3c0a3b16e07647b2ff9","5f60f5226d9e1a02137c8b4c","false","null","<span style=""color: black; font-size: 48px"">N + M</span>","null","","","","resp_prompt","","","","","","","","","","","","","","","",""
"categorize-image","147","462606","0.0-4.0-1.0-1.10","uxlvwmjk9xgp2uy","prime","5f4bd5af6591fd0a0899594f","5f60e3c0a3b16e07647b2ff9","5f60f5226d9e1a02137c8b4c","true","717.1500000404194","./Stimuli/SelectedImages/SN/SN93.bmp","83","","","","test","true","N + M","83","switch","SN","SN93.bmp","forget","","59","3","prime1","left","","","",""
"html-keyboard-response","148","464611","0.0-4.0-1.0-3.10","uxlvwmjk9xgp2uy","prime","5f4bd5af6591fd0a0899594f","5f60e3c0a3b16e07647b2ff9","5f60f5226d9e1a02137c8b4c","false","null","<div style=""align-items: center; display: flex; color: darkorange; font-size: 90px""><b>ø</b></div>","null","","","","forget_cue","","","","","","","","","","","","","","","",""
"html-keyboard-response","149","465316","0.0-4.0-1.0-0.11","uxlvwmjk9xgp2uy","prime","5f4bd5af6591fd0a0899594f","5f60e3c0a3b16e07647b2ff9","5f60f5226d9e1a02137c8b4c","false","null","<span style=""color: black; font-size: 48px"">M + N</span>","null","","","","resp_prompt","","","","","","","","","","","","","","","",""
"categorize-image","150","466335","0.0-4.0-1.0-1.11","uxlvwmjk9xgp2uy","prime","5f4bd5af6591fd0a0899594f","5f60e3c0a3b16e07647b2ff9","5f60f5226d9e1a02137c8b4c","true","1014.945000060834","./Stimuli/SelectedImages/SM/SM78.bmp","83","","","","test","true","M + N","83","repetition","SM","SM78.bmp","forget","","60","3","prime1","left","","","",""
"html-keyboard-response","151","468339","0.0-4.0-1.0-3.11","uxlvwmjk9xgp2uy","prime","5f4bd5af6591fd0a0899594f","5f60e3c0a3b16e07647b2ff9","5f60f5226d9e1a02137c8b4c","false","null","<div style=""align-items: center; display: flex; color: darkorange; font-size: 90px""><b>ø</b></div>","null","","","","forget_cue","","","","","","","","","","","","","","","",""
"html-keyboard-response","152","469045","0.0-4.0-1.0-0.12","uxlvwmjk9xgp2uy","prime","5f4bd5af6591fd0a0899594f","5f60e3c0a3b16e07647b2ff9","5f60f5226d9e1a02137c8b4c","false","null","<span style=""color: black; font-size: 48px"">M + N</span>","null","","","","resp_prompt","","","","","","","","","","","","","","","",""
"categorize-image","153","469854","0.0-4.0-1.0-1.12","uxlvwmjk9xgp2uy","prime","5f4bd5af6591fd0a0899594f","5f60e3c0a3b16e07647b2ff9","5f60f5226d9e1a02137c8b4c","true","806.9700000341982","./Stimuli/SelectedImages/LM/LM157.bmp","83","","","","test","true","M + N","83","repetition","LM","LM157.bmp","remember","","61","3","prime1","left","","","",""
"html-keyboard-response","154","471860","0.0-4.0-1.0-3.12","uxlvwmjk9xgp2uy","prime","5f4bd5af6591fd0a0899594f","5f60e3c0a3b16e07647b2ff9","5f60f5226d9e1a02137c8b4c","false","null","<div style=""align-items: center; display: flex; color: dodgerblue; font-size: 90px""><b>o</b></div>","null","","","","forget_cue","","","","","","","","","","","","","","","",""
"html-keyboard-response","155","472566","0.0-4.0-1.0-0.13","uxlvwmjk9xgp2uy","prime","5f4bd5af6591fd0a0899594f","5f60e3c0a3b16e07647b2ff9","5f60f5226d9e1a02137c8b4c","false","null","<span style=""color: black; font-size: 48px"">N + M</span>","null","","","","resp_prompt","","","","","","","","","","","","","","","",""
"categorize-image","156","473326","0.0-4.0-1.0-1.13","uxlvwmjk9xgp2uy","prime","5f4bd5af6591fd0a0899594f","5f60e3c0a3b16e07647b2ff9","5f60f5226d9e1a02137c8b4c","true","757.3649999685585","./Stimuli/SelectedImages/LN/LN9.bmp","83","","","","test","true","N + M","83","switch","LN","LN9.bmp","remember","","62","3","prime1","left","","","",""
"html-keyboard-response","157","475332","0.0-4.0-1.0-3.13","uxlvwmjk9xgp2uy","prime","5f4bd5af6591fd0a0899594f","5f60e3c0a3b16e07647b2ff9","5f60f5226d9e1a02137c8b4c","false","null","<div style=""align-items: center; display: flex; color: dodgerblue; font-size: 90px""><b>o</b></div>","null","","","","forget_cue","","","","","","","","","","","","","","","",""
"html-keyboard-response","158","476037","0.0-4.0-1.0-0.14","uxlvwmjk9xgp2uy","prime","5f4bd5af6591fd0a0899594f","5f60e3c0a3b16e07647b2ff9","5f60f5226d9e1a02137c8b4c","false","null","<span style=""color: black; font-size: 48px"">M + N</span>","null","","","","resp_prompt","","","","","","","","","","","","","","","",""
"categorize-image","159","477070","0.0-4.0-1.0-1.14","uxlvwmjk9xgp2uy","prime","5f4bd5af6591fd0a0899594f","5f60e3c0a3b16e07647b2ff9","5f60f5226d9e1a02137c8b4c","true","1029.560000053607","./Stimuli/SelectedImages/SN/SN52.bmp","76","","","","test","true","M + N","76","repetition","SN","SN52.bmp","forget","","63","3","prime1","right","","","",""
"html-keyboard-response","160","479075","0.0-4.0-1.0-3.14","uxlvwmjk9xgp2uy","prime","5f4bd5af6591fd0a0899594f","5f60e3c0a3b16e07647b2ff9","5f60f5226d9e1a02137c8b4c","false","null","<div style=""align-items: center; display: flex; color: darkorange; font-size: 90px""><b>ø</b></div>","null","","","","forget_cue","","","","","","","","","","","","","","","",""
"html-keyboard-response","161","479781","0.0-4.0-1.0-0.15","uxlvwmjk9xgp2uy","prime","5f4bd5af6591fd0a0899594f","5f60e3c0a3b16e07647b2ff9","5f60f5226d9e1a02137c8b4c","false","null","<span style=""color: black; font-size: 48px"">N + M</span>","null","","","","resp_prompt","","","","","","","","","","","","","","","",""
"categorize-image","162","480702","0.0-4.0-1.0-1.15","uxlvwmjk9xgp2uy","prime","5f4bd5af6591fd0a0899594f","5f60e3c0a3b16e07647b2ff9","5f60f5226d9e1a02137c8b4c","true","917.7700000582263","./Stimuli/SelectedImages/LN/LN131.bmp","83","","","","test","true","N + M","83","switch","LN","LN131.bmp","remember","","64","3","prime1","left","","","",""
"html-keyboard-response","163","482707","0.0-4.0-1.0-3.15","uxlvwmjk9xgp2uy","prime","5f4bd5af6591fd0a0899594f","5f60e3c0a3b16e07647b2ff9","5f60f5226d9e1a02137c8b4c","false","null","<div style=""align-items: center; display: flex; color: dodgerblue; font-size: 90px""><b>o</b></div>","null","","","","forget_cue","","","","","","","","","","","","","","","",""
"html-keyboard-response","164","483413","0.0-4.0-1.0-0.16","uxlvwmjk9xgp2uy","prime","5f4bd5af6591fd0a0899594f","5f60e3c0a3b16e07647b2ff9","5f60f5226d9e1a02137c8b4c","false","null","<span style=""color: black; font-size: 48px"">N + M</span>","null","","","","resp_prompt","","","","","","","","","","","","","","","",""
"categorize-image","165","484093","0.0-4.0-1.0-1.16","uxlvwmjk9xgp2uy","prime","5f4bd5af6591fd0a0899594f","5f60e3c0a3b16e07647b2ff9","5f60f5226d9e1a02137c8b4c","true","677.2900000214577","./Stimuli/SelectedImages/LM/LM167.bmp","76","","","","test","true","N + M","76","repetition","LM","LM167.bmp","forget","","65","3","prime1","right","","","",""
"html-keyboard-response","166","486099","0.0-4.0-1.0-3.16","uxlvwmjk9xgp2uy","prime","5f4bd5af6591fd0a0899594f","5f60e3c0a3b16e07647b2ff9","5f60f5226d9e1a02137c8b4c","false","null","<div style=""align-items: center; display: flex; color: darkorange; font-size: 90px""><b>ø</b></div>","null","","","","forget_cue","","","","","","","","","","","","","","","",""
"html-keyboard-response","167","486805","0.0-4.0-1.0-0.17","uxlvwmjk9xgp2uy","prime","5f4bd5af6591fd0a0899594f","5f60e3c0a3b16e07647b2ff9","5f60f5226d9e1a02137c8b4c","false","null","<span style=""color: black; font-size: 48px"">N + M</span>","null","","","","resp_prompt","","","","","","","","","","","","","","","",""
"categorize-image","168","488013","0.0-4.0-1.0-1.17","uxlvwmjk9xgp2uy","prime","5f4bd5af6591fd0a0899594f","5f60e3c0a3b16e07647b2ff9","5f60f5226d9e1a02137c8b4c","true","1205.519999959506","./Stimuli/SelectedImages/SN/SN49.bmp","83","","","","test","true","N + M","83","switch","SN","SN49.bmp","forget","","66","3","prime1","left","","","",""
"html-keyboard-response","169","490014","0.0-4.0-1.0-3.17","uxlvwmjk9xgp2uy","prime","5f4bd5af6591fd0a0899594f","5f60e3c0a3b16e07647b2ff9","5f60f5226d9e1a02137c8b4c","false","null","<div style=""align-items: center; display: flex; color: darkorange; font-size: 90px""><b>ø</b></div>","null","","","","forget_cue","","","","","","","","","","","","","","","",""
"html-keyboard-response","170","490720","0.0-4.0-1.0-0.18","uxlvwmjk9xgp2uy","prime","5f4bd5af6591fd0a0899594f","5f60e3c0a3b16e07647b2ff9","5f60f5226d9e1a02137c8b4c","false","null","<span style=""color: black; font-size: 48px"">N + M</span>","null","","","","resp_prompt","","","","","","","","","","","","","","","",""
"categorize-image","171","491446","0.0-4.0-1.0-1.18","uxlvwmjk9xgp2uy","prime","5f4bd5af6591fd0a0899594f","5f60e3c0a3b16e07647b2ff9","5f60f5226d9e1a02137c8b4c","true","722.9100000113249","./Stimuli/SelectedImages/LN/LN177.bmp","83","","","","test","true","N + M","83","repetition","LN","LN177.bmp","remember","","67","3","prime1","left","","","",""
"html-keyboard-response","172","493449","0.0-4.0-1.0-3.18","uxlvwmjk9xgp2uy","prime","5f4bd5af6591fd0a0899594f","5f60e3c0a3b16e07647b2ff9","5f60f5226d9e1a02137c8b4c","false","null","<div style=""align-items: center; display: flex; color: dodgerblue; font-size: 90px""><b>o</b></div>","null","","","","forget_cue","","","","","","","","","","","","","","","",""
"html-keyboard-response","173","494155","0.0-4.0-1.0-0.19","uxlvwmjk9xgp2uy","prime","5f4bd5af6591fd0a0899594f","5f60e3c0a3b16e07647b2ff9","5f60f5226d9e1a02137c8b4c","false","null","<span style=""color: black; font-size: 48px"">N + M</span>","null","","","","resp_prompt","","","","","","","","","","","","","","","",""
"categorize-image","174","494869","0.0-4.0-1.0-1.19","uxlvwmjk9xgp2uy","prime","5f4bd5af6591fd0a0899594f","5f60e3c0a3b16e07647b2ff9","5f60f5226d9e1a02137c8b4c","true","711.1149999545887","./Stimuli/SelectedImages/LM/LM100.bmp","76","","","","test","true","N + M","76","switch","LM","LM100.bmp","forget","","68","3","prime1","right","","","",""
"html-keyboard-response","175","496871","0.0-4.0-1.0-3.19","uxlvwmjk9xgp2uy","prime","5f4bd5af6591fd0a0899594f","5f60e3c0a3b16e07647b2ff9","5f60f5226d9e1a02137c8b4c","false","null","<div style=""align-items: center; display: flex; color: darkorange; font-size: 90px""><b>ø</b></div>","null","","","","forget_cue","","","","","","","","","","","","","","","",""
"html-keyboard-response","176","497573","0.0-4.0-1.0-0.20","uxlvwmjk9xgp2uy","prime","5f4bd5af6591fd0a0899594f","5f60e3c0a3b16e07647b2ff9","5f60f5226d9e1a02137c8b4c","false","null","<span style=""color: black; font-size: 48px"">N + M</span>","null","","","","resp_prompt","","","","","","","","","","","","","","","",""
"categorize-image","177","498429","0.0-4.0-1.0-1.20","uxlvwmjk9xgp2uy","prime","5f4bd5af6591fd0a0899594f","5f60e3c0a3b16e07647b2ff9","5f60f5226d9e1a02137c8b4c","true","853.4549999749288","./Stimuli/SelectedImages/SM/SM76.bmp","76","","","","test","true","N + M","76","switch","SM","SM76.bmp","forget","","69","3","prime1","right","","","",""
"html-keyboard-response","178","500434","0.0-4.0-1.0-3.20","uxlvwmjk9xgp2uy","prime","5f4bd5af6591fd0a0899594f","5f60e3c0a3b16e07647b2ff9","5f60f5226d9e1a02137c8b4c","false","null","<div style=""align-items: center; display: flex; color: darkorange; font-size: 90px""><b>ø</b></div>","null","","","","forget_cue","","","","","","","","","","","","","","","",""
"html-keyboard-response","179","501138","0.0-4.0-1.0-0.21","uxlvwmjk9xgp2uy","prime","5f4bd5af6591fd0a0899594f","5f60e3c0a3b16e07647b2ff9","5f60f5226d9e1a02137c8b4c","false","null","<span style=""color: black; font-size: 48px"">M + N</span>","null","","","","resp_prompt","","","","","","","","","","","","","","","",""
"categorize-image","180","501989","0.0-4.0-1.0-1.21","uxlvwmjk9xgp2uy","prime","5f4bd5af6591fd0a0899594f","5f60e3c0a3b16e07647b2ff9","5f60f5226d9e1a02137c8b4c","true","847.940000006929","./Stimuli/SelectedImages/LN/LN12.bmp","76","","","","test","true","M + N","76","repetition","LN","LN12.bmp","forget","","70","3","prime1","right","","","",""
"html-keyboard-response","181","503995","0.0-4.0-1.0-3.21","uxlvwmjk9xgp2uy","prime","5f4bd5af6591fd0a0899594f","5f60e3c0a3b16e07647b2ff9","5f60f5226d9e1a02137c8b4c","false","null","<div style=""align-items: center; display: flex; color: darkorange; font-size: 90px""><b>ø</b></div>","null","","","","forget_cue","","","","","","","","","","","","","","","",""
"html-keyboard-response","182","504698","0.0-4.0-1.0-0.22","uxlvwmjk9xgp2uy","prime","5f4bd5af6591fd0a0899594f","5f60e3c0a3b16e07647b2ff9","5f60f5226d9e1a02137c8b4c","false","null","<span style=""color: black; font-size: 48px"">N + M</span>","null","","","","resp_prompt","","","","","","","","","","","","","","","",""
"categorize-image","183","505413","0.0-4.0-1.0-1.22","uxlvwmjk9xgp2uy","prime","5f4bd5af6591fd0a0899594f","5f60e3c0a3b16e07647b2ff9","5f60f5226d9e1a02137c8b4c","true","711.864999961108","./Stimuli/SelectedImages/SM/SM195.bmp","76","","","","test","true","N + M","76","switch","SM","SM195.bmp","remember","","71","3","prime1","right","","","",""
"html-keyboard-response","184","507418","0.0-4.0-1.0-3.22","uxlvwmjk9xgp2uy","prime","5f4bd5af6591fd0a0899594f","5f60e3c0a3b16e07647b2ff9","5f60f5226d9e1a02137c8b4c","false","null","<div style=""align-items: center; display: flex; color: dodgerblue; font-size: 90px""><b>o</b></div>","null","","","","forget_cue","","","","","","","","","","","","","","","",""
"html-keyboard-response","185","508123","0.0-4.0-1.0-0.23","uxlvwmjk9xgp2uy","prime","5f4bd5af6591fd0a0899594f","5f60e3c0a3b16e07647b2ff9","5f60f5226d9e1a02137c8b4c","false","null","<span style=""color: black; font-size: 48px"">N + M</span>","null","","","","resp_prompt","","","","","","","","","","","","","","","",""
"categorize-image","186","509740","0.0-4.0-1.0-1.23","uxlvwmjk9xgp2uy","prime","5f4bd5af6591fd0a0899594f","5f60e3c0a3b16e07647b2ff9","5f60f5226d9e1a02137c8b4c","true","1614.7150000324473","./Stimuli/SelectedImages/SM/SM74.bmp","76","","","","test","true","N + M","76","repetition","SM","SM74.bmp","remember","","72","3","prime1","right","","","",""
"html-keyboard-response","187","511743","0.0-4.0-1.0-3.23","uxlvwmjk9xgp2uy","prime","5f4bd5af6591fd0a0899594f","5f60e3c0a3b16e07647b2ff9","5f60f5226d9e1a02137c8b4c","false","null","<div style=""align-items: center; display: flex; color: dodgerblue; font-size: 90px""><b>o</b></div>","null","","","","forget_cue","","","","","","","","","","","","","","","",""
"html-keyboard-response","188","512448","0.0-4.0-1.0-0.24","uxlvwmjk9xgp2uy","prime","5f4bd5af6591fd0a0899594f","5f60e3c0a3b16e07647b2ff9","5f60f5226d9e1a02137c8b4c","false","null","<span style=""color: black; font-size: 48px"">N + M</span>","null","","","","resp_prompt","","","","","","","","","","","","","","","",""
"categorize-image","189","513325","0.0-4.0-1.0-1.24","uxlvwmjk9xgp2uy","prime","5f4bd5af6591fd0a0899594f","5f60e3c0a3b16e07647b2ff9","5f60f5226d9e1a02137c8b4c","true","874.2850000271574","./Stimuli/SelectedImages/LN/LN150.bmp","83","","","","test","true","N + M","83","repetition","LN","LN150.bmp","remember","","73","3","prime1","left","","","",""
"html-keyboard-response","190","515331","0.0-4.0-1.0-3.24","uxlvwmjk9xgp2uy","prime","5f4bd5af6591fd0a0899594f","5f60e3c0a3b16e07647b2ff9","5f60f5226d9e1a02137c8b4c","false","null","<div style=""align-items: center; display: flex; color: dodgerblue; font-size: 90px""><b>o</b></div>","null","","","","forget_cue","","","","","","","","","","","","","","","",""
"html-keyboard-response","191","516036","0.0-4.0-1.0-0.25","uxlvwmjk9xgp2uy","prime","5f4bd5af6591fd0a0899594f","5f60e3c0a3b16e07647b2ff9","5f60f5226d9e1a02137c8b4c","false","null","<span style=""color: black; font-size: 48px"">N + M</span>","null","","","","resp_prompt","","","","","","","","","","","","","","","",""
"categorize-image","192","516724","0.0-4.0-1.0-1.25","uxlvwmjk9xgp2uy","prime","5f4bd5af6591fd0a0899594f","5f60e3c0a3b16e07647b2ff9","5f60f5226d9e1a02137c8b4c","true","684.9449999863282","./Stimuli/SelectedImages/LM/LM51.bmp","76","","","","test","true","N + M","76","repetition","LM","LM51.bmp","forget","","74","3","prime1","right","","","",""
"html-keyboard-response","193","518730","0.0-4.0-1.0-3.25","uxlvwmjk9xgp2uy","prime","5f4bd5af6591fd0a0899594f","5f60e3c0a3b16e07647b2ff9","5f60f5226d9e1a02137c8b4c","false","null","<div style=""align-items: center; display: flex; color: darkorange; font-size: 90px""><b>ø</b></div>","null","","","","forget_cue","","","","","","","","","","","","","","","",""
"html-keyboard-response","194","519436","0.0-4.0-1.0-0.26","uxlvwmjk9xgp2uy","prime","5f4bd5af6591fd0a0899594f","5f60e3c0a3b16e07647b2ff9","5f60f5226d9e1a02137c8b4c","false","null","<span style=""color: black; font-size: 48px"">M + N</span>","null","","","","resp_prompt","","","","","","","","","","","","","","","",""
"categorize-image","195","520268","0.0-4.0-1.0-1.26","uxlvwmjk9xgp2uy","prime","5f4bd5af6591fd0a0899594f","5f60e3c0a3b16e07647b2ff9","5f60f5226d9e1a02137c8b4c","true","829.6850000042468","./Stimuli/SelectedImages/LM/LM235.bmp","83","","","","test","true","M + N","83","repetition","LM","LM235.bmp","forget","","75","3","prime1","left","","","",""
"html-keyboard-response","196","522269","0.0-4.0-1.0-3.26","uxlvwmjk9xgp2uy","prime","5f4bd5af6591fd0a0899594f","5f60e3c0a3b16e07647b2ff9","5f60f5226d9e1a02137c8b4c","false","null","<div style=""align-items: center; display: flex; color: darkorange; font-size: 90px""><b>ø</b></div>","null","","","","forget_cue","","","","","","","","","","","","","","","",""
"html-keyboard-response","197","522975","0.0-4.0-1.0-0.27","uxlvwmjk9xgp2uy","prime","5f4bd5af6591fd0a0899594f","5f60e3c0a3b16e07647b2ff9","5f60f5226d9e1a02137c8b4c","false","null","<span style=""color: black; font-size: 48px"">M + N</span>","null","","","","resp_prompt","","","","","","","","","","","","","","","",""
"categorize-image","198","523628","0.0-4.0-1.0-1.27","uxlvwmjk9xgp2uy","prime","5f4bd5af6591fd0a0899594f","5f60e3c0a3b16e07647b2ff9","5f60f5226d9e1a02137c8b4c","true","650.4600000334904","./Stimuli/SelectedImages/LM/LM58.bmp","83","","","","test","true","M + N","83","switch","LM","LM58.bmp","forget","","76","3","prime1","left","","","",""
"html-keyboard-response","199","525634","0.0-4.0-1.0-3.27","uxlvwmjk9xgp2uy","prime","5f4bd5af6591fd0a0899594f","5f60e3c0a3b16e07647b2ff9","5f60f5226d9e1a02137c8b4c","false","null","<div style=""align-items: center; display: flex; color: darkorange; font-size: 90px""><b>ø</b></div>","null","","","","forget_cue","","","","","","","","","","","","","","","",""
"html-keyboard-response","200","526337","0.0-4.0-1.0-0.28","uxlvwmjk9xgp2uy","prime","5f4bd5af6591fd0a0899594f","5f60e3c0a3b16e07647b2ff9","5f60f5226d9e1a02137c8b4c","false","null","<span style=""color: black; font-size: 48px"">M + N</span>","null","","","","resp_prompt","","","","","","","","","","","","","","","",""
"categorize-image","201","527116","0.0-4.0-1.0-1.28","uxlvwmjk9xgp2uy","prime","5f4bd5af6591fd0a0899594f","5f60e3c0a3b16e07647b2ff9","5f60f5226d9e1a02137c8b4c","true","775.8400000166148","./Stimuli/SelectedImages/LM/LM129.bmp","83","","","","test","true","M + N","83","switch","LM","LM129.bmp","forget","","77","3","prime1","left","","","",""
"html-keyboard-response","202","529121","0.0-4.0-1.0-3.28","uxlvwmjk9xgp2uy","prime","5f4bd5af6591fd0a0899594f","5f60e3c0a3b16e07647b2ff9","5f60f5226d9e1a02137c8b4c","false","null","<div style=""align-items: center; display: flex; color: darkorange; font-size: 90px""><b>ø</b></div>","null","","","","forget_cue","","","","","","","","","","","","","","","",""
"html-keyboard-response","203","529827","0.0-4.0-1.0-0.29","uxlvwmjk9xgp2uy","prime","5f4bd5af6591fd0a0899594f","5f60e3c0a3b16e07647b2ff9","5f60f5226d9e1a02137c8b4c","false","null","<span style=""color: black; font-size: 48px"">N + M</span>","null","","","","resp_prompt","","","","","","","","","","","","","","","",""
"categorize-image","204","531180","0.0-4.0-1.0-1.29","uxlvwmjk9xgp2uy","prime","5f4bd5af6591fd0a0899594f","5f60e3c0a3b16e07647b2ff9","5f60f5226d9e1a02137c8b4c","true","1349.9000000301749","./Stimuli/SelectedImages/LM/LM57.bmp","76","","","","test","true","N + M","76","switch","LM","LM57.bmp","remember","","78","3","prime1","right","","","",""
"html-keyboard-response","205","533183","0.0-4.0-1.0-3.29","uxlvwmjk9xgp2uy","prime","5f4bd5af6591fd0a0899594f","5f60e3c0a3b16e07647b2ff9","5f60f5226d9e1a02137c8b4c","false","null","<div style=""align-items: center; display: flex; color: dodgerblue; font-size: 90px""><b>o</b></div>","null","","","","forget_cue","","","","","","","","","","","","","","","",""
"html-keyboard-response","206","533888","0.0-4.0-1.0-0.30","uxlvwmjk9xgp2uy","prime","5f4bd5af6591fd0a0899594f","5f60e3c0a3b16e07647b2ff9","5f60f5226d9e1a02137c8b4c","false","null","<span style=""color: black; font-size: 48px"">N + M</span>","null","","","","resp_prompt","","","","","","","","","","","","","","","",""
"categorize-image","207","534916","0.0-4.0-1.0-1.30","uxlvwmjk9xgp2uy","prime","5f4bd5af6591fd0a0899594f","5f60e3c0a3b16e07647b2ff9","5f60f5226d9e1a02137c8b4c","true","1024.794999975711","./Stimuli/SelectedImages/LM/LM48.bmp","76","","","","test","true","N + M","76","repetition","LM","LM48.bmp","remember","","79","3","prime1","right","","","",""
"html-keyboard-response","208","536922","0.0-4.0-1.0-3.30","uxlvwmjk9xgp2uy","prime","5f4bd5af6591fd0a0899594f","5f60e3c0a3b16e07647b2ff9","5f60f5226d9e1a02137c8b4c","false","null","<div style=""align-items: center; display: flex; color: dodgerblue; font-size: 90px""><b>o</b></div>","null","","","","forget_cue","","","","","","","","","","","","","","","",""
"html-keyboard-response","209","537627","0.0-4.0-1.0-0.31","uxlvwmjk9xgp2uy","prime","5f4bd5af6591fd0a0899594f","5f60e3c0a3b16e07647b2ff9","5f60f5226d9e1a02137c8b4c","false","null","<span style=""color: black; font-size: 48px"">M + N</span>","null","","","","resp_prompt","","","","","","","","","","","","","","","",""
"categorize-image","210","538387","0.0-4.0-1.0-1.31","uxlvwmjk9xgp2uy","prime","5f4bd5af6591fd0a0899594f","5f60e3c0a3b16e07647b2ff9","5f60f5226d9e1a02137c8b4c","true","756.9500000681728","./Stimuli/SelectedImages/SN/SN18.bmp","76","","","","test","true","M + N","76","switch","SN","SN18.bmp","remember","","80","3","prime1","right","","","",""
"html-keyboard-response","211","540392","0.0-4.0-1.0-3.31","uxlvwmjk9xgp2uy","prime","5f4bd5af6591fd0a0899594f","5f60e3c0a3b16e07647b2ff9","5f60f5226d9e1a02137c8b4c","false","null","<div style=""align-items: center; display: flex; color: dodgerblue; font-size: 90px""><b>o</b></div>","null","","","","forget_cue","","","","","","","","","","","","","","","",""
"html-keyboard-response","212","541094","0.0-4.0-1.0-0.32","uxlvwmjk9xgp2uy","prime","5f4bd5af6591fd0a0899594f","5f60e3c0a3b16e07647b2ff9","5f60f5226d9e1a02137c8b4c","false","null","<span style=""color: black; font-size: 48px"">M + N</span>","null","","","","resp_prompt","","","","","","","","","","","","","","","",""
"categorize-image","213","541723","0.0-4.0-1.0-1.32","uxlvwmjk9xgp2uy","prime","5f4bd5af6591fd0a0899594f","5f60e3c0a3b16e07647b2ff9","5f60f5226d9e1a02137c8b4c","true","626.7549999756739","./Stimuli/SelectedImages/LM/LM59.bmp","83","","","","test","true","M + N","83","switch","LM","LM59.bmp","remember","","81","3","prime1","left","","","",""
"html-keyboard-response","214","543729","0.0-4.0-1.0-3.32","uxlvwmjk9xgp2uy","prime","5f4bd5af6591fd0a0899594f","5f60e3c0a3b16e07647b2ff9","5f60f5226d9e1a02137c8b4c","false","null","<div style=""align-items: center; display: flex; color: dodgerblue; font-size: 90px""><b>o</b></div>","null","","","","forget_cue","","","","","","","","","","","","","","","",""
"html-keyboard-response","215","544435","0.0-4.0-1.0-0.33","uxlvwmjk9xgp2uy","prime","5f4bd5af6591fd0a0899594f","5f60e3c0a3b16e07647b2ff9","5f60f5226d9e1a02137c8b4c","false","null","<span style=""color: black; font-size: 48px"">N + M</span>","null","","","","resp_prompt","","","","","","","","","","","","","","","",""
"categorize-image","216","545307","0.0-4.0-1.0-1.33","uxlvwmjk9xgp2uy","prime","5f4bd5af6591fd0a0899594f","5f60e3c0a3b16e07647b2ff9","5f60f5226d9e1a02137c8b4c","true","870.2749999938533","./Stimuli/SelectedImages/SM/SM200.bmp","76","","","","test","true","N + M","76","switch","SM","SM200.bmp","forget","","82","3","prime1","right","","","",""
"html-keyboard-response","217","547313","0.0-4.0-1.0-3.33","uxlvwmjk9xgp2uy","prime","5f4bd5af6591fd0a0899594f","5f60e3c0a3b16e07647b2ff9","5f60f5226d9e1a02137c8b4c","false","null","<div style=""align-items: center; display: flex; color: darkorange; font-size: 90px""><b>ø</b></div>","null","","","","forget_cue","","","","","","","","","","","","","","","",""
"html-keyboard-response","218","548019","0.0-4.0-1.0-0.34","uxlvwmjk9xgp2uy","prime","5f4bd5af6591fd0a0899594f","5f60e3c0a3b16e07647b2ff9","5f60f5226d9e1a02137c8b4c","false","null","<span style=""color: black; font-size: 48px"">M + N</span>","null","","","","resp_prompt","","","","","","","","","","","","","","","",""
"categorize-image","219","548955","0.0-4.0-1.0-1.34","uxlvwmjk9xgp2uy","prime","5f4bd5af6591fd0a0899594f","5f60e3c0a3b16e07647b2ff9","5f60f5226d9e1a02137c8b4c","true","933.2750000758097","./Stimuli/SelectedImages/LN/LN13.bmp","76","","","","test","true","M + N","76","switch","LN","LN13.bmp","forget","","83","3","prime1","right","","","",""
"html-keyboard-response","220","550961","0.0-4.0-1.0-3.34","uxlvwmjk9xgp2uy","prime","5f4bd5af6591fd0a0899594f","5f60e3c0a3b16e07647b2ff9","5f60f5226d9e1a02137c8b4c","false","null","<div style=""align-items: center; display: flex; color: darkorange; font-size: 90px""><b>ø</b></div>","null","","","","forget_cue","","","","","","","","","","","","","","","",""
"html-keyboard-response","221","551667","0.0-4.0-1.0-0.35","uxlvwmjk9xgp2uy","prime","5f4bd5af6591fd0a0899594f","5f60e3c0a3b16e07647b2ff9","5f60f5226d9e1a02137c8b4c","false","null","<span style=""color: black; font-size: 48px"">N + M</span>","null","","","","resp_prompt","","","","","","","","","","","","","","","",""
"categorize-image","222","552563","0.0-4.0-1.0-1.35","uxlvwmjk9xgp2uy","prime","5f4bd5af6591fd0a0899594f","5f60e3c0a3b16e07647b2ff9","5f60f5226d9e1a02137c8b4c","true","893.3899999829009","./Stimuli/SelectedImages/SM/SM128.bmp","76","","","","test","true","N + M","76","repetition","SM","SM128.bmp","forget","","84","3","prime1","right","","","",""
"html-keyboard-response","223","554568","0.0-4.0-1.0-3.35","uxlvwmjk9xgp2uy","prime","5f4bd5af6591fd0a0899594f","5f60e3c0a3b16e07647b2ff9","5f60f5226d9e1a02137c8b4c","false","null","<div style=""align-items: center; display: flex; color: darkorange; font-size: 90px""><b>ø</b></div>","null","","","","forget_cue","","","","","","","","","","","","","","","",""
"html-keyboard-response","224","555274","0.0-4.0-1.0-0.36","uxlvwmjk9xgp2uy","prime","5f4bd5af6591fd0a0899594f","5f60e3c0a3b16e07647b2ff9","5f60f5226d9e1a02137c8b4c","false","null","<span style=""color: black; font-size: 48px"">N + M</span>","null","","","","resp_prompt","","","","","","","","","","","","","","","",""
"categorize-image","225","556099","0.0-4.0-1.0-1.36","uxlvwmjk9xgp2uy","prime","5f4bd5af6591fd0a0899594f","5f60e3c0a3b16e07647b2ff9","5f60f5226d9e1a02137c8b4c","true","822.080000070855","./Stimuli/SelectedImages/LN/LN28.bmp","83","","","","test","true","N + M","83","switch","LN","LN28.bmp","forget","","85","3","prime1","left","","","",""
"html-keyboard-response","226","558102","0.0-4.0-1.0-3.36","uxlvwmjk9xgp2uy","prime","5f4bd5af6591fd0a0899594f","5f60e3c0a3b16e07647b2ff9","5f60f5226d9e1a02137c8b4c","false","null","<div style=""align-items: center; display: flex; color: darkorange; font-size: 90px""><b>ø</b></div>","null","","","","forget_cue","","","","","","","","","","","","","","","",""
"html-keyboard-response","227","558803","0.0-4.0-1.0-0.37","uxlvwmjk9xgp2uy","prime","5f4bd5af6591fd0a0899594f","5f60e3c0a3b16e07647b2ff9","5f60f5226d9e1a02137c8b4c","false","null","<span style=""color: black; font-size: 48px"">M + N</span>","null","","","","resp_prompt","","","","","","","","","","","","","","","",""
"categorize-image","228","559666","0.0-4.0-1.0-1.37","uxlvwmjk9xgp2uy","prime","5f4bd5af6591fd0a0899594f","5f60e3c0a3b16e07647b2ff9","5f60f5226d9e1a02137c8b4c","true","860.8850000891834","./Stimuli/SelectedImages/LM/LM209.bmp","83","","","","test","true","M + N","83","repetition","LM","LM209.bmp","remember","","86","3","prime1","left","","","",""
"html-keyboard-response","229","561669","0.0-4.0-1.0-3.37","uxlvwmjk9xgp2uy","prime","5f4bd5af6591fd0a0899594f","5f60e3c0a3b16e07647b2ff9","5f60f5226d9e1a02137c8b4c","false","null","<div style=""align-items: center; display: flex; color: dodgerblue; font-size: 90px""><b>o</b></div>","null","","","","forget_cue","","","","","","","","","","","","","","","",""
"html-keyboard-response","230","562375","0.0-4.0-1.0-0.38","uxlvwmjk9xgp2uy","prime","5f4bd5af6591fd0a0899594f","5f60e3c0a3b16e07647b2ff9","5f60f5226d9e1a02137c8b4c","false","null","<span style=""color: black; font-size: 48px"">M + N</span>","null","","","","resp_prompt","","","","","","","","","","","","","","","",""
"categorize-image","231","563050","0.0-4.0-1.0-1.38","uxlvwmjk9xgp2uy","prime","5f4bd5af6591fd0a0899594f","5f60e3c0a3b16e07647b2ff9","5f60f5226d9e1a02137c8b4c","true","673.1350000482053","./Stimuli/SelectedImages/LM/LM216.bmp","83","","","","test","true","M + N","83","repetition","LM","LM216.bmp","forget","","87","3","prime1","left","","","",""
"html-keyboard-response","232","565056","0.0-4.0-1.0-3.38","uxlvwmjk9xgp2uy","prime","5f4bd5af6591fd0a0899594f","5f60e3c0a3b16e07647b2ff9","5f60f5226d9e1a02137c8b4c","false","null","<div style=""align-items: center; display: flex; color: darkorange; font-size: 90px""><b>ø</b></div>","null","","","","forget_cue","","","","","","","","","","","","","","","",""
"html-keyboard-response","233","565762","0.0-4.0-1.0-0.39","uxlvwmjk9xgp2uy","prime","5f4bd5af6591fd0a0899594f","5f60e3c0a3b16e07647b2ff9","5f60f5226d9e1a02137c8b4c","false","null","<span style=""color: black; font-size: 48px"">N + M</span>","null","","","","resp_prompt","","","","","","","","","","","","","","","",""
"categorize-image","234","566555","0.0-4.0-1.0-1.39","uxlvwmjk9xgp2uy","prime","5f4bd5af6591fd0a0899594f","5f60e3c0a3b16e07647b2ff9","5f60f5226d9e1a02137c8b4c","true","789.8500000592321","./Stimuli/SelectedImages/SM/SM207.bmp","76","","","","test","true","N + M","76","switch","SM","SM207.bmp","remember","","88","3","prime1","right","","","",""
"html-keyboard-response","235","568560","0.0-4.0-1.0-3.39","uxlvwmjk9xgp2uy","prime","5f4bd5af6591fd0a0899594f","5f60e3c0a3b16e07647b2ff9","5f60f5226d9e1a02137c8b4c","false","null","<div style=""align-items: center; display: flex; color: dodgerblue; font-size: 90px""><b>o</b></div>","null","","","","forget_cue","","","","","","","","","","","","","","","",""
"html-keyboard-response","236","569265","0.0-4.0-1.0-0.40","uxlvwmjk9xgp2uy","prime","5f4bd5af6591fd0a0899594f","5f60e3c0a3b16e07647b2ff9","5f60f5226d9e1a02137c8b4c","false","null","<span style=""color: black; font-size: 48px"">M + N</span>","null","","","","resp_prompt","","","","","","","","","","","","","","","",""
"categorize-image","237","570002","0.0-4.0-1.0-1.40","uxlvwmjk9xgp2uy","prime","5f4bd5af6591fd0a0899594f","5f60e3c0a3b16e07647b2ff9","5f60f5226d9e1a02137c8b4c","true","734.1000000014901","./Stimuli/SelectedImages/SM/SM184.bmp","83","","","","test","true","M + N","83","switch","SM","SM184.bmp","remember","","89","3","prime1","left","","","",""
"html-keyboard-response","238","572005","0.0-4.0-1.0-3.40","uxlvwmjk9xgp2uy","prime","5f4bd5af6591fd0a0899594f","5f60e3c0a3b16e07647b2ff9","5f60f5226d9e1a02137c8b4c","false","null","<div style=""align-items: center; display: flex; color: dodgerblue; font-size: 90px""><b>o</b></div>","null","","","","forget_cue","","","","","","","","","","","","","","","",""
"html-keyboard-response","239","572711","0.0-4.0-1.0-0.41","uxlvwmjk9xgp2uy","prime","5f4bd5af6591fd0a0899594f","5f60e3c0a3b16e07647b2ff9","5f60f5226d9e1a02137c8b4c","false","null","<span style=""color: black; font-size: 48px"">N + M</span>","null","","","","resp_prompt","","","","","","","","","","","","","","","",""
"categorize-image","240","573306","0.0-4.0-1.0-1.41","uxlvwmjk9xgp2uy","prime","5f4bd5af6591fd0a0899594f","5f60e3c0a3b16e07647b2ff9","5f60f5226d9e1a02137c8b4c","true","592.5300000235438","./Stimuli/SelectedImages/SN/SN179.bmp","83","","","","test","true","N + M","83","switch","SN","SN179.bmp","remember","","90","3","prime1","left","","","",""
"html-keyboard-response","241","575310","0.0-4.0-1.0-3.41","uxlvwmjk9xgp2uy","prime","5f4bd5af6591fd0a0899594f","5f60e3c0a3b16e07647b2ff9","5f60f5226d9e1a02137c8b4c","false","null","<div style=""align-items: center; display: flex; color: dodgerblue; font-size: 90px""><b>o</b></div>","null","","","","forget_cue","","","","","","","","","","","","","","","",""
"html-keyboard-response","242","576012","0.0-4.0-1.0-0.42","uxlvwmjk9xgp2uy","prime","5f4bd5af6591fd0a0899594f","5f60e3c0a3b16e07647b2ff9","5f60f5226d9e1a02137c8b4c","false","null","<span style=""color: black; font-size: 48px"">M + N</span>","null","","","","resp_prompt","","","","","","","","","","","","","","","",""
"categorize-image","243","577330","0.0-4.0-1.0-1.42","uxlvwmjk9xgp2uy","prime","5f4bd5af6591fd0a0899594f","5f60e3c0a3b16e07647b2ff9","5f60f5226d9e1a02137c8b4c","true","1315.8149999799207","./Stimuli/SelectedImages/LN/LN82.bmp","76","","","","test","true","M + N","76","switch","LN","LN82.bmp","remember","","91","3","prime1","right","","","",""
"html-keyboard-response","244","579333","0.0-4.0-1.0-3.42","uxlvwmjk9xgp2uy","prime","5f4bd5af6591fd0a0899594f","5f60e3c0a3b16e07647b2ff9","5f60f5226d9e1a02137c8b4c","false","null","<div style=""align-items: center; display: flex; color: dodgerblue; font-size: 90px""><b>o</b></div>","null","","","","forget_cue","","","","","","","","","","","","","","","",""
"html-keyboard-response","245","580039","0.0-4.0-1.0-0.43","uxlvwmjk9xgp2uy","prime","5f4bd5af6591fd0a0899594f","5f60e3c0a3b16e07647b2ff9","5f60f5226d9e1a02137c8b4c","false","null","<span style=""color: black; font-size: 48px"">M + N</span>","null","","","","resp_prompt","","","","","","","","","","","","","","","",""
"categorize-image","246","581330","0.0-4.0-1.0-1.43","uxlvwmjk9xgp2uy","prime","5f4bd5af6591fd0a0899594f","5f60e3c0a3b16e07647b2ff9","5f60f5226d9e1a02137c8b4c","true","1288.1199999246746","./Stimuli/SelectedImages/SM/SM106.bmp","83","","","","test","true","M + N","83","repetition","SM","SM106.bmp","remember","","92","3","prime1","left","","","",""
"html-keyboard-response","247","583335","0.0-4.0-1.0-3.43","uxlvwmjk9xgp2uy","prime","5f4bd5af6591fd0a0899594f","5f60e3c0a3b16e07647b2ff9","5f60f5226d9e1a02137c8b4c","false","null","<div style=""align-items: center; display: flex; color: dodgerblue; font-size: 90px""><b>o</b></div>","null","","","","forget_cue","","","","","","","","","","","","","","","",""
"html-keyboard-response","248","584041","0.0-4.0-1.0-0.44","uxlvwmjk9xgp2uy","prime","5f4bd5af6591fd0a0899594f","5f60e3c0a3b16e07647b2ff9","5f60f5226d9e1a02137c8b4c","false","null","<span style=""color: black; font-size: 48px"">M + N</span>","null","","","","resp_prompt","","","","","","","","","","","","","","","",""
"categorize-image","249","585161","0.0-4.0-1.0-1.44","uxlvwmjk9xgp2uy","prime","5f4bd5af6591fd0a0899594f","5f60e3c0a3b16e07647b2ff9","5f60f5226d9e1a02137c8b4c","true","1117.924999911338","./Stimuli/SelectedImages/SN/SN111.bmp","76","","","","test","true","M + N","76","repetition","SN","SN111.bmp","forget","","93","3","prime1","right","","","",""
"html-keyboard-response","250","587167","0.0-4.0-1.0-3.44","uxlvwmjk9xgp2uy","prime","5f4bd5af6591fd0a0899594f","5f60e3c0a3b16e07647b2ff9","5f60f5226d9e1a02137c8b4c","false","null","<div style=""align-items: center; display: flex; color: darkorange; font-size: 90px""><b>ø</b></div>","null","","","","forget_cue","","","","","","","","","","","","","","","",""
"html-keyboard-response","251","587873","0.0-4.0-1.0-0.45","uxlvwmjk9xgp2uy","prime","5f4bd5af6591fd0a0899594f","5f60e3c0a3b16e07647b2ff9","5f60f5226d9e1a02137c8b4c","false","null","<span style=""color: black; font-size: 48px"">M + N</span>","null","","","","resp_prompt","","","","","","","","","","","","","","","",""
"categorize-image","252","589090","0.0-4.0-1.0-1.45","uxlvwmjk9xgp2uy","prime","5f4bd5af6591fd0a0899594f","5f60e3c0a3b16e07647b2ff9","5f60f5226d9e1a02137c8b4c","true","1213.579999981448","./Stimuli/SelectedImages/SN/SN60.bmp","76","","","","test","true","M + N","76","repetition","SN","SN60.bmp","remember","","94","3","prime1","right","","","",""
