"trial_type","trial_index","time_elapsed","internal_node_id","subject","exp_part","prolific_PID","study_ID","session_ID","use","rt","stimulus","key_press","button_pressed","responses","question_order","trial_part","correct","resp_map","correct_resp","probe_condition","category","image","forget_condition","list","trial_num","block_num","block","response","test_part","n_span","sequence","num_spaces"
"pavlovia","0","7","0.0-0.0","50303yjswuo92fo","","5ebeeb2d47d7182bb7855b52","5f5a55364e9b770ed21874ff","5f60d752196795054b70f2f6","false","","","","","","","","","","","","","","","","","","","","","","",""
"html-keyboard-response","1","19549","0.0-1.0-0.0-0.0","50303yjswuo92fo","welcome","5ebeeb2d47d7182bb7855b52","5f5a55364e9b770ed21874ff","5f60d752196795054b70f2f6","false","19538","<div align=left>Dear participant, <br> thank you for participating in an online study of the Cognition, Action, and Sustainability Unit of the University of Freiburg! <br> <br>The aim of this study is to examine our ability to remember previously learned information. <br>Our goal is to find out, whether our memory improves, when we only remember information that is relevant to us. <br>The experiment will take about 30 minutes to complete. <br> <br>Please, note that you can only participate in this study if you are using a device with a keyboard (PC, Laptop etc.) <br>and not if you are using a mobile device such as a tablet or smartphone.<br> <br>Press 'SPACE' to proceed to the experiment. </div>","32","","","","","","","","","","","","","","","","","","","",""
"html-keyboard-response","2","49585","0.0-1.0-0.0-1.0","50303yjswuo92fo","welcome","5ebeeb2d47d7182bb7855b52","5f5a55364e9b770ed21874ff","5f60d752196795054b70f2f6","false","30033","<div align=left><strong> Time Course of this experiment: </strong> <br><br> <strong> 1.</strong>  First, please fill in some information regarding your demographic data. <br><br> <strong> 2.</strong>  Next, your task will be to classify everyday objects. <br>In addition, you will be asked to remember certain objects and recall them later. <br>Working on these tasks requires your undivided attention and concentration.<br>It is therefore essential that you eliminate any sources of distraction in your  <br>environment and ensure that you will not be disturbed. <br><br><strong> 3.</strong>  At the end of the experiment, you will be asked to answer a few additional questions. <br> <br><strong> Important:</strong> After finishing the experiment, only close the browser window <br> by clicking on the 'end the experiment'-button when you are asked to do so. <br>Closing the browser window prematurely will make the allocation of your participation credit impossible. <br><br> Press 'SPACE' to start the experiment. </div>","32","","","","","","","","","","","","","","","","","","","",""
"html-button-response","3","58359","0.0-1.0-0.0-2.0","50303yjswuo92fo","welcome","5ebeeb2d47d7182bb7855b52","5f5a55364e9b770ed21874ff","5f60d752196795054b70f2f6","true","8772","<div align=left><strong> Informed consent </strong>  <br>The aim of our research is to better understand human behavior and mental processes. <br>In the following study your behavior (e.g. choices, reaction times) will be studied. <br> <br><strong> Voluntariness and Anonymity </strong> <br>Your participation in this study is  <strong> voluntary</strong>.<br>You may withdraw your consent to participate at any time without providing a reason for doing so and without fear of prejudice. <br><br>As no personal data will be collected, <strong>your data and your person cannot be connected after data collection</strong> – the data-set is anonymous. <br>Respectively, deletion of your data will not be possible after data collection has been completed, as we cannot retrace your data-set.<br>The results and anonymized data collected in this study will be published as a scientific publication. <br>This will happen in an <strong>anonymized format</strong>, so that no data can be traced back to a specific person. <br> <br>The anonymized data of this study will be made available to other researchers and/or in a data archive on the Internet as a means of transparency and to enable subsequent re-use. By doing so, this study follows the recommendations of the Deutsche Forschungsgemeinschaft (DFG, German Research Foundation) and Deutsche Gesellschaft für Psychologie (DGPS, German Psychological Society) regarding quality assurance in research.<br>If you have any questions now or after the experiment, please contact our team (experiments@cs.uni-freiburg.de).<br><br><br>I hereby declare, that I understand the above described conditions of participation and I agree to participate under these conditions. <br><br> </div>","","0","","","","","","","","","","","","","","","","","","",""
"html-keyboard-response","4","87540","0.0-1.0-0.0-3.0","50303yjswuo92fo","welcome","5ebeeb2d47d7182bb7855b52","5f5a55364e9b770ed21874ff","5f60d752196795054b70f2f6","false","29177","<div align=left><strong> General information concerning the experiment </strong>  <br> <br>Please follow the instructions:<ol> <li><strong> Do not leave this tab (your browser window) during the experiment and do not reload this tab! </strong>  <br>If you do switch tabs/windows during the experiment (to check your mail or visit another website, for example), <br>the experiment will end automatically and you will <strong>not receive credit</strong> for your participation. <br>Repeated participation or resumption of the experiment is impossible.</li> <br><li>Please close all other programs for the duration of your participation. </li> <br><li>Please mute or turn off your phone and put it out of your reach. </li> <br><li>Please also take off any disturbing accessories (such as wristwatches, bracelets, etc.). </li> <br><li>If you have music playing in the background, please turn it off now. </li> <br></ol>Thank you! <br>Press 'SPACE' to continue. </div>","32","","","","","","","","","","","","","","","","","","","",""
"survey-text","5","91523","0.0-1.0-1.0-0.0","50303yjswuo92fo","demographics","5ebeeb2d47d7182bb7855b52","5f5a55364e9b770ed21874ff","5f60d752196795054b70f2f6","true","3973","","","","{""age"":""29""}","","","","","","","","","","","","","","","","","",""
"survey-multi-choice","6","115041","0.0-1.0-1.0-1.0","50303yjswuo92fo","demographics","5ebeeb2d47d7182bb7855b52","5f5a55364e9b770ed21874ff","5f60d752196795054b70f2f6","true","23510","","","","{""gender"":""female"",""school"":""others"",""education"":""Completed university degree or equivalent""}","[0,1,2]","","","","","","","","","","","","","","","","",""
"html-keyboard-response","7","138758","0.0-1.0-2.0","50303yjswuo92fo","instructions","5ebeeb2d47d7182bb7855b52","5f5a55364e9b770ed21874ff","5f60d752196795054b70f2f6","false","23713","<div align=left> The experiment is now about to start: <br> <br>In the following part, you will be presented pictures of everyday objects. <br>Your first task is to <strong>classify these objects. </strong> <br> <br> You will classify them either as mechanical or non-mechanical objects. <br> <br>Objects that include any kind of technical mechanism (for example, wheels, switches, levers, <br> electronic components) fall under the category of <strong>mechanical</strong> objects. <br>Only objects without any kind of technical mechanism should be classified as <strong>non-mechanical</strong>. <br><br>Press 'SPACE' to continue. </div>","32","","","","","","","","","","","","","","","","","","","",""
"html-keyboard-response","8","182662","0.0-2.0-0.0","50303yjswuo92fo","instructions","5ebeeb2d47d7182bb7855b52","5f5a55364e9b770ed21874ff","5f60d752196795054b70f2f6","false","43902","<div align=justify>You will classify the objects using the <strong>'S'</strong> and the <strong>'L'</strong> keys on your keyboard.<br>For doing so, please place your <strong>left index finger</strong> on the <strong>'S'</strong> key and place your <strong>right index finger</strong> on the <strong>'L'</strong> key. <br><br> Each trial starts with an instruction, indicating which key ('S'/'L') you need to press to classify <br>the object as mechanical (letter M) or non-mechanical (letter N).<br>The instruction <strong>M + N</strong> indicates that, in the current trial, by pressing the left key ('S') you classify the displayed object as mechanical (M) <br> and by pressing the right key ('L') you classify the object as non-mechanical (N). <br>The instruction <strong>N + M</strong> on the other hand indicates that by pressing the left key ('S') you classify the displayed object as non-mechanical (N) <br> and by pressing the right key ('L') you classify the object as mechanical (M). <br><br>Please press the key corresponding to the correct classification as fast as possible as soon as the object is displayed and try to avoid making mistakes.<br>If you do not respond within a 2 second window, a corresponding feedback will be displayed and the next trial will start.<br> The experiment is divided into multiple blocks to give you the opportunity to take a break after each block. <br>First, you can now practice this task. <br><br>Please place your <strong>LEFT INDEX FINGER</strong> on the 'S' key and your <strong>RIGHT INDEX FINGER</strong> on the 'L' key now. <br><br>Press SPACE to continue.</div>","32","","","","","","","","","","","","","","","","","","","",""
"html-keyboard-response","9","197290","0.0-2.0-1.0","50303yjswuo92fo","instructions","5ebeeb2d47d7182bb7855b52","5f5a55364e9b770ed21874ff","5f60d752196795054b70f2f6","false","14627","<div align=left> You will now have time to practice this task.<br><br>Remember: <br> <br><li>Please place your index fingers on the <strong>'S'</strong> and <strong>'L'</strong> keys <br>to respond as fast and accurately as possible.</li><li>Every picture can be classified as either mechanical or non-mechanical.</li><li>If you do not respond in time or commit an error, you will receive a corresponding feedback. </li><li> Please try to respond as <strong> fast </strong> and as <strong> accurately as possible </strong> .<br><li>To ensure optimal results, please minimize distractions and stay focused. </li><br><br>Press SPACE to continue.</div>","32","","","","","","","","","","","","","","","","","","","",""
"html-keyboard-response","10","198009","0.0-2.0-2.0-0.0","50303yjswuo92fo","practice_no_cue","5ebeeb2d47d7182bb7855b52","5f5a55364e9b770ed21874ff","5f60d752196795054b70f2f6","false","null","<span style=""color: black; font-size: 48px"">N + M</span>","null","","","","resp_prompt","","","","","","","","","","","","","","","",""
"categorize-image","11","199918","0.0-2.0-2.0-1.0","50303yjswuo92fo","practice_no_cue","5ebeeb2d47d7182bb7855b52","5f5a55364e9b770ed21874ff","5f60d752196795054b70f2f6","true","1401","./Stimuli/ImagesPractice/SN220.jpg","83","","","","test","true","N + M","83","","SN","SN220.jpg","remember","old","1","1","start","left","","","",""
"html-keyboard-response","12","200633","0.0-2.0-2.0-0.1","50303yjswuo92fo","practice_no_cue","5ebeeb2d47d7182bb7855b52","5f5a55364e9b770ed21874ff","5f60d752196795054b70f2f6","false","null","<span style=""color: black; font-size: 48px"">M + N</span>","null","","","","resp_prompt","","","","","","","","","","","","","","","",""
"categorize-image","13","203054","0.0-2.0-2.0-1.1","50303yjswuo92fo","practice_no_cue","5ebeeb2d47d7182bb7855b52","5f5a55364e9b770ed21874ff","5f60d752196795054b70f2f6","true","1910","./Stimuli/ImagesPractice/SN76.jpg","83","","","","test","false","M + N","76","","SN","SN76.jpg","remember","old","2","1","start","left","","","",""
"html-keyboard-response","14","203758","0.0-2.0-2.0-0.2","50303yjswuo92fo","practice_no_cue","5ebeeb2d47d7182bb7855b52","5f5a55364e9b770ed21874ff","5f60d752196795054b70f2f6","false","null","<span style=""color: black; font-size: 48px"">M + N</span>","null","","","","resp_prompt","","","","","","","","","","","","","","","",""
"categorize-image","15","206116","0.0-2.0-2.0-1.2","50303yjswuo92fo","practice_no_cue","5ebeeb2d47d7182bb7855b52","5f5a55364e9b770ed21874ff","5f60d752196795054b70f2f6","true","1854","./Stimuli/ImagesPractice/SN205.jpg","83","","","","test","false","M + N","76","","SN","SN205.jpg","remember","old","3","1","start","left","","","",""
"html-keyboard-response","16","206830","0.0-2.0-2.0-0.3","50303yjswuo92fo","practice_no_cue","5ebeeb2d47d7182bb7855b52","5f5a55364e9b770ed21874ff","5f60d752196795054b70f2f6","false","null","<span style=""color: black; font-size: 48px"">M + N</span>","null","","","","resp_prompt","","","","","","","","","","","","","","","",""
"categorize-image","17","209080","0.0-2.0-2.0-1.3","50303yjswuo92fo","practice_no_cue","5ebeeb2d47d7182bb7855b52","5f5a55364e9b770ed21874ff","5f60d752196795054b70f2f6","true","1743","./Stimuli/ImagesPractice/SM61.jpg","83","","","","test","true","M + N","83","","SM","SM61.jpg","remember","old","4","1","start","left","","","",""
"html-keyboard-response","18","209783","0.0-2.0-2.0-0.4","50303yjswuo92fo","practice_no_cue","5ebeeb2d47d7182bb7855b52","5f5a55364e9b770ed21874ff","5f60d752196795054b70f2f6","false","null","<span style=""color: black; font-size: 48px"">M + N</span>","null","","","","resp_prompt","","","","","","","","","","","","","","","",""
"categorize-image","19","212280","0.0-2.0-2.0-1.4","50303yjswuo92fo","practice_no_cue","5ebeeb2d47d7182bb7855b52","5f5a55364e9b770ed21874ff","5f60d752196795054b70f2f6","true","1977","./Stimuli/ImagesPractice/SM97.jpg","83","","","","test","true","M + N","83","","SM","SM97.jpg","forget","old","5","1","start","left","","","",""
"html-keyboard-response","20","212985","0.0-2.0-2.0-0.5","50303yjswuo92fo","practice_no_cue","5ebeeb2d47d7182bb7855b52","5f5a55364e9b770ed21874ff","5f60d752196795054b70f2f6","false","null","<span style=""color: black; font-size: 48px"">M + N</span>","null","","","","resp_prompt","","","","","","","","","","","","","","","",""
"categorize-image","21","215300","0.0-2.0-2.0-1.5","50303yjswuo92fo","practice_no_cue","5ebeeb2d47d7182bb7855b52","5f5a55364e9b770ed21874ff","5f60d752196795054b70f2f6","true","1808","./Stimuli/ImagesPractice/LN109.jpg","76","","","","test","true","M + N","76","","LN","LN109.jpg","remember","old","6","1","start","right","","","",""
"html-keyboard-response","22","216002","0.0-2.0-2.0-0.6","50303yjswuo92fo","practice_no_cue","5ebeeb2d47d7182bb7855b52","5f5a55364e9b770ed21874ff","5f60d752196795054b70f2f6","false","null","<span style=""color: black; font-size: 48px"">N + M</span>","null","","","","resp_prompt","","","","","","","","","","","","","","","",""
"categorize-image","23","217870","0.0-2.0-2.0-1.6","50303yjswuo92fo","practice_no_cue","5ebeeb2d47d7182bb7855b52","5f5a55364e9b770ed21874ff","5f60d752196795054b70f2f6","true","1353","./Stimuli/ImagesPractice/SM62.jpg","76","","","","test","true","N + M","76","","SM","SM62.jpg","remember","old","7","1","start","right","","","",""
"html-keyboard-response","24","218585","0.0-2.0-2.0-0.7","50303yjswuo92fo","practice_no_cue","5ebeeb2d47d7182bb7855b52","5f5a55364e9b770ed21874ff","5f60d752196795054b70f2f6","false","null","<span style=""color: black; font-size: 48px"">N + M</span>","null","","","","resp_prompt","","","","","","","","","","","","","","","",""
"categorize-image","25","220484","0.0-2.0-2.0-1.7","50303yjswuo92fo","practice_no_cue","5ebeeb2d47d7182bb7855b52","5f5a55364e9b770ed21874ff","5f60d752196795054b70f2f6","true","1387","./Stimuli/ImagesPractice/LN2.jpg","83","","","","test","true","N + M","83","","LN","LN2.jpg","remember","old","8","1","start","left","","","",""
"html-keyboard-response","26","221198","0.0-2.0-2.0-0.8","50303yjswuo92fo","practice_no_cue","5ebeeb2d47d7182bb7855b52","5f5a55364e9b770ed21874ff","5f60d752196795054b70f2f6","false","null","<span style=""color: black; font-size: 48px"">M + N</span>","null","","","","resp_prompt","","","","","","","","","","","","","","","",""
"categorize-image","27","222453","0.0-2.0-2.0-1.8","50303yjswuo92fo","practice_no_cue","5ebeeb2d47d7182bb7855b52","5f5a55364e9b770ed21874ff","5f60d752196795054b70f2f6","true","741","./Stimuli/ImagesPractice/SN222.jpg","76","","","","test","true","M + N","76","","SN","SN222.jpg","forget","old","9","1","start","right","","","",""
"html-keyboard-response","28","223160","0.0-2.0-2.0-0.9","50303yjswuo92fo","practice_no_cue","5ebeeb2d47d7182bb7855b52","5f5a55364e9b770ed21874ff","5f60d752196795054b70f2f6","false","null","<span style=""color: black; font-size: 48px"">M + N</span>","null","","","","resp_prompt","","","","","","","","","","","","","","","",""
"categorize-image","29","225134","0.0-2.0-2.0-1.9","50303yjswuo92fo","practice_no_cue","5ebeeb2d47d7182bb7855b52","5f5a55364e9b770ed21874ff","5f60d752196795054b70f2f6","true","1456","./Stimuli/ImagesPractice/SM35.jpg","83","","","","test","true","M + N","83","","SM","SM35.jpg","forget","old","10","1","start","left","","","",""
"html-keyboard-response","30","225849","0.0-2.0-2.0-0.10","50303yjswuo92fo","practice_no_cue","5ebeeb2d47d7182bb7855b52","5f5a55364e9b770ed21874ff","5f60d752196795054b70f2f6","false","null","<span style=""color: black; font-size: 48px"">N + M</span>","null","","","","resp_prompt","","","","","","","","","","","","","","","",""
"categorize-image","31","227140","0.0-2.0-2.0-1.10","50303yjswuo92fo","practice_no_cue","5ebeeb2d47d7182bb7855b52","5f5a55364e9b770ed21874ff","5f60d752196795054b70f2f6","true","781","./Stimuli/ImagesPractice/LN4.jpg","83","","","","test","true","N + M","83","","LN","LN4.jpg","forget","old","11","1","start","left","","","",""
"html-keyboard-response","32","227843","0.0-2.0-2.0-0.11","50303yjswuo92fo","practice_no_cue","5ebeeb2d47d7182bb7855b52","5f5a55364e9b770ed21874ff","5f60d752196795054b70f2f6","false","null","<span style=""color: black; font-size: 48px"">M + N</span>","null","","","","resp_prompt","","","","","","","","","","","","","","","",""
"categorize-image","33","229210","0.0-2.0-2.0-1.11","50303yjswuo92fo","practice_no_cue","5ebeeb2d47d7182bb7855b52","5f5a55364e9b770ed21874ff","5f60d752196795054b70f2f6","true","843","./Stimuli/ImagesPractice/SN221.jpg","83","","","","test","false","M + N","76","","SN","SN221.jpg","forget","old","12","1","start","left","","","",""
"html-keyboard-response","34","229913","0.0-2.0-2.0-0.12","50303yjswuo92fo","practice_no_cue","5ebeeb2d47d7182bb7855b52","5f5a55364e9b770ed21874ff","5f60d752196795054b70f2f6","false","null","<span style=""color: black; font-size: 48px"">N + M</span>","null","","","","resp_prompt","","","","","","","","","","","","","","","",""
"categorize-image","35","231694","0.0-2.0-2.0-1.12","50303yjswuo92fo","practice_no_cue","5ebeeb2d47d7182bb7855b52","5f5a55364e9b770ed21874ff","5f60d752196795054b70f2f6","true","1265","./Stimuli/ImagesPractice/LM230.jpg","76","","","","test","true","N + M","76","","LM","LM230.jpg","forget","old","13","1","start","right","","","",""
"html-keyboard-response","36","232398","0.0-2.0-2.0-0.13","50303yjswuo92fo","practice_no_cue","5ebeeb2d47d7182bb7855b52","5f5a55364e9b770ed21874ff","5f60d752196795054b70f2f6","false","null","<span style=""color: black; font-size: 48px"">N + M</span>","null","","","","resp_prompt","","","","","","","","","","","","","","","",""
"categorize-image","37","233956","0.0-2.0-2.0-1.13","50303yjswuo92fo","practice_no_cue","5ebeeb2d47d7182bb7855b52","5f5a55364e9b770ed21874ff","5f60d752196795054b70f2f6","true","1055","./Stimuli/ImagesPractice/SM98.jpg","76","","","","test","true","N + M","76","","SM","SM98.jpg","forget","old","14","1","start","right","","","",""
"html-keyboard-response","38","234670","0.0-2.0-2.0-0.14","50303yjswuo92fo","practice_no_cue","5ebeeb2d47d7182bb7855b52","5f5a55364e9b770ed21874ff","5f60d752196795054b70f2f6","false","null","<span style=""color: black; font-size: 48px"">N + M</span>","null","","","","resp_prompt","","","","","","","","","","","","","","","",""
"categorize-image","39","236206","0.0-2.0-2.0-1.14","50303yjswuo92fo","practice_no_cue","5ebeeb2d47d7182bb7855b52","5f5a55364e9b770ed21874ff","5f60d752196795054b70f2f6","true","1023","./Stimuli/ImagesPractice/LM147.jpg","76","","","","test","true","N + M","76","","LM","LM147.jpg","forget","old","15","1","start","right","","","",""
"html-keyboard-response","40","236908","0.0-2.0-2.0-0.15","50303yjswuo92fo","practice_no_cue","5ebeeb2d47d7182bb7855b52","5f5a55364e9b770ed21874ff","5f60d752196795054b70f2f6","false","null","<span style=""color: black; font-size: 48px"">N + M</span>","null","","","","resp_prompt","","","","","","","","","","","","","","","",""
"categorize-image","41","238360","0.0-2.0-2.0-1.15","50303yjswuo92fo","practice_no_cue","5ebeeb2d47d7182bb7855b52","5f5a55364e9b770ed21874ff","5f60d752196795054b70f2f6","true","929","./Stimuli/ImagesPractice/LN15.jpg","83","","","","test","true","N + M","83","","LN","LN15.jpg","remember","old","16","1","start","left","","","",""
"html-keyboard-response","42","243601","0.0-2.0-3.0","50303yjswuo92fo","break","5ebeeb2d47d7182bb7855b52","5f5a55364e9b770ed21874ff","5f60d752196795054b70f2f6","false","5238","<p style='font-size: 32px;'>Break</><br><br><br><br><br><p style='font-size: 24px;'>In the last block, you committed 3 errors and did not respond in time on 0 trials.
</p><p style='font-size: 24px;'>Try to respond as fast and accurately as possible in the next block as well! </p><p style='font-size: 24px;'>Press SPACE to continue.</p>","32","","","","","","","","","","","","","","","","","","","",""
"html-keyboard-response","43","249676","0.0-2.0-4.0","50303yjswuo92fo","instructions","5ebeeb2d47d7182bb7855b52","5f5a55364e9b770ed21874ff","5f60d752196795054b70f2f6","false","6075","<div align=left> Great!<br><br>Are you ready to continue?<br><br>If you want to reread the instructions and redo the practice trials, <br>please press „Z“. <br><br>Press SPACE to CONTINUE with the experiment when you are ready. </div>","32","","","","","","","","","","","","","","","","","","","",""
"html-keyboard-response","44","292273","0.0-3.0-0.0","50303yjswuo92fo","instructions","5ebeeb2d47d7182bb7855b52","5f5a55364e9b770ed21874ff","5f60d752196795054b70f2f6","false","42595","<div align=left>Great!<br> <strong>Attention</strong>! You will now receive a second, additional task! <br><br>To this point it was you <strong>first task</strong> to correctly <strong>classify objects</strong>. <br><br>As mentioned in the beginning, we aim to examine how well humans can remember previously learned information.<br>We would like to find out whether our memory improves if we only remember information that is relevant to us. <br><br>Therefore, your <strong>second task</strong> will be to <strong>remember</strong> the pictures you are to categorize. <br> After the learning phase, there will be a memory test phase, in which you will be asked to indicate whether you have seen a picture before or not. <br>Some, but not all pictures shown in the learning phase will appear in the memory test phase.<br>After classifying a picture, you will be told whether you should remember it for the memory test phase or not. <br>Thus, some pictures can be forgotten, whereas others have to be remembered. <br><br>Note: From now on, feedback will only be displayed if you responded incorrectly or not in time.<br><br>Press SPACE to continue.</div>","32","","","","","","","","","","","","","","","","","","","",""
"html-keyboard-response","45","308538","0.0-3.0-1.0","50303yjswuo92fo","instructions","5ebeeb2d47d7182bb7855b52","5f5a55364e9b770ed21874ff","5f60d752196795054b70f2f6","false","16264","<div align=left>In the following part, you will thus have to remember only some pictures. <br>Immediately after seeing and classifying the picture, a symbol will be displayed, indicating whether you should remember or forget the previous picture. <br><br>A <span style='color: dodgerblue; font-size: 28px'>O</span> indicates REMEMBER. That means, you have to remember this picture, because it will be tested later. <br><br>A <span style='color: darkorange; font-size:28px'>Ø</span> indicates FORGET. You do not have to remember this picture. <br><br> As you will have to remember a lot of pictures, it will be hard for you to remember all of them. <br>It will put you at an advantage if you instantly forget the pictures you are not asked to remember. <br> This will make it easier for you to remember the pictures that will be tested afterwards. <br><br>Press SPACE to continue.</div>","32","","","","","","","","","","","","","","","","","","","",""
"html-keyboard-response","46","317520","0.0-3.0-2.0","50303yjswuo92fo","instructions","5ebeeb2d47d7182bb7855b52","5f5a55364e9b770ed21874ff","5f60d752196795054b70f2f6","false","8983","<div align=left> Now you have the chance to practice both tasks together.<br><br>Remember: <br> <br><li>Please place your index fingers on the <strong>'S'</strong> and <strong>'L'</strong> keys <br>to respond as fast and accurately as possible.</li><li>Every picture can be classified as either mechanical or non-mechanical.</li><li>If you do not respond in time or commit an error, you will receive a corresponding feedback. <br>Please try to respond as <strong> fast </strong> and as <strong> accurately as possible </strong>.</li><li> Please remember only the to-be-remembered <span style='color: dodgerblue; font-size: 28px'>O</span> pictures. <br></li><li> Please minimize distractions and stay focused. </li><br><br>Press SPACE to START</div>","32","","","","","","","","","","","","","","","","","","","",""
"html-keyboard-response","47","318233","0.0-3.0-3.0-0.0","50303yjswuo92fo","practice_cue","5ebeeb2d47d7182bb7855b52","5f5a55364e9b770ed21874ff","5f60d752196795054b70f2f6","false","null","<span style=""color: black; font-size: 48px"">N + M</span>","null","","","","resp_prompt","","","","","","","","","","","","","","","",""
"categorize-image","48","318994","0.0-3.0-3.0-1.0","50303yjswuo92fo","practice_cue","5ebeeb2d47d7182bb7855b52","5f5a55364e9b770ed21874ff","5f60d752196795054b70f2f6","true","755","./Stimuli/ImagesPractice/SM98.jpg","76","","","","test","true","N + M","76","","SM","SM98.jpg","forget","old","17","2","practice_forget","right","","","",""
"html-keyboard-response","49","321007","0.0-3.0-3.0-3.0","50303yjswuo92fo","practice_cue","5ebeeb2d47d7182bb7855b52","5f5a55364e9b770ed21874ff","5f60d752196795054b70f2f6","false","null","<div style=""align-items: center; display: flex; color: darkorange; font-size: 90px""><b>ø</b></div>","null","","","","forget_cue","","","","","","","","","","","","","","","",""
"html-keyboard-response","50","321720","0.0-3.0-3.0-0.1","50303yjswuo92fo","practice_cue","5ebeeb2d47d7182bb7855b52","5f5a55364e9b770ed21874ff","5f60d752196795054b70f2f6","false","null","<span style=""color: black; font-size: 48px"">M + N</span>","null","","","","resp_prompt","","","","","","","","","","","","","","","",""
"categorize-image","51","322924","0.0-3.0-3.0-1.1","50303yjswuo92fo","practice_cue","5ebeeb2d47d7182bb7855b52","5f5a55364e9b770ed21874ff","5f60d752196795054b70f2f6","true","1202","./Stimuli/ImagesPractice/SN76.jpg","76","","","","test","true","M + N","76","","SN","SN76.jpg","remember","old","18","2","practice_forget","right","","","",""
"html-keyboard-response","52","324943","0.0-3.0-3.0-3.1","50303yjswuo92fo","practice_cue","5ebeeb2d47d7182bb7855b52","5f5a55364e9b770ed21874ff","5f60d752196795054b70f2f6","false","null","<div style=""align-items: center; display: flex; color: dodgerblue; font-size: 90px""><b>o</b></div>","null","","","","forget_cue","","","","","","","","","","","","","","","",""
"html-keyboard-response","53","325657","0.0-3.0-3.0-0.2","50303yjswuo92fo","practice_cue","5ebeeb2d47d7182bb7855b52","5f5a55364e9b770ed21874ff","5f60d752196795054b70f2f6","false","null","<span style=""color: black; font-size: 48px"">N + M</span>","null","","","","resp_prompt","","","","","","","","","","","","","","","",""
"categorize-image","54","326880","0.0-3.0-3.0-1.2","50303yjswuo92fo","practice_cue","5ebeeb2d47d7182bb7855b52","5f5a55364e9b770ed21874ff","5f60d752196795054b70f2f6","true","1221","./Stimuli/ImagesPractice/LN4.jpg","83","","","","test","true","N + M","83","","LN","LN4.jpg","forget","old","19","2","practice_forget","left","","","",""
"html-keyboard-response","55","328902","0.0-3.0-3.0-3.2","50303yjswuo92fo","practice_cue","5ebeeb2d47d7182bb7855b52","5f5a55364e9b770ed21874ff","5f60d752196795054b70f2f6","false","null","<div style=""align-items: center; display: flex; color: darkorange; font-size: 90px""><b>ø</b></div>","null","","","","forget_cue","","","","","","","","","","","","","","","",""
"html-keyboard-response","56","329603","0.0-3.0-3.0-0.3","50303yjswuo92fo","practice_cue","5ebeeb2d47d7182bb7855b52","5f5a55364e9b770ed21874ff","5f60d752196795054b70f2f6","false","null","<span style=""color: black; font-size: 48px"">M + N</span>","null","","","","resp_prompt","","","","","","","","","","","","","","","",""
"categorize-image","57","330652","0.0-3.0-3.0-1.3","50303yjswuo92fo","practice_cue","5ebeeb2d47d7182bb7855b52","5f5a55364e9b770ed21874ff","5f60d752196795054b70f2f6","true","1045","./Stimuli/ImagesPractice/SM35.jpg","83","","","","test","true","M + N","83","","SM","SM35.jpg","forget","old","20","2","practice_forget","left","","","",""
"html-keyboard-response","58","332665","0.0-3.0-3.0-3.3","50303yjswuo92fo","practice_cue","5ebeeb2d47d7182bb7855b52","5f5a55364e9b770ed21874ff","5f60d752196795054b70f2f6","false","null","<div style=""align-items: center; display: flex; color: darkorange; font-size: 90px""><b>ø</b></div>","null","","","","forget_cue","","","","","","","","","","","","","","","",""
"html-keyboard-response","59","333379","0.0-3.0-3.0-0.4","50303yjswuo92fo","practice_cue","5ebeeb2d47d7182bb7855b52","5f5a55364e9b770ed21874ff","5f60d752196795054b70f2f6","false","null","<span style=""color: black; font-size: 48px"">N + M</span>","null","","","","resp_prompt","","","","","","","","","","","","","","","",""
"categorize-image","60","334234","0.0-3.0-3.0-1.4","50303yjswuo92fo","practice_cue","5ebeeb2d47d7182bb7855b52","5f5a55364e9b770ed21874ff","5f60d752196795054b70f2f6","true","853","./Stimuli/ImagesPractice/LN15.jpg","83","","","","test","true","N + M","83","","LN","LN15.jpg","remember","old","21","2","practice_forget","left","","","",""
"html-keyboard-response","61","336238","0.0-3.0-3.0-3.4","50303yjswuo92fo","practice_cue","5ebeeb2d47d7182bb7855b52","5f5a55364e9b770ed21874ff","5f60d752196795054b70f2f6","false","null","<div style=""align-items: center; display: flex; color: dodgerblue; font-size: 90px""><b>o</b></div>","null","","","","forget_cue","","","","","","","","","","","","","","","",""
"html-keyboard-response","62","336943","0.0-3.0-3.0-0.5","50303yjswuo92fo","practice_cue","5ebeeb2d47d7182bb7855b52","5f5a55364e9b770ed21874ff","5f60d752196795054b70f2f6","false","null","<span style=""color: black; font-size: 48px"">M + N</span>","null","","","","resp_prompt","","","","","","","","","","","","","","","",""
"categorize-image","63","337674","0.0-3.0-3.0-1.5","50303yjswuo92fo","practice_cue","5ebeeb2d47d7182bb7855b52","5f5a55364e9b770ed21874ff","5f60d752196795054b70f2f6","true","729","./Stimuli/ImagesPractice/SM97.jpg","83","","","","test","true","M + N","83","","SM","SM97.jpg","forget","old","22","2","practice_forget","left","","","",""
"html-keyboard-response","64","339684","0.0-3.0-3.0-3.5","50303yjswuo92fo","practice_cue","5ebeeb2d47d7182bb7855b52","5f5a55364e9b770ed21874ff","5f60d752196795054b70f2f6","false","null","<div style=""align-items: center; display: flex; color: darkorange; font-size: 90px""><b>ø</b></div>","null","","","","forget_cue","","","","","","","","","","","","","","","",""
"html-keyboard-response","65","340388","0.0-3.0-3.0-0.6","50303yjswuo92fo","practice_cue","5ebeeb2d47d7182bb7855b52","5f5a55364e9b770ed21874ff","5f60d752196795054b70f2f6","false","null","<span style=""color: black; font-size: 48px"">M + N</span>","null","","","","resp_prompt","","","","","","","","","","","","","","","",""
"categorize-image","66","341415","0.0-3.0-3.0-1.6","50303yjswuo92fo","practice_cue","5ebeeb2d47d7182bb7855b52","5f5a55364e9b770ed21874ff","5f60d752196795054b70f2f6","true","1025","./Stimuli/ImagesPractice/SN205.jpg","76","","","","test","true","M + N","76","","SN","SN205.jpg","remember","old","23","2","practice_forget","right","","","",""
"html-keyboard-response","67","343416","0.0-3.0-3.0-3.6","50303yjswuo92fo","practice_cue","5ebeeb2d47d7182bb7855b52","5f5a55364e9b770ed21874ff","5f60d752196795054b70f2f6","false","null","<div style=""align-items: center; display: flex; color: dodgerblue; font-size: 90px""><b>o</b></div>","null","","","","forget_cue","","","","","","","","","","","","","","","",""
"html-keyboard-response","68","344125","0.0-3.0-3.0-0.7","50303yjswuo92fo","practice_cue","5ebeeb2d47d7182bb7855b52","5f5a55364e9b770ed21874ff","5f60d752196795054b70f2f6","false","null","<span style=""color: black; font-size: 48px"">N + M</span>","null","","","","resp_prompt","","","","","","","","","","","","","","","",""
"categorize-image","69","344846","0.0-3.0-3.0-1.7","50303yjswuo92fo","practice_cue","5ebeeb2d47d7182bb7855b52","5f5a55364e9b770ed21874ff","5f60d752196795054b70f2f6","true","719","./Stimuli/ImagesPractice/LN2.jpg","83","","","","test","true","N + M","83","","LN","LN2.jpg","remember","old","24","2","practice_forget","left","","","",""
"html-keyboard-response","70","346851","0.0-3.0-3.0-3.7","50303yjswuo92fo","practice_cue","5ebeeb2d47d7182bb7855b52","5f5a55364e9b770ed21874ff","5f60d752196795054b70f2f6","false","null","<div style=""align-items: center; display: flex; color: dodgerblue; font-size: 90px""><b>o</b></div>","null","","","","forget_cue","","","","","","","","","","","","","","","",""
"html-keyboard-response","71","347556","0.0-3.0-3.0-0.8","50303yjswuo92fo","practice_cue","5ebeeb2d47d7182bb7855b52","5f5a55364e9b770ed21874ff","5f60d752196795054b70f2f6","false","null","<span style=""color: black; font-size: 48px"">N + M</span>","null","","","","resp_prompt","","","","","","","","","","","","","","","",""
"categorize-image","72","348497","0.0-3.0-3.0-1.8","50303yjswuo92fo","practice_cue","5ebeeb2d47d7182bb7855b52","5f5a55364e9b770ed21874ff","5f60d752196795054b70f2f6","true","938","./Stimuli/ImagesPractice/SN220.jpg","83","","","","test","true","N + M","83","","SN","SN220.jpg","remember","old","25","2","practice_forget","left","","","",""
"html-keyboard-response","73","350500","0.0-3.0-3.0-3.8","50303yjswuo92fo","practice_cue","5ebeeb2d47d7182bb7855b52","5f5a55364e9b770ed21874ff","5f60d752196795054b70f2f6","false","null","<div style=""align-items: center; display: flex; color: dodgerblue; font-size: 90px""><b>o</b></div>","null","","","","forget_cue","","","","","","","","","","","","","","","",""
"html-keyboard-response","74","351214","0.0-3.0-3.0-0.9","50303yjswuo92fo","practice_cue","5ebeeb2d47d7182bb7855b52","5f5a55364e9b770ed21874ff","5f60d752196795054b70f2f6","false","null","<span style=""color: black; font-size: 48px"">M + N</span>","null","","","","resp_prompt","","","","","","","","","","","","","","","",""
"categorize-image","75","352316","0.0-3.0-3.0-1.9","50303yjswuo92fo","practice_cue","5ebeeb2d47d7182bb7855b52","5f5a55364e9b770ed21874ff","5f60d752196795054b70f2f6","true","1101","./Stimuli/ImagesPractice/SM61.jpg","83","","","","test","true","M + N","83","","SM","SM61.jpg","remember","old","26","2","practice_forget","left","","","",""
"html-keyboard-response","76","354318","0.0-3.0-3.0-3.9","50303yjswuo92fo","practice_cue","5ebeeb2d47d7182bb7855b52","5f5a55364e9b770ed21874ff","5f60d752196795054b70f2f6","false","null","<div style=""align-items: center; display: flex; color: dodgerblue; font-size: 90px""><b>o</b></div>","null","","","","forget_cue","","","","","","","","","","","","","","","",""
"html-keyboard-response","77","355021","0.0-3.0-3.0-0.10","50303yjswuo92fo","practice_cue","5ebeeb2d47d7182bb7855b52","5f5a55364e9b770ed21874ff","5f60d752196795054b70f2f6","false","null","<span style=""color: black; font-size: 48px"">N + M</span>","null","","","","resp_prompt","","","","","","","","","","","","","","","",""
"categorize-image","78","355823","0.0-3.0-3.0-1.10","50303yjswuo92fo","practice_cue","5ebeeb2d47d7182bb7855b52","5f5a55364e9b770ed21874ff","5f60d752196795054b70f2f6","true","798","./Stimuli/ImagesPractice/SM62.jpg","76","","","","test","true","N + M","76","","SM","SM62.jpg","remember","old","27","2","practice_forget","right","","","",""
"html-keyboard-response","79","357827","0.0-3.0-3.0-3.10","50303yjswuo92fo","practice_cue","5ebeeb2d47d7182bb7855b52","5f5a55364e9b770ed21874ff","5f60d752196795054b70f2f6","false","null","<div style=""align-items: center; display: flex; color: dodgerblue; font-size: 90px""><b>o</b></div>","null","","","","forget_cue","","","","","","","","","","","","","","","",""
"html-keyboard-response","80","358542","0.0-3.0-3.0-0.11","50303yjswuo92fo","practice_cue","5ebeeb2d47d7182bb7855b52","5f5a55364e9b770ed21874ff","5f60d752196795054b70f2f6","false","null","<span style=""color: black; font-size: 48px"">N + M</span>","null","","","","resp_prompt","","","","","","","","","","","","","","","",""
"categorize-image","81","359096","0.0-3.0-3.0-1.11","50303yjswuo92fo","practice_cue","5ebeeb2d47d7182bb7855b52","5f5a55364e9b770ed21874ff","5f60d752196795054b70f2f6","true","551","./Stimuli/ImagesPractice/LM147.jpg","76","","","","test","true","N + M","76","","LM","LM147.jpg","forget","old","28","2","practice_forget","right","","","",""
"html-keyboard-response","82","361113","0.0-3.0-3.0-3.11","50303yjswuo92fo","practice_cue","5ebeeb2d47d7182bb7855b52","5f5a55364e9b770ed21874ff","5f60d752196795054b70f2f6","false","null","<div style=""align-items: center; display: flex; color: darkorange; font-size: 90px""><b>ø</b></div>","null","","","","forget_cue","","","","","","","","","","","","","","","",""
"html-keyboard-response","83","361827","0.0-3.0-3.0-0.12","50303yjswuo92fo","practice_cue","5ebeeb2d47d7182bb7855b52","5f5a55364e9b770ed21874ff","5f60d752196795054b70f2f6","false","null","<span style=""color: black; font-size: 48px"">N + M</span>","null","","","","resp_prompt","","","","","","","","","","","","","","","",""
"categorize-image","84","362536","0.0-3.0-3.0-1.12","50303yjswuo92fo","practice_cue","5ebeeb2d47d7182bb7855b52","5f5a55364e9b770ed21874ff","5f60d752196795054b70f2f6","true","707","./Stimuli/ImagesPractice/LM230.jpg","76","","","","test","true","N + M","76","","LM","LM230.jpg","forget","old","29","2","practice_forget","right","","","",""
"html-keyboard-response","85","364547","0.0-3.0-3.0-3.12","50303yjswuo92fo","practice_cue","5ebeeb2d47d7182bb7855b52","5f5a55364e9b770ed21874ff","5f60d752196795054b70f2f6","false","null","<div style=""align-items: center; display: flex; color: darkorange; font-size: 90px""><b>ø</b></div>","null","","","","forget_cue","","","","","","","","","","","","","","","",""
"html-keyboard-response","86","365251","0.0-3.0-3.0-0.13","50303yjswuo92fo","practice_cue","5ebeeb2d47d7182bb7855b52","5f5a55364e9b770ed21874ff","5f60d752196795054b70f2f6","false","null","<span style=""color: black; font-size: 48px"">M + N</span>","null","","","","resp_prompt","","","","","","","","","","","","","","","",""
"categorize-image","87","366071","0.0-3.0-3.0-1.13","50303yjswuo92fo","practice_cue","5ebeeb2d47d7182bb7855b52","5f5a55364e9b770ed21874ff","5f60d752196795054b70f2f6","true","819","./Stimuli/ImagesPractice/SN222.jpg","76","","","","test","true","M + N","76","","SN","SN222.jpg","forget","old","30","2","practice_forget","right","","","",""
"html-keyboard-response","88","368078","0.0-3.0-3.0-3.13","50303yjswuo92fo","practice_cue","5ebeeb2d47d7182bb7855b52","5f5a55364e9b770ed21874ff","5f60d752196795054b70f2f6","false","null","<div style=""align-items: center; display: flex; color: darkorange; font-size: 90px""><b>ø</b></div>","null","","","","forget_cue","","","","","","","","","","","","","","","",""
"html-keyboard-response","89","368792","0.0-3.0-3.0-0.14","50303yjswuo92fo","practice_cue","5ebeeb2d47d7182bb7855b52","5f5a55364e9b770ed21874ff","5f60d752196795054b70f2f6","false","null","<span style=""color: black; font-size: 48px"">M + N</span>","null","","","","resp_prompt","","","","","","","","","","","","","","","",""
"categorize-image","90","369403","0.0-3.0-3.0-1.14","50303yjswuo92fo","practice_cue","5ebeeb2d47d7182bb7855b52","5f5a55364e9b770ed21874ff","5f60d752196795054b70f2f6","true","609","./Stimuli/ImagesPractice/SN221.jpg","76","","","","test","true","M + N","76","","SN","SN221.jpg","forget","old","31","2","practice_forget","right","","","",""
"html-keyboard-response","91","371406","0.0-3.0-3.0-3.14","50303yjswuo92fo","practice_cue","5ebeeb2d47d7182bb7855b52","5f5a55364e9b770ed21874ff","5f60d752196795054b70f2f6","false","null","<div style=""align-items: center; display: flex; color: darkorange; font-size: 90px""><b>ø</b></div>","null","","","","forget_cue","","","","","","","","","","","","","","","",""
"html-keyboard-response","92","372121","0.0-3.0-3.0-0.15","50303yjswuo92fo","practice_cue","5ebeeb2d47d7182bb7855b52","5f5a55364e9b770ed21874ff","5f60d752196795054b70f2f6","false","null","<span style=""color: black; font-size: 48px"">M + N</span>","null","","","","resp_prompt","","","","","","","","","","","","","","","",""
"categorize-image","93","372816","0.0-3.0-3.0-1.15","50303yjswuo92fo","practice_cue","5ebeeb2d47d7182bb7855b52","5f5a55364e9b770ed21874ff","5f60d752196795054b70f2f6","true","692","./Stimuli/ImagesPractice/LN109.jpg","76","","","","test","true","M + N","76","","LN","LN109.jpg","remember","old","32","2","practice_forget","right","","","",""
"html-keyboard-response","94","374830","0.0-3.0-3.0-3.15","50303yjswuo92fo","practice_cue","5ebeeb2d47d7182bb7855b52","5f5a55364e9b770ed21874ff","5f60d752196795054b70f2f6","false","null","<div style=""align-items: center; display: flex; color: dodgerblue; font-size: 90px""><b>o</b></div>","null","","","","forget_cue","","","","","","","","","","","","","","","",""
"html-keyboard-response","95","379488","0.0-3.0-4.0","50303yjswuo92fo","break","5ebeeb2d47d7182bb7855b52","5f5a55364e9b770ed21874ff","5f60d752196795054b70f2f6","false","4656","<p style='font-size: 32px;'>Break</><br><br><br><br><br><p style='font-size: 24px;'>In the last block, you committed 0 errors and did not respond in time on 0 trials.
</p><p style='font-size: 24px;'>Try to respond as fast and accurately as possible in the next block as well! </p><p style='font-size: 24px;'>Press SPACE to continue.</p>","32","","","","","","","","","","","","","","","","","","","",""
"html-keyboard-response","96","411319","0.0-3.0-5.0","50303yjswuo92fo","instructions","5ebeeb2d47d7182bb7855b52","5f5a55364e9b770ed21874ff","5f60d752196795054b70f2f6","false","31830","<div align=left> Now, to practice, we kindly ask you to remember as many of the to-be-remembered pictures<br>of the previous learning phase as possible.<br><br>The pictures you were instructed to remember were the pictures followed by a <span style='color: dodgerblue; font-size: 28px'>O</span>.<br><br>In this memory test phase, you will also see some new pictures.<br>It is your task to remember whether you were presented with this specific picture in this study so far or not.<br>If you recognize an object (you have already seen it in this study), it is an OLD object. <br>If you do not recognize an object (you have NOT seen it in this study), it is a NEW object. <br><strong> Attention</strong>: As already mentioned, <span style='color: darkorange; font-size:28px'>Ø</span>-pictures will <strong>never</strong> appear in this memory test (neither as new objects). <br><br>Press SPACE to continue. </div>","32","","","","","","","","","","","","","","","","","","","",""
"html-keyboard-response","97","444440","0.0-3.0-6.0","50303yjswuo92fo","instructions","5ebeeb2d47d7182bb7855b52","5f5a55364e9b770ed21874ff","5f60d752196795054b70f2f6","false","33118","<div align=left> M and N no longer will appear on the left/right of the fixation cross. <br>Instead there will be a note at the bottom of the left or right side  <br>indicating which key you should press for an old or new object:  <br> <br>Press the <strong>right</strong> key to classify an object as <strong>old</strong> and press the <strong>left</strong>, to classify an object as <strong>new</strong>.<br>Please classify the objects as new/old by again placing your index finger on the 'S' and 'L' keys <br>and press them accordingly.<br><br><strong>Old:</strong> This object has been presented before. <br><strong>New:</strong> This object has <strong>not</strong> been presented.<br><br>Now please put your right and left index fingers on the 'S' and 'L' keys of your keyboard. <br>Please respond as fast and as accurately as possible!<br><br>Press SPACE to continue. </div>","32","","","","","","","","","","","","","","","","","","","",""
"categorize-image","98","449059","0.0-3.0-7.0-0.0","50303yjswuo92fo","practice_recog","5ebeeb2d47d7182bb7855b52","5f5a55364e9b770ed21874ff","5f60d752196795054b70f2f6","true","4109","./Stimuli/ImagesPractice/LN17.jpg","76","","","","test","true","","76","","LN","LN17.jpg","","new","33","3","practice_recog","right","","","",""
"categorize-image","99","450857","0.0-3.0-7.0-0.1","50303yjswuo92fo","practice_recog","5ebeeb2d47d7182bb7855b52","5f5a55364e9b770ed21874ff","5f60d752196795054b70f2f6","true","1291","./Stimuli/ImagesPractice/SN76.jpg","83","","","","test","true","","83","","SN","SN76.jpg","","old","34","3","practice_recog","left","","","",""
"categorize-image","100","453037","0.0-3.0-7.0-0.2","50303yjswuo92fo","practice_recog","5ebeeb2d47d7182bb7855b52","5f5a55364e9b770ed21874ff","5f60d752196795054b70f2f6","true","1672","./Stimuli/ImagesPractice/LN2.jpg","83","","","","test","true","","83","","LN","LN2.jpg","","old","35","3","practice_recog","left","","","",""
"categorize-image","101","454819","0.0-3.0-7.0-0.3","50303yjswuo92fo","practice_recog","5ebeeb2d47d7182bb7855b52","5f5a55364e9b770ed21874ff","5f60d752196795054b70f2f6","true","1274","./Stimuli/ImagesPractice/LM239.jpg","76","","","","test","true","","76","","LM","LM239.jpg","","new","36","3","practice_recog","right","","","",""
"categorize-image","102","456227","0.0-3.0-7.0-0.4","50303yjswuo92fo","practice_recog","5ebeeb2d47d7182bb7855b52","5f5a55364e9b770ed21874ff","5f60d752196795054b70f2f6","true","904","./Stimuli/ImagesPractice/LM224.jpg","76","","","","test","true","","76","","LM","LM224.jpg","","new","37","3","practice_recog","right","","","",""
"categorize-image","103","457774","0.0-3.0-7.0-0.5","50303yjswuo92fo","practice_recog","5ebeeb2d47d7182bb7855b52","5f5a55364e9b770ed21874ff","5f60d752196795054b70f2f6","true","1031","./Stimuli/ImagesPractice/LN109.jpg","83","","","","test","true","","83","","LN","LN109.jpg","","old","38","3","practice_recog","left","","","",""
"categorize-image","104","459161","0.0-3.0-7.0-0.6","50303yjswuo92fo","practice_recog","5ebeeb2d47d7182bb7855b52","5f5a55364e9b770ed21874ff","5f60d752196795054b70f2f6","true","871","./Stimuli/ImagesPractice/LN72.jpg","76","","","","test","true","","76","","LN","LN72.jpg","","new","39","3","practice_recog","right","","","",""
"categorize-image","105","460547","0.0-3.0-7.0-0.7","50303yjswuo92fo","practice_recog","5ebeeb2d47d7182bb7855b52","5f5a55364e9b770ed21874ff","5f60d752196795054b70f2f6","true","872","./Stimuli/ImagesPractice/SM61.jpg","83","","","","test","true","","83","","SM","SM61.jpg","","old","40","3","practice_recog","left","","","",""
"categorize-image","106","461970","0.0-3.0-7.0-0.8","50303yjswuo92fo","practice_recog","5ebeeb2d47d7182bb7855b52","5f5a55364e9b770ed21874ff","5f60d752196795054b70f2f6","true","919","./Stimuli/ImagesPractice/LN15.jpg","83","","","","test","true","","83","","LN","LN15.jpg","","old","41","3","practice_recog","left","","","",""
"categorize-image","107","463342","0.0-3.0-7.0-0.9","50303yjswuo92fo","practice_recog","5ebeeb2d47d7182bb7855b52","5f5a55364e9b770ed21874ff","5f60d752196795054b70f2f6","true","863","./Stimuli/ImagesPractice/SM37.jpg","76","","","","test","true","","76","","SM","SM37.jpg","","new","42","3","practice_recog","right","","","",""
"categorize-image","108","464866","0.0-3.0-7.0-0.10","50303yjswuo92fo","practice_recog","5ebeeb2d47d7182bb7855b52","5f5a55364e9b770ed21874ff","5f60d752196795054b70f2f6","true","1004","./Stimuli/ImagesPractice/SM62.jpg","83","","","","test","true","","83","","SM","SM62.jpg","","old","43","3","practice_recog","left","","","",""
"categorize-image","109","466222","0.0-3.0-7.0-0.11","50303yjswuo92fo","practice_recog","5ebeeb2d47d7182bb7855b52","5f5a55364e9b770ed21874ff","5f60d752196795054b70f2f6","true","850","./Stimuli/ImagesPractice/LM143.jpg","76","","","","test","true","","76","","LM","LM143.jpg","","new","44","3","practice_recog","right","","","",""
"categorize-image","110","467587","0.0-3.0-7.0-0.12","50303yjswuo92fo","practice_recog","5ebeeb2d47d7182bb7855b52","5f5a55364e9b770ed21874ff","5f60d752196795054b70f2f6","true","863","./Stimuli/ImagesPractice/SN205.jpg","83","","","","test","true","","83","","SN","SN205.jpg","","old","45","3","practice_recog","left","","","",""
"categorize-image","111","470414","0.0-3.0-7.0-0.13","50303yjswuo92fo","practice_recog","5ebeeb2d47d7182bb7855b52","5f5a55364e9b770ed21874ff","5f60d752196795054b70f2f6","true","2313","./Stimuli/ImagesPractice/SN75.jpg","76","","","","test","true","","76","","SN","SN75.jpg","","new","46","3","practice_recog","right","","","",""
"categorize-image","112","471790","0.0-3.0-7.0-0.14","50303yjswuo92fo","practice_recog","5ebeeb2d47d7182bb7855b52","5f5a55364e9b770ed21874ff","5f60d752196795054b70f2f6","true","870","./Stimuli/ImagesPractice/SN220.jpg","76","","","","test","false","","83","","SN","SN220.jpg","","old","47","3","practice_recog","right","","","",""
"categorize-image","113","474202","0.0-3.0-7.0-0.15","50303yjswuo92fo","practice_recog","5ebeeb2d47d7182bb7855b52","5f5a55364e9b770ed21874ff","5f60d752196795054b70f2f6","true","1898","./Stimuli/ImagesPractice/LM55.jpg","76","","","","test","true","","76","","LM","LM55.jpg","","new","48","3","practice_recog","right","","","",""
"html-keyboard-response","114","486348","0.0-3.0-8.0","50303yjswuo92fo","instructions","5ebeeb2d47d7182bb7855b52","5f5a55364e9b770ed21874ff","5f60d752196795054b70f2f6","false","12144","<div align=left> Great!<br><br>Are you ready to continue?<br>If you want to reread the instructions and redo the practice trials, please <br>press „Z“.<br><br>You can proceed when you are ready.<br><br>After the presentation of each object, you will receive an instruction whether to <br>remember or to forget the object.<br>We will test your memory of the following pictures only at the very end of <br>the experiment after all learning blocks are completed. <br><br>Press SPACE to CONTINUE when you are ready. </div>","32","","","","","","","","","","","","","","","","","","","",""
"html-keyboard-response","115","493883","0.0-4.0-0.0","50303yjswuo92fo","instructions","5ebeeb2d47d7182bb7855b52","5f5a55364e9b770ed21874ff","5f60d752196795054b70f2f6","false","7531","<div align=left> The actual experiment is about to start.<br>The practice trials are over!<br><br>Please always respond both fast and accurately!<br><br>Remember: <br> <br><li> Please place your index fingers on the <strong>'S'</strong> and <strong>'L'</strong> keys <br>to respond as fast and accurately as possible.</li><li> Every picture can be classified as either mechanical or non-mechanical.</li><li> If you do not respond in time or commit an error, you will receive a corresponding feedback.<br> Please try to respond as <strong> fast </strong> and as <strong> accurately as possible </strong>.</li><li> Remember the <span style='color: dodgerblue; font-size: 28px'>O</span> pictures. <br></li><li> Please minimize distractions and stay focused. </li><br><br>Press SPACE to START.</div>","32","","","","","","","","","","","","","","","","","","","",""
"html-keyboard-response","116","494605","0.0-4.0-1.0-0.0","50303yjswuo92fo","prime","5ebeeb2d47d7182bb7855b52","5f5a55364e9b770ed21874ff","5f60d752196795054b70f2f6","false","null","<span style=""color: black; font-size: 48px"">N + M</span>","null","","","","resp_prompt","","","","","","","","","","","","","","","",""
"categorize-image","117","495350","0.0-4.0-1.0-1.0","50303yjswuo92fo","prime","5ebeeb2d47d7182bb7855b52","5f5a55364e9b770ed21874ff","5f60d752196795054b70f2f6","true","741","./Stimuli/SelectedImages/LN/LN177.bmp","83","","","","test","true","N + M","83","repetition","LN","LN177.bmp","remember","","49","3","prime1","left","","","",""
"html-keyboard-response","118","497369","0.0-4.0-1.0-3.0","50303yjswuo92fo","prime","5ebeeb2d47d7182bb7855b52","5f5a55364e9b770ed21874ff","5f60d752196795054b70f2f6","false","null","<div style=""align-items: center; display: flex; color: dodgerblue; font-size: 90px""><b>o</b></div>","null","","","","forget_cue","","","","","","","","","","","","","","","",""
"html-keyboard-response","119","498074","0.0-4.0-1.0-0.1","50303yjswuo92fo","prime","5ebeeb2d47d7182bb7855b52","5f5a55364e9b770ed21874ff","5f60d752196795054b70f2f6","false","null","<span style=""color: black; font-size: 48px"">N + M</span>","null","","","","resp_prompt","","","","","","","","","","","","","","","",""
"categorize-image","120","499056","0.0-4.0-1.0-1.1","50303yjswuo92fo","prime","5ebeeb2d47d7182bb7855b52","5f5a55364e9b770ed21874ff","5f60d752196795054b70f2f6","true","979","./Stimuli/SelectedImages/LM/LM157.bmp","76","","","","test","true","N + M","76","switch","LM","LM157.bmp","remember","","50","3","prime1","right","","","",""
"html-keyboard-response","121","501070","0.0-4.0-1.0-3.1","50303yjswuo92fo","prime","5ebeeb2d47d7182bb7855b52","5f5a55364e9b770ed21874ff","5f60d752196795054b70f2f6","false","null","<div style=""align-items: center; display: flex; color: dodgerblue; font-size: 90px""><b>o</b></div>","null","","","","forget_cue","","","","","","","","","","","","","","","",""
"html-keyboard-response","122","501773","0.0-4.0-1.0-0.2","50303yjswuo92fo","prime","5ebeeb2d47d7182bb7855b52","5f5a55364e9b770ed21874ff","5f60d752196795054b70f2f6","false","null","<span style=""color: black; font-size: 48px"">N + M</span>","null","","","","resp_prompt","","","","","","","","","","","","","","","",""
"categorize-image","123","502615","0.0-4.0-1.0-1.2","50303yjswuo92fo","prime","5ebeeb2d47d7182bb7855b52","5f5a55364e9b770ed21874ff","5f60d752196795054b70f2f6","true","839","./Stimuli/SelectedImages/SN/SN187.bmp","83","","","","test","true","N + M","83","switch","SN","SN187.bmp","remember","","51","3","prime1","left","","","",""
"html-keyboard-response","124","504622","0.0-4.0-1.0-3.2","50303yjswuo92fo","prime","5ebeeb2d47d7182bb7855b52","5f5a55364e9b770ed21874ff","5f60d752196795054b70f2f6","false","null","<div style=""align-items: center; display: flex; color: dodgerblue; font-size: 90px""><b>o</b></div>","null","","","","forget_cue","","","","","","","","","","","","","","","",""
"html-keyboard-response","125","505327","0.0-4.0-1.0-0.3","50303yjswuo92fo","prime","5ebeeb2d47d7182bb7855b52","5f5a55364e9b770ed21874ff","5f60d752196795054b70f2f6","false","null","<span style=""color: black; font-size: 48px"">N + M</span>","null","","","","resp_prompt","","","","","","","","","","","","","","","",""
"categorize-image","126","506227","0.0-4.0-1.0-1.3","50303yjswuo92fo","prime","5ebeeb2d47d7182bb7855b52","5f5a55364e9b770ed21874ff","5f60d752196795054b70f2f6","true","897","./Stimuli/SelectedImages/LM/LM103.bmp","76","","","","test","true","N + M","76","switch","LM","LM103.bmp","remember","","52","3","prime1","right","","","",""
"html-keyboard-response","127","508227","0.0-4.0-1.0-3.3","50303yjswuo92fo","prime","5ebeeb2d47d7182bb7855b52","5f5a55364e9b770ed21874ff","5f60d752196795054b70f2f6","false","null","<div style=""align-items: center; display: flex; color: dodgerblue; font-size: 90px""><b>o</b></div>","null","","","","forget_cue","","","","","","","","","","","","","","","",""
"html-keyboard-response","128","508942","0.0-4.0-1.0-0.4","50303yjswuo92fo","prime","5ebeeb2d47d7182bb7855b52","5f5a55364e9b770ed21874ff","5f60d752196795054b70f2f6","false","null","<span style=""color: black; font-size: 48px"">M + N</span>","null","","","","resp_prompt","","","","","","","","","","","","","","","",""
"categorize-image","129","509675","0.0-4.0-1.0-1.4","50303yjswuo92fo","prime","5ebeeb2d47d7182bb7855b52","5f5a55364e9b770ed21874ff","5f60d752196795054b70f2f6","true","731","./Stimuli/SelectedImages/LN/LN59.bmp","76","","","","test","true","M + N","76","switch","LN","LN59.bmp","forget","","53","3","prime1","right","","","",""
"html-keyboard-response","130","511684","0.0-4.0-1.0-3.4","50303yjswuo92fo","prime","5ebeeb2d47d7182bb7855b52","5f5a55364e9b770ed21874ff","5f60d752196795054b70f2f6","false","null","<div style=""align-items: center; display: flex; color: darkorange; font-size: 90px""><b>ø</b></div>","null","","","","forget_cue","","","","","","","","","","","","","","","",""
"html-keyboard-response","131","512387","0.0-4.0-1.0-0.5","50303yjswuo92fo","prime","5ebeeb2d47d7182bb7855b52","5f5a55364e9b770ed21874ff","5f60d752196795054b70f2f6","false","null","<span style=""color: black; font-size: 48px"">N + M</span>","null","","","","resp_prompt","","","","","","","","","","","","","","","",""
"categorize-image","132","513148","0.0-4.0-1.0-1.5","50303yjswuo92fo","prime","5ebeeb2d47d7182bb7855b52","5f5a55364e9b770ed21874ff","5f60d752196795054b70f2f6","true","759","./Stimuli/SelectedImages/LN/LN111.bmp","83","","","","test","true","N + M","83","repetition","LN","LN111.bmp","forget","","54","3","prime1","left","","","",""
"html-keyboard-response","133","515150","0.0-4.0-1.0-3.5","50303yjswuo92fo","prime","5ebeeb2d47d7182bb7855b52","5f5a55364e9b770ed21874ff","5f60d752196795054b70f2f6","false","null","<div style=""align-items: center; display: flex; color: darkorange; font-size: 90px""><b>ø</b></div>","null","","","","forget_cue","","","","","","","","","","","","","","","",""
"html-keyboard-response","134","515853","0.0-4.0-1.0-0.6","50303yjswuo92fo","prime","5ebeeb2d47d7182bb7855b52","5f5a55364e9b770ed21874ff","5f60d752196795054b70f2f6","false","null","<span style=""color: black; font-size: 48px"">M + N</span>","null","","","","resp_prompt","","","","","","","","","","","","","","","",""
"categorize-image","135","516727","0.0-4.0-1.0-1.6","50303yjswuo92fo","prime","5ebeeb2d47d7182bb7855b52","5f5a55364e9b770ed21874ff","5f60d752196795054b70f2f6","true","871","./Stimuli/SelectedImages/LN/LN166.bmp","76","","","","test","true","M + N","76","repetition","LN","LN166.bmp","remember","","55","3","prime1","right","","","",""
"html-keyboard-response","136","518734","0.0-4.0-1.0-3.6","50303yjswuo92fo","prime","5ebeeb2d47d7182bb7855b52","5f5a55364e9b770ed21874ff","5f60d752196795054b70f2f6","false","null","<div style=""align-items: center; display: flex; color: dodgerblue; font-size: 90px""><b>o</b></div>","null","","","","forget_cue","","","","","","","","","","","","","","","",""
"html-keyboard-response","137","519437","0.0-4.0-1.0-0.7","50303yjswuo92fo","prime","5ebeeb2d47d7182bb7855b52","5f5a55364e9b770ed21874ff","5f60d752196795054b70f2f6","false","null","<span style=""color: black; font-size: 48px"">N + M</span>","null","","","","resp_prompt","","","","","","","","","","","","","","","",""
"categorize-image","138","520154","0.0-4.0-1.0-1.7","50303yjswuo92fo","prime","5ebeeb2d47d7182bb7855b52","5f5a55364e9b770ed21874ff","5f60d752196795054b70f2f6","true","715","./Stimuli/SelectedImages/SM/SM207.bmp","76","","","","test","true","N + M","76","switch","SM","SM207.bmp","forget","","56","3","prime1","right","","","",""
"html-keyboard-response","139","522158","0.0-4.0-1.0-3.7","50303yjswuo92fo","prime","5ebeeb2d47d7182bb7855b52","5f5a55364e9b770ed21874ff","5f60d752196795054b70f2f6","false","null","<div style=""align-items: center; display: flex; color: darkorange; font-size: 90px""><b>ø</b></div>","null","","","","forget_cue","","","","","","","","","","","","","","","",""
"html-keyboard-response","140","522862","0.0-4.0-1.0-0.8","50303yjswuo92fo","prime","5ebeeb2d47d7182bb7855b52","5f5a55364e9b770ed21874ff","5f60d752196795054b70f2f6","false","null","<span style=""color: black; font-size: 48px"">M + N</span>","null","","","","resp_prompt","","","","","","","","","","","","","","","",""
"categorize-image","141","523570","0.0-4.0-1.0-1.8","50303yjswuo92fo","prime","5ebeeb2d47d7182bb7855b52","5f5a55364e9b770ed21874ff","5f60d752196795054b70f2f6","true","706","./Stimuli/SelectedImages/LN/LN131.bmp","76","","","","test","true","M + N","76","switch","LN","LN131.bmp","forget","","57","3","prime1","right","","","",""
"html-keyboard-response","142","525583","0.0-4.0-1.0-3.8","50303yjswuo92fo","prime","5ebeeb2d47d7182bb7855b52","5f5a55364e9b770ed21874ff","5f60d752196795054b70f2f6","false","null","<div style=""align-items: center; display: flex; color: darkorange; font-size: 90px""><b>ø</b></div>","null","","","","forget_cue","","","","","","","","","","","","","","","",""
"html-keyboard-response","143","526298","0.0-4.0-1.0-0.9","50303yjswuo92fo","prime","5ebeeb2d47d7182bb7855b52","5f5a55364e9b770ed21874ff","5f60d752196795054b70f2f6","false","null","<span style=""color: black; font-size: 48px"">M + N</span>","null","","","","resp_prompt","","","","","","","","","","","","","","","",""
"categorize-image","144","527047","0.0-4.0-1.0-1.9","50303yjswuo92fo","prime","5ebeeb2d47d7182bb7855b52","5f5a55364e9b770ed21874ff","5f60d752196795054b70f2f6","true","747","./Stimuli/SelectedImages/SN/SN155.bmp","76","","","","test","true","M + N","76","switch","SN","SN155.bmp","forget","","58","3","prime1","right","","","",""
"html-keyboard-response","145","529060","0.0-4.0-1.0-3.9","50303yjswuo92fo","prime","5ebeeb2d47d7182bb7855b52","5f5a55364e9b770ed21874ff","5f60d752196795054b70f2f6","false","null","<div style=""align-items: center; display: flex; color: darkorange; font-size: 90px""><b>ø</b></div>","null","","","","forget_cue","","","","","","","","","","","","","","","",""
"html-keyboard-response","146","529774","0.0-4.0-1.0-0.10","50303yjswuo92fo","prime","5ebeeb2d47d7182bb7855b52","5f5a55364e9b770ed21874ff","5f60d752196795054b70f2f6","false","null","<span style=""color: black; font-size: 48px"">M + N</span>","null","","","","resp_prompt","","","","","","","","","","","","","","","",""
"categorize-image","147","530411","0.0-4.0-1.0-1.10","50303yjswuo92fo","prime","5ebeeb2d47d7182bb7855b52","5f5a55364e9b770ed21874ff","5f60d752196795054b70f2f6","true","634","./Stimuli/SelectedImages/LM/LM51.bmp","83","","","","test","true","M + N","83","switch","LM","LM51.bmp","remember","","59","3","prime1","left","","","",""
"html-keyboard-response","148","532430","0.0-4.0-1.0-3.10","50303yjswuo92fo","prime","5ebeeb2d47d7182bb7855b52","5f5a55364e9b770ed21874ff","5f60d752196795054b70f2f6","false","null","<div style=""align-items: center; display: flex; color: dodgerblue; font-size: 90px""><b>o</b></div>","null","","","","forget_cue","","","","","","","","","","","","","","","",""
"html-keyboard-response","149","533134","0.0-4.0-1.0-0.11","50303yjswuo92fo","prime","5ebeeb2d47d7182bb7855b52","5f5a55364e9b770ed21874ff","5f60d752196795054b70f2f6","false","null","<span style=""color: black; font-size: 48px"">M + N</span>","null","","","","resp_prompt","","","","","","","","","","","","","","","",""
"categorize-image","150","534053","0.0-4.0-1.0-1.11","50303yjswuo92fo","prime","5ebeeb2d47d7182bb7855b52","5f5a55364e9b770ed21874ff","5f60d752196795054b70f2f6","true","918","./Stimuli/SelectedImages/SM/SM73.bmp","83","","","","test","true","M + N","83","repetition","SM","SM73.bmp","forget","","60","3","prime1","left","","","",""
"html-keyboard-response","151","536068","0.0-4.0-1.0-3.11","50303yjswuo92fo","prime","5ebeeb2d47d7182bb7855b52","5f5a55364e9b770ed21874ff","5f60d752196795054b70f2f6","false","null","<div style=""align-items: center; display: flex; color: darkorange; font-size: 90px""><b>ø</b></div>","null","","","","forget_cue","","","","","","","","","","","","","","","",""
"html-keyboard-response","152","536782","0.0-4.0-1.0-0.12","50303yjswuo92fo","prime","5ebeeb2d47d7182bb7855b52","5f5a55364e9b770ed21874ff","5f60d752196795054b70f2f6","false","null","<span style=""color: black; font-size: 48px"">M + N</span>","null","","","","resp_prompt","","","","","","","","","","","","","","","",""
"categorize-image","153","537411","0.0-4.0-1.0-1.12","50303yjswuo92fo","prime","5ebeeb2d47d7182bb7855b52","5f5a55364e9b770ed21874ff","5f60d752196795054b70f2f6","true","628","./Stimuli/SelectedImages/SM/SM108.bmp","83","","","","test","true","M + N","83","switch","SM","SM108.bmp","forget","","61","3","prime1","left","","","",""
"html-keyboard-response","154","539427","0.0-4.0-1.0-3.12","50303yjswuo92fo","prime","5ebeeb2d47d7182bb7855b52","5f5a55364e9b770ed21874ff","5f60d752196795054b70f2f6","false","null","<div style=""align-items: center; display: flex; color: darkorange; font-size: 90px""><b>ø</b></div>","null","","","","forget_cue","","","","","","","","","","","","","","","",""
"html-keyboard-response","155","540131","0.0-4.0-1.0-0.13","50303yjswuo92fo","prime","5ebeeb2d47d7182bb7855b52","5f5a55364e9b770ed21874ff","5f60d752196795054b70f2f6","false","null","<span style=""color: black; font-size: 48px"">M + N</span>","null","","","","resp_prompt","","","","","","","","","","","","","","","",""
"categorize-image","156","541031","0.0-4.0-1.0-1.13","50303yjswuo92fo","prime","5ebeeb2d47d7182bb7855b52","5f5a55364e9b770ed21874ff","5f60d752196795054b70f2f6","true","896","./Stimuli/SelectedImages/SN/SN64.bmp","76","","","","test","true","M + N","76","repetition","SN","SN64.bmp","remember","","62","3","prime1","right","","","",""
"html-keyboard-response","157","543036","0.0-4.0-1.0-3.13","50303yjswuo92fo","prime","5ebeeb2d47d7182bb7855b52","5f5a55364e9b770ed21874ff","5f60d752196795054b70f2f6","false","null","<div style=""align-items: center; display: flex; color: dodgerblue; font-size: 90px""><b>o</b></div>","null","","","","forget_cue","","","","","","","","","","","","","","","",""
"html-keyboard-response","158","543736","0.0-4.0-1.0-0.14","50303yjswuo92fo","prime","5ebeeb2d47d7182bb7855b52","5f5a55364e9b770ed21874ff","5f60d752196795054b70f2f6","false","null","<span style=""color: black; font-size: 48px"">N + M</span>","null","","","","resp_prompt","","","","","","","","","","","","","","","",""
"categorize-image","159","544532","0.0-4.0-1.0-1.14","50303yjswuo92fo","prime","5ebeeb2d47d7182bb7855b52","5f5a55364e9b770ed21874ff","5f60d752196795054b70f2f6","true","793","./Stimuli/SelectedImages/SN/SN128.bmp","83","","","","test","true","N + M","83","repetition","SN","SN128.bmp","remember","","63","3","prime1","left","","","",""
"html-keyboard-response","160","546542","0.0-4.0-1.0-3.14","50303yjswuo92fo","prime","5ebeeb2d47d7182bb7855b52","5f5a55364e9b770ed21874ff","5f60d752196795054b70f2f6","false","null","<div style=""align-items: center; display: flex; color: dodgerblue; font-size: 90px""><b>o</b></div>","null","","","","forget_cue","","","","","","","","","","","","","","","",""
"html-keyboard-response","161","547246","0.0-4.0-1.0-0.15","50303yjswuo92fo","prime","5ebeeb2d47d7182bb7855b52","5f5a55364e9b770ed21874ff","5f60d752196795054b70f2f6","false","null","<span style=""color: black; font-size: 48px"">N + M</span>","null","","","","resp_prompt","","","","","","","","","","","","","","","",""
"categorize-image","162","548029","0.0-4.0-1.0-1.15","50303yjswuo92fo","prime","5ebeeb2d47d7182bb7855b52","5f5a55364e9b770ed21874ff","5f60d752196795054b70f2f6","true","780","./Stimuli/SelectedImages/SM/SM17.bmp","76","","","","test","true","N + M","76","repetition","SM","SM17.bmp","remember","","64","3","prime1","right","","","",""
"html-keyboard-response","163","550030","0.0-4.0-1.0-3.15","50303yjswuo92fo","prime","5ebeeb2d47d7182bb7855b52","5f5a55364e9b770ed21874ff","5f60d752196795054b70f2f6","false","null","<div style=""align-items: center; display: flex; color: dodgerblue; font-size: 90px""><b>o</b></div>","null","","","","forget_cue","","","","","","","","","","","","","","","",""
"html-keyboard-response","164","550734","0.0-4.0-1.0-0.16","50303yjswuo92fo","prime","5ebeeb2d47d7182bb7855b52","5f5a55364e9b770ed21874ff","5f60d752196795054b70f2f6","false","null","<span style=""color: black; font-size: 48px"">M + N</span>","null","","","","resp_prompt","","","","","","","","","","","","","","","",""
"categorize-image","165","551377","0.0-4.0-1.0-1.16","50303yjswuo92fo","prime","5ebeeb2d47d7182bb7855b52","5f5a55364e9b770ed21874ff","5f60d752196795054b70f2f6","true","642","./Stimuli/SelectedImages/SN/SN49.bmp","76","","","","test","true","M + N","76","switch","SN","SN49.bmp","remember","","65","3","prime1","right","","","",""
"html-keyboard-response","166","553379","0.0-4.0-1.0-3.16","50303yjswuo92fo","prime","5ebeeb2d47d7182bb7855b52","5f5a55364e9b770ed21874ff","5f60d752196795054b70f2f6","false","null","<div style=""align-items: center; display: flex; color: dodgerblue; font-size: 90px""><b>o</b></div>","null","","","","forget_cue","","","","","","","","","","","","","","","",""
"html-keyboard-response","167","554084","0.0-4.0-1.0-0.17","50303yjswuo92fo","prime","5ebeeb2d47d7182bb7855b52","5f5a55364e9b770ed21874ff","5f60d752196795054b70f2f6","false","null","<span style=""color: black; font-size: 48px"">N + M</span>","null","","","","resp_prompt","","","","","","","","","","","","","","","",""
"categorize-image","168","554718","0.0-4.0-1.0-1.17","50303yjswuo92fo","prime","5ebeeb2d47d7182bb7855b52","5f5a55364e9b770ed21874ff","5f60d752196795054b70f2f6","true","633","./Stimuli/SelectedImages/SM/SM128.bmp","76","","","","test","true","N + M","76","repetition","SM","SM128.bmp","forget","","66","3","prime1","right","","","",""
"html-keyboard-response","169","556729","0.0-4.0-1.0-3.17","50303yjswuo92fo","prime","5ebeeb2d47d7182bb7855b52","5f5a55364e9b770ed21874ff","5f60d752196795054b70f2f6","false","null","<div style=""align-items: center; display: flex; color: darkorange; font-size: 90px""><b>ø</b></div>","null","","","","forget_cue","","","","","","","","","","","","","","","",""
"html-keyboard-response","170","557433","0.0-4.0-1.0-0.18","50303yjswuo92fo","prime","5ebeeb2d47d7182bb7855b52","5f5a55364e9b770ed21874ff","5f60d752196795054b70f2f6","false","null","<span style=""color: black; font-size: 48px"">M + N</span>","null","","","","resp_prompt","","","","","","","","","","","","","","","",""
"categorize-image","171","558139","0.0-4.0-1.0-1.18","50303yjswuo92fo","prime","5ebeeb2d47d7182bb7855b52","5f5a55364e9b770ed21874ff","5f60d752196795054b70f2f6","true","704","./Stimuli/SelectedImages/LM/LM179.bmp","83","","","","test","true","M + N","83","repetition","LM","LM179.bmp","forget","","67","3","prime1","left","","","",""
"html-keyboard-response","172","560142","0.0-4.0-1.0-3.18","50303yjswuo92fo","prime","5ebeeb2d47d7182bb7855b52","5f5a55364e9b770ed21874ff","5f60d752196795054b70f2f6","false","null","<div style=""align-items: center; display: flex; color: darkorange; font-size: 90px""><b>ø</b></div>","null","","","","forget_cue","","","","","","","","","","","","","","","",""
"html-keyboard-response","173","560846","0.0-4.0-1.0-0.19","50303yjswuo92fo","prime","5ebeeb2d47d7182bb7855b52","5f5a55364e9b770ed21874ff","5f60d752196795054b70f2f6","false","null","<span style=""color: black; font-size: 48px"">M + N</span>","null","","","","resp_prompt","","","","","","","","","","","","","","","",""
"categorize-image","174","561625","0.0-4.0-1.0-1.19","50303yjswuo92fo","prime","5ebeeb2d47d7182bb7855b52","5f5a55364e9b770ed21874ff","5f60d752196795054b70f2f6","true","776","./Stimuli/SelectedImages/LM/LM59.bmp","83","","","","test","true","M + N","83","repetition","LM","LM59.bmp","forget","","68","3","prime1","left","","","",""
"html-keyboard-response","175","563641","0.0-4.0-1.0-3.19","50303yjswuo92fo","prime","5ebeeb2d47d7182bb7855b52","5f5a55364e9b770ed21874ff","5f60d752196795054b70f2f6","false","null","<div style=""align-items: center; display: flex; color: darkorange; font-size: 90px""><b>ø</b></div>","null","","","","forget_cue","","","","","","","","","","","","","","","",""
"html-keyboard-response","176","564344","0.0-4.0-1.0-0.20","50303yjswuo92fo","prime","5ebeeb2d47d7182bb7855b52","5f5a55364e9b770ed21874ff","5f60d752196795054b70f2f6","false","null","<span style=""color: black; font-size: 48px"">N + M</span>","null","","","","resp_prompt","","","","","","","","","","","","","","","",""
"categorize-image","177","564946","0.0-4.0-1.0-1.20","50303yjswuo92fo","prime","5ebeeb2d47d7182bb7855b52","5f5a55364e9b770ed21874ff","5f60d752196795054b70f2f6","true","599","./Stimuli/SelectedImages/LM/LM100.bmp","76","","","","test","true","N + M","76","switch","LM","LM100.bmp","forget","","69","3","prime1","right","","","",""
"html-keyboard-response","178","566948","0.0-4.0-1.0-3.20","50303yjswuo92fo","prime","5ebeeb2d47d7182bb7855b52","5f5a55364e9b770ed21874ff","5f60d752196795054b70f2f6","false","null","<div style=""align-items: center; display: flex; color: darkorange; font-size: 90px""><b>ø</b></div>","null","","","","forget_cue","","","","","","","","","","","","","","","",""
"html-keyboard-response","179","567651","0.0-4.0-1.0-0.21","50303yjswuo92fo","prime","5ebeeb2d47d7182bb7855b52","5f5a55364e9b770ed21874ff","5f60d752196795054b70f2f6","false","null","<span style=""color: black; font-size: 48px"">N + M</span>","null","","","","resp_prompt","","","","","","","","","","","","","","","",""
"categorize-image","180","568936","0.0-4.0-1.0-1.21","50303yjswuo92fo","prime","5ebeeb2d47d7182bb7855b52","5f5a55364e9b770ed21874ff","5f60d752196795054b70f2f6","true","1283","./Stimuli/SelectedImages/LN/LN150.bmp","83","","","","test","true","N + M","83","repetition","LN","LN150.bmp","remember","","70","3","prime1","left","","","",""
"html-keyboard-response","181","570948","0.0-4.0-1.0-3.21","50303yjswuo92fo","prime","5ebeeb2d47d7182bb7855b52","5f5a55364e9b770ed21874ff","5f60d752196795054b70f2f6","false","null","<div style=""align-items: center; display: flex; color: dodgerblue; font-size: 90px""><b>o</b></div>","null","","","","forget_cue","","","","","","","","","","","","","","","",""
"html-keyboard-response","182","571661","0.0-4.0-1.0-0.22","50303yjswuo92fo","prime","5ebeeb2d47d7182bb7855b52","5f5a55364e9b770ed21874ff","5f60d752196795054b70f2f6","false","null","<span style=""color: black; font-size: 48px"">N + M</span>","null","","","","resp_prompt","","","","","","","","","","","","","","","",""
"categorize-image","183","572280","0.0-4.0-1.0-1.22","50303yjswuo92fo","prime","5ebeeb2d47d7182bb7855b52","5f5a55364e9b770ed21874ff","5f60d752196795054b70f2f6","true","616","./Stimuli/SelectedImages/LM/LM58.bmp","76","","","","test","true","N + M","76","repetition","LM","LM58.bmp","remember","","71","3","prime1","right","","","",""
"html-keyboard-response","184","574296","0.0-4.0-1.0-3.22","50303yjswuo92fo","prime","5ebeeb2d47d7182bb7855b52","5f5a55364e9b770ed21874ff","5f60d752196795054b70f2f6","false","null","<div style=""align-items: center; display: flex; color: dodgerblue; font-size: 90px""><b>o</b></div>","null","","","","forget_cue","","","","","","","","","","","","","","","",""
"html-keyboard-response","185","575011","0.0-4.0-1.0-0.23","50303yjswuo92fo","prime","5ebeeb2d47d7182bb7855b52","5f5a55364e9b770ed21874ff","5f60d752196795054b70f2f6","false","null","<span style=""color: black; font-size: 48px"">M + N</span>","null","","","","resp_prompt","","","","","","","","","","","","","","","",""
"categorize-image","186","575796","0.0-4.0-1.0-1.23","50303yjswuo92fo","prime","5ebeeb2d47d7182bb7855b52","5f5a55364e9b770ed21874ff","5f60d752196795054b70f2f6","true","783","./Stimuli/SelectedImages/LN/LN12.bmp","76","","","","test","true","M + N","76","repetition","LN","LN12.bmp","forget","","72","3","prime1","right","","","",""
"html-keyboard-response","187","577816","0.0-4.0-1.0-3.23","50303yjswuo92fo","prime","5ebeeb2d47d7182bb7855b52","5f5a55364e9b770ed21874ff","5f60d752196795054b70f2f6","false","null","<div style=""align-items: center; display: flex; color: darkorange; font-size: 90px""><b>ø</b></div>","null","","","","forget_cue","","","","","","","","","","","","","","","",""
"html-keyboard-response","188","578521","0.0-4.0-1.0-0.24","50303yjswuo92fo","prime","5ebeeb2d47d7182bb7855b52","5f5a55364e9b770ed21874ff","5f60d752196795054b70f2f6","false","null","<span style=""color: black; font-size: 48px"">M + N</span>","null","","","","resp_prompt","","","","","","","","","","","","","","","",""
"categorize-image","189","579365","0.0-4.0-1.0-1.24","50303yjswuo92fo","prime","5ebeeb2d47d7182bb7855b52","5f5a55364e9b770ed21874ff","5f60d752196795054b70f2f6","true","840","./Stimuli/SelectedImages/SM/SM195.bmp","83","","","","test","true","M + N","83","switch","SM","SM195.bmp","remember","","73","3","prime1","left","","","",""
"html-keyboard-response","190","581379","0.0-4.0-1.0-3.24","50303yjswuo92fo","prime","5ebeeb2d47d7182bb7855b52","5f5a55364e9b770ed21874ff","5f60d752196795054b70f2f6","false","null","<div style=""align-items: center; display: flex; color: dodgerblue; font-size: 90px""><b>o</b></div>","null","","","","forget_cue","","","","","","","","","","","","","","","",""
"html-keyboard-response","191","582095","0.0-4.0-1.0-0.25","50303yjswuo92fo","prime","5ebeeb2d47d7182bb7855b52","5f5a55364e9b770ed21874ff","5f60d752196795054b70f2f6","false","null","<span style=""color: black; font-size: 48px"">M + N</span>","null","","","","resp_prompt","","","","","","","","","","","","","","","",""
"categorize-image","192","582751","0.0-4.0-1.0-1.25","50303yjswuo92fo","prime","5ebeeb2d47d7182bb7855b52","5f5a55364e9b770ed21874ff","5f60d752196795054b70f2f6","true","653","./Stimuli/SelectedImages/SM/SM200.bmp","83","","","","test","true","M + N","83","switch","SM","SM200.bmp","forget","","74","3","prime1","left","","","",""
"html-keyboard-response","193","584771","0.0-4.0-1.0-3.25","50303yjswuo92fo","prime","5ebeeb2d47d7182bb7855b52","5f5a55364e9b770ed21874ff","5f60d752196795054b70f2f6","false","null","<div style=""align-items: center; display: flex; color: darkorange; font-size: 90px""><b>ø</b></div>","null","","","","forget_cue","","","","","","","","","","","","","","","",""
"html-keyboard-response","194","585486","0.0-4.0-1.0-0.26","50303yjswuo92fo","prime","5ebeeb2d47d7182bb7855b52","5f5a55364e9b770ed21874ff","5f60d752196795054b70f2f6","false","null","<span style=""color: black; font-size: 48px"">M + N</span>","null","","","","resp_prompt","","","","","","","","","","","","","","","",""
"categorize-image","195","586277","0.0-4.0-1.0-1.26","50303yjswuo92fo","prime","5ebeeb2d47d7182bb7855b52","5f5a55364e9b770ed21874ff","5f60d752196795054b70f2f6","true","789","./Stimuli/SelectedImages/SN/SN18.bmp","76","","","","test","true","M + N","76","switch","SN","SN18.bmp","remember","","75","3","prime1","right","","","",""
"html-keyboard-response","196","588291","0.0-4.0-1.0-3.26","50303yjswuo92fo","prime","5ebeeb2d47d7182bb7855b52","5f5a55364e9b770ed21874ff","5f60d752196795054b70f2f6","false","null","<div style=""align-items: center; display: flex; color: dodgerblue; font-size: 90px""><b>o</b></div>","null","","","","forget_cue","","","","","","","","","","","","","","","",""
"html-keyboard-response","197","589006","0.0-4.0-1.0-0.27","50303yjswuo92fo","prime","5ebeeb2d47d7182bb7855b52","5f5a55364e9b770ed21874ff","5f60d752196795054b70f2f6","false","null","<span style=""color: black; font-size: 48px"">N + M</span>","null","","","","resp_prompt","","","","","","","","","","","","","","","",""
"categorize-image","198","589694","0.0-4.0-1.0-1.27","50303yjswuo92fo","prime","5ebeeb2d47d7182bb7855b52","5f5a55364e9b770ed21874ff","5f60d752196795054b70f2f6","true","686","./Stimuli/SelectedImages/SM/SM76.bmp","76","","","","test","true","N + M","76","switch","SM","SM76.bmp","remember","","76","3","prime1","right","","","",""
"html-keyboard-response","199","591719","0.0-4.0-1.0-3.27","50303yjswuo92fo","prime","5ebeeb2d47d7182bb7855b52","5f5a55364e9b770ed21874ff","5f60d752196795054b70f2f6","false","null","<div style=""align-items: center; display: flex; color: dodgerblue; font-size: 90px""><b>o</b></div>","null","","","","forget_cue","","","","","","","","","","","","","","","",""
"html-keyboard-response","200","592440","0.0-4.0-1.0-0.28","50303yjswuo92fo","prime","5ebeeb2d47d7182bb7855b52","5f5a55364e9b770ed21874ff","5f60d752196795054b70f2f6","false","null","<span style=""color: black; font-size: 48px"">M + N</span>","null","","","","resp_prompt","","","","","","","","","","","","","","","",""
"categorize-image","201","593289","0.0-4.0-1.0-1.28","50303yjswuo92fo","prime","5ebeeb2d47d7182bb7855b52","5f5a55364e9b770ed21874ff","5f60d752196795054b70f2f6","true","846","./Stimuli/SelectedImages/SN/SN60.bmp","76","","","","test","true","M + N","76","switch","SN","SN60.bmp","forget","","77","3","prime1","right","","","",""
"html-keyboard-response","202","595305","0.0-4.0-1.0-3.28","50303yjswuo92fo","prime","5ebeeb2d47d7182bb7855b52","5f5a55364e9b770ed21874ff","5f60d752196795054b70f2f6","false","null","<div style=""align-items: center; display: flex; color: darkorange; font-size: 90px""><b>ø</b></div>","null","","","","forget_cue","","","","","","","","","","","","","","","",""
"html-keyboard-response","203","596024","0.0-4.0-1.0-0.29","50303yjswuo92fo","prime","5ebeeb2d47d7182bb7855b52","5f5a55364e9b770ed21874ff","5f60d752196795054b70f2f6","false","null","<span style=""color: black; font-size: 48px"">N + M</span>","null","","","","resp_prompt","","","","","","","","","","","","","","","",""
"categorize-image","204","596557","0.0-4.0-1.0-1.29","50303yjswuo92fo","prime","5ebeeb2d47d7182bb7855b52","5f5a55364e9b770ed21874ff","5f60d752196795054b70f2f6","true","529","./Stimuli/SelectedImages/SM/SM24.bmp","76","","","","test","true","N + M","76","repetition","SM","SM24.bmp","remember","","78","3","prime1","right","","","",""
"html-keyboard-response","205","598574","0.0-4.0-1.0-3.29","50303yjswuo92fo","prime","5ebeeb2d47d7182bb7855b52","5f5a55364e9b770ed21874ff","5f60d752196795054b70f2f6","false","null","<div style=""align-items: center; display: flex; color: dodgerblue; font-size: 90px""><b>o</b></div>","null","","","","forget_cue","","","","","","","","","","","","","","","",""
"html-keyboard-response","206","599279","0.0-4.0-1.0-0.30","50303yjswuo92fo","prime","5ebeeb2d47d7182bb7855b52","5f5a55364e9b770ed21874ff","5f60d752196795054b70f2f6","false","null","<span style=""color: black; font-size: 48px"">N + M</span>","null","","","","resp_prompt","","","","","","","","","","","","","","","",""
"categorize-image","207","600511","0.0-4.0-1.0-1.30","50303yjswuo92fo","prime","5ebeeb2d47d7182bb7855b52","5f5a55364e9b770ed21874ff","5f60d752196795054b70f2f6","true","1230","./Stimuli/SelectedImages/LN/LN82.bmp","83","","","","test","true","N + M","83","repetition","LN","LN82.bmp","forget","","79","3","prime1","left","","","",""
"html-keyboard-response","208","602531","0.0-4.0-1.0-3.30","50303yjswuo92fo","prime","5ebeeb2d47d7182bb7855b52","5f5a55364e9b770ed21874ff","5f60d752196795054b70f2f6","false","null","<div style=""align-items: center; display: flex; color: darkorange; font-size: 90px""><b>ø</b></div>","null","","","","forget_cue","","","","","","","","","","","","","","","",""
"html-keyboard-response","209","603246","0.0-4.0-1.0-0.31","50303yjswuo92fo","prime","5ebeeb2d47d7182bb7855b52","5f5a55364e9b770ed21874ff","5f60d752196795054b70f2f6","false","null","<span style=""color: black; font-size: 48px"">M + N</span>","null","","","","resp_prompt","","","","","","","","","","","","","","","",""
"categorize-image","210","603845","0.0-4.0-1.0-1.31","50303yjswuo92fo","prime","5ebeeb2d47d7182bb7855b52","5f5a55364e9b770ed21874ff","5f60d752196795054b70f2f6","true","598","./Stimuli/SelectedImages/SM/SM106.bmp","83","","","","test","true","M + N","83","repetition","SM","SM106.bmp","remember","","80","3","prime1","left","","","",""
"html-keyboard-response","211","605848","0.0-4.0-1.0-3.31","50303yjswuo92fo","prime","5ebeeb2d47d7182bb7855b52","5f5a55364e9b770ed21874ff","5f60d752196795054b70f2f6","false","null","<div style=""align-items: center; display: flex; color: dodgerblue; font-size: 90px""><b>o</b></div>","null","","","","forget_cue","","","","","","","","","","","","","","","",""
"html-keyboard-response","212","606553","0.0-4.0-1.0-0.32","50303yjswuo92fo","prime","5ebeeb2d47d7182bb7855b52","5f5a55364e9b770ed21874ff","5f60d752196795054b70f2f6","false","null","<span style=""color: black; font-size: 48px"">N + M</span>","null","","","","resp_prompt","","","","","","","","","","","","","","","",""
"categorize-image","213","607207","0.0-4.0-1.0-1.32","50303yjswuo92fo","prime","5ebeeb2d47d7182bb7855b52","5f5a55364e9b770ed21874ff","5f60d752196795054b70f2f6","true","652","./Stimuli/SelectedImages/SN/SN93.bmp","83","","","","test","true","N + M","83","repetition","SN","SN93.bmp","remember","","81","3","prime1","left","","","",""
"html-keyboard-response","214","609208","0.0-4.0-1.0-3.32","50303yjswuo92fo","prime","5ebeeb2d47d7182bb7855b52","5f5a55364e9b770ed21874ff","5f60d752196795054b70f2f6","false","null","<div style=""align-items: center; display: flex; color: dodgerblue; font-size: 90px""><b>o</b></div>","null","","","","forget_cue","","","","","","","","","","","","","","","",""
"html-keyboard-response","215","609912","0.0-4.0-1.0-0.33","50303yjswuo92fo","prime","5ebeeb2d47d7182bb7855b52","5f5a55364e9b770ed21874ff","5f60d752196795054b70f2f6","false","null","<span style=""color: black; font-size: 48px"">M + N</span>","null","","","","resp_prompt","","","","","","","","","","","","","","","",""
"categorize-image","216","610501","0.0-4.0-1.0-1.33","50303yjswuo92fo","prime","5ebeeb2d47d7182bb7855b52","5f5a55364e9b770ed21874ff","5f60d752196795054b70f2f6","true","587","./Stimuli/SelectedImages/LN/LN128.bmp","76","","","","test","true","M + N","76","repetition","LN","LN128.bmp","forget","","82","3","prime1","right","","","",""
"html-keyboard-response","217","612516","0.0-4.0-1.0-3.33","50303yjswuo92fo","prime","5ebeeb2d47d7182bb7855b52","5f5a55364e9b770ed21874ff","5f60d752196795054b70f2f6","false","null","<div style=""align-items: center; display: flex; color: darkorange; font-size: 90px""><b>ø</b></div>","null","","","","forget_cue","","","","","","","","","","","","","","","",""
"html-keyboard-response","218","613220","0.0-4.0-1.0-0.34","50303yjswuo92fo","prime","5ebeeb2d47d7182bb7855b52","5f5a55364e9b770ed21874ff","5f60d752196795054b70f2f6","false","null","<span style=""color: black; font-size: 48px"">M + N</span>","null","","","","resp_prompt","","","","","","","","","","","","","","","",""
"categorize-image","219","613886","0.0-4.0-1.0-1.34","50303yjswuo92fo","prime","5ebeeb2d47d7182bb7855b52","5f5a55364e9b770ed21874ff","5f60d752196795054b70f2f6","true","664","./Stimuli/SelectedImages/SN/SN181.bmp","76","","","","test","true","M + N","76","repetition","SN","SN181.bmp","forget","","83","3","prime1","right","","","",""
"html-keyboard-response","220","615906","0.0-4.0-1.0-3.34","50303yjswuo92fo","prime","5ebeeb2d47d7182bb7855b52","5f5a55364e9b770ed21874ff","5f60d752196795054b70f2f6","false","null","<div style=""align-items: center; display: flex; color: darkorange; font-size: 90px""><b>ø</b></div>","null","","","","forget_cue","","","","","","","","","","","","","","","",""
"html-keyboard-response","221","616612","0.0-4.0-1.0-0.35","50303yjswuo92fo","prime","5ebeeb2d47d7182bb7855b52","5f5a55364e9b770ed21874ff","5f60d752196795054b70f2f6","false","null","<span style=""color: black; font-size: 48px"">M + N</span>","null","","","","resp_prompt","","","","","","","","","","","","","","","",""
"categorize-image","222","617307","0.0-4.0-1.0-1.35","50303yjswuo92fo","prime","5ebeeb2d47d7182bb7855b52","5f5a55364e9b770ed21874ff","5f60d752196795054b70f2f6","true","692","./Stimuli/SelectedImages/LM/LM216.bmp","83","","","","test","true","M + N","83","switch","LM","LM216.bmp","forget","","84","3","prime1","left","","","",""
"html-keyboard-response","223","619309","0.0-4.0-1.0-3.35","50303yjswuo92fo","prime","5ebeeb2d47d7182bb7855b52","5f5a55364e9b770ed21874ff","5f60d752196795054b70f2f6","false","null","<div style=""align-items: center; display: flex; color: darkorange; font-size: 90px""><b>ø</b></div>","null","","","","forget_cue","","","","","","","","","","","","","","","",""
"html-keyboard-response","224","620024","0.0-4.0-1.0-0.36","50303yjswuo92fo","prime","5ebeeb2d47d7182bb7855b52","5f5a55364e9b770ed21874ff","5f60d752196795054b70f2f6","false","null","<span style=""color: black; font-size: 48px"">N + M</span>","null","","","","resp_prompt","","","","","","","","","","","","","","","",""
"categorize-image","225","620603","0.0-4.0-1.0-1.36","50303yjswuo92fo","prime","5ebeeb2d47d7182bb7855b52","5f5a55364e9b770ed21874ff","5f60d752196795054b70f2f6","true","576","./Stimuli/SelectedImages/LM/LM167.bmp","76","","","","test","true","N + M","76","repetition","LM","LM167.bmp","forget","","85","3","prime1","right","","","",""
"html-keyboard-response","226","622616","0.0-4.0-1.0-3.36","50303yjswuo92fo","prime","5ebeeb2d47d7182bb7855b52","5f5a55364e9b770ed21874ff","5f60d752196795054b70f2f6","false","null","<div style=""align-items: center; display: flex; color: darkorange; font-size: 90px""><b>ø</b></div>","null","","","","forget_cue","","","","","","","","","","","","","","","",""
"html-keyboard-response","227","623321","0.0-4.0-1.0-0.37","50303yjswuo92fo","prime","5ebeeb2d47d7182bb7855b52","5f5a55364e9b770ed21874ff","5f60d752196795054b70f2f6","false","null","<span style=""color: black; font-size: 48px"">N + M</span>","null","","","","resp_prompt","","","","","","","","","","","","","","","",""
"categorize-image","228","624240","0.0-4.0-1.0-1.37","50303yjswuo92fo","prime","5ebeeb2d47d7182bb7855b52","5f5a55364e9b770ed21874ff","5f60d752196795054b70f2f6","true","916","./Stimuli/SelectedImages/LN/LN13.bmp","83","","","","test","true","N + M","83","switch","LN","LN13.bmp","forget","","86","3","prime1","left","","","",""
"html-keyboard-response","229","626254","0.0-4.0-1.0-3.37","50303yjswuo92fo","prime","5ebeeb2d47d7182bb7855b52","5f5a55364e9b770ed21874ff","5f60d752196795054b70f2f6","false","null","<div style=""align-items: center; display: flex; color: darkorange; font-size: 90px""><b>ø</b></div>","null","","","","forget_cue","","","","","","","","","","","","","","","",""
"html-keyboard-response","230","626969","0.0-4.0-1.0-0.38","50303yjswuo92fo","prime","5ebeeb2d47d7182bb7855b52","5f5a55364e9b770ed21874ff","5f60d752196795054b70f2f6","false","null","<span style=""color: black; font-size: 48px"">M + N</span>","null","","","","resp_prompt","","","","","","","","","","","","","","","",""
"categorize-image","231","627537","0.0-4.0-1.0-1.38","50303yjswuo92fo","prime","5ebeeb2d47d7182bb7855b52","5f5a55364e9b770ed21874ff","5f60d752196795054b70f2f6","true","565","./Stimuli/SelectedImages/LM/LM235.bmp","83","","","","test","true","M + N","83","repetition","LM","LM235.bmp","remember","","87","3","prime1","left","","","",""
"html-keyboard-response","232","629550","0.0-4.0-1.0-3.38","50303yjswuo92fo","prime","5ebeeb2d47d7182bb7855b52","5f5a55364e9b770ed21874ff","5f60d752196795054b70f2f6","false","null","<div style=""align-items: center; display: flex; color: dodgerblue; font-size: 90px""><b>o</b></div>","null","","","","forget_cue","","","","","","","","","","","","","","","",""
"html-keyboard-response","233","630254","0.0-4.0-1.0-0.39","50303yjswuo92fo","prime","5ebeeb2d47d7182bb7855b52","5f5a55364e9b770ed21874ff","5f60d752196795054b70f2f6","false","null","<span style=""color: black; font-size: 48px"">N + M</span>","null","","","","resp_prompt","","","","","","","","","","","","","","","",""
"categorize-image","234","630932","0.0-4.0-1.0-1.39","50303yjswuo92fo","prime","5ebeeb2d47d7182bb7855b52","5f5a55364e9b770ed21874ff","5f60d752196795054b70f2f6","true","676","./Stimuli/SelectedImages/LN/LN9.bmp","83","","","","test","true","N + M","83","switch","LN","LN9.bmp","forget","","88","3","prime1","left","","","",""
"html-keyboard-response","235","632942","0.0-4.0-1.0-3.39","50303yjswuo92fo","prime","5ebeeb2d47d7182bb7855b52","5f5a55364e9b770ed21874ff","5f60d752196795054b70f2f6","false","null","<div style=""align-items: center; display: flex; color: darkorange; font-size: 90px""><b>ø</b></div>","null","","","","forget_cue","","","","","","","","","","","","","","","",""
"html-keyboard-response","236","633657","0.0-4.0-1.0-0.40","50303yjswuo92fo","prime","5ebeeb2d47d7182bb7855b52","5f5a55364e9b770ed21874ff","5f60d752196795054b70f2f6","false","null","<span style=""color: black; font-size: 48px"">M + N</span>","null","","","","resp_prompt","","","","","","","","","","","","","","","",""
"categorize-image","237","634403","0.0-4.0-1.0-1.40","50303yjswuo92fo","prime","5ebeeb2d47d7182bb7855b52","5f5a55364e9b770ed21874ff","5f60d752196795054b70f2f6","true","745","./Stimuli/SelectedImages/SM/SM74.bmp","83","","","","test","true","M + N","83","switch","SM","SM74.bmp","remember","","89","3","prime1","left","","","",""
"html-keyboard-response","238","636408","0.0-4.0-1.0-3.40","50303yjswuo92fo","prime","5ebeeb2d47d7182bb7855b52","5f5a55364e9b770ed21874ff","5f60d752196795054b70f2f6","false","null","<div style=""align-items: center; display: flex; color: dodgerblue; font-size: 90px""><b>o</b></div>","null","","","","forget_cue","","","","","","","","","","","","","","","",""
"html-keyboard-response","239","637123","0.0-4.0-1.0-0.41","50303yjswuo92fo","prime","5ebeeb2d47d7182bb7855b52","5f5a55364e9b770ed21874ff","5f60d752196795054b70f2f6","false","null","<span style=""color: black; font-size: 48px"">N + M</span>","null","","","","resp_prompt","","","","","","","","","","","","","","","",""
"categorize-image","240","637925","0.0-4.0-1.0-1.41","50303yjswuo92fo","prime","5ebeeb2d47d7182bb7855b52","5f5a55364e9b770ed21874ff","5f60d752196795054b70f2f6","true","802","./Stimuli/SelectedImages/LN/LN149.bmp","83","","","","test","true","N + M","83","switch","LN","LN149.bmp","remember","","90","3","prime1","left","","","",""
"html-keyboard-response","241","639941","0.0-4.0-1.0-3.41","50303yjswuo92fo","prime","5ebeeb2d47d7182bb7855b52","5f5a55364e9b770ed21874ff","5f60d752196795054b70f2f6","false","null","<div style=""align-items: center; display: flex; color: dodgerblue; font-size: 90px""><b>o</b></div>","null","","","","forget_cue","","","","","","","","","","","","","","","",""
"html-keyboard-response","242","640644","0.0-4.0-1.0-0.42","50303yjswuo92fo","prime","5ebeeb2d47d7182bb7855b52","5f5a55364e9b770ed21874ff","5f60d752196795054b70f2f6","false","null","<span style=""color: black; font-size: 48px"">N + M</span>","null","","","","resp_prompt","","","","","","","","","","","","","","","",""
"categorize-image","243","641417","0.0-4.0-1.0-1.42","50303yjswuo92fo","prime","5ebeeb2d47d7182bb7855b52","5f5a55364e9b770ed21874ff","5f60d752196795054b70f2f6","true","771","./Stimuli/SelectedImages/SM/SM78.bmp","76","","","","test","true","N + M","76","repetition","SM","SM78.bmp","forget","","91","3","prime1","right","","","",""
"html-keyboard-response","244","643427","0.0-4.0-1.0-3.42","50303yjswuo92fo","prime","5ebeeb2d47d7182bb7855b52","5f5a55364e9b770ed21874ff","5f60d752196795054b70f2f6","false","null","<div style=""align-items: center; display: flex; color: darkorange; font-size: 90px""><b>ø</b></div>","null","","","","forget_cue","","","","","","","","","","","","","","","",""
"html-keyboard-response","245","644141","0.0-4.0-1.0-0.43","50303yjswuo92fo","prime","5ebeeb2d47d7182bb7855b52","5f5a55364e9b770ed21874ff","5f60d752196795054b70f2f6","false","null","<span style=""color: black; font-size: 48px"">N + M</span>","null","","","","resp_prompt","","","","","","","","","","","","","","","",""
"categorize-image","246","644937","0.0-4.0-1.0-1.43","50303yjswuo92fo","prime","5ebeeb2d47d7182bb7855b52","5f5a55364e9b770ed21874ff","5f60d752196795054b70f2f6","true","794","./Stimuli/SelectedImages/SN/SN182.bmp","83","","","","test","true","N + M","83","switch","SN","SN182.bmp","forget","","92","3","prime1","left","","","",""
"html-keyboard-response","247","646958","0.0-4.0-1.0-3.43","50303yjswuo92fo","prime","5ebeeb2d47d7182bb7855b52","5f5a55364e9b770ed21874ff","5f60d752196795054b70f2f6","false","null","<div style=""align-items: center; display: flex; color: darkorange; font-size: 90px""><b>ø</b></div>","null","","","","forget_cue","","","","","","","","","","","","","","","",""
"html-keyboard-response","248","647673","0.0-4.0-1.0-0.44","50303yjswuo92fo","prime","5ebeeb2d47d7182bb7855b52","5f5a55364e9b770ed21874ff","5f60d752196795054b70f2f6","false","null","<span style=""color: black; font-size: 48px"">N + M</span>","null","","","","resp_prompt","","","","","","","","","","","","","","","",""
"categorize-image","249","648651","0.0-4.0-1.0-1.44","50303yjswuo92fo","prime","5ebeeb2d47d7182bb7855b52","5f5a55364e9b770ed21874ff","5f60d752196795054b70f2f6","true","977","./Stimuli/SelectedImages/SN/SN179.bmp","83","","","","test","true","N + M","83","switch","SN","SN179.bmp","remember","","93","3","prime1","left","","","",""
"html-keyboard-response","250","650671","0.0-4.0-1.0-3.44","50303yjswuo92fo","prime","5ebeeb2d47d7182bb7855b52","5f5a55364e9b770ed21874ff","5f60d752196795054b70f2f6","false","null","<div style=""align-items: center; display: flex; color: dodgerblue; font-size: 90px""><b>o</b></div>","null","","","","forget_cue","","","","","","","","","","","","","","","",""
"html-keyboard-response","251","651385","0.0-4.0-1.0-0.45","50303yjswuo92fo","prime","5ebeeb2d47d7182bb7855b52","5f5a55364e9b770ed21874ff","5f60d752196795054b70f2f6","false","null","<span style=""color: black; font-size: 48px"">M + N</span>","null","","","","resp_prompt","","","","","","","","","","","","","","","",""
"categorize-image","252","652147","0.0-4.0-1.0-1.45","50303yjswuo92fo","prime","5ebeeb2d47d7182bb7855b52","5f5a55364e9b770ed21874ff","5f60d752196795054b70f2f6","true","759","./Stimuli/SelectedImages/SN/SN52.bmp","76","","","","test","true","M + N","76","repetition","SN","SN52.bmp","remember","","94","3","prime1","right","","","",""
"html-keyboard-response","253","654158","0.0-4.0-1.0-3.45","50303yjswuo92fo","prime","5ebeeb2d47d7182bb7855b52","5f5a55364e9b770ed21874ff","5f60d752196795054b70f2f6","false","null","<div style=""align-items: center; display: flex; color: dodgerblue; font-size: 90px""><b>o</b></div>","null","","","","forget_cue","","","","","","","","","","","","","","","",""
"html-keyboard-response","254","654862","0.0-4.0-1.0-0.46","50303yjswuo92fo","prime","5ebeeb2d47d7182bb7855b52","5f5a55364e9b770ed21874ff","5f60d752196795054b70f2f6","false","null","<span style=""color: black; font-size: 48px"">M + N</span>","null","","","","resp_prompt","","","","","","","","","","","","","","","",""
"categorize-image","255","655578","0.0-4.0-1.0-1.46","50303yjswuo92fo","prime","5ebeeb2d47d7182bb7855b52","5f5a55364e9b770ed21874ff","5f60d752196795054b70f2f6","true","713","./Stimuli/SelectedImages/LN/LN101.bmp","76","","","","test","true","M + N","76","switch","LN","LN101.bmp","remember","","95","3","prime1","right","","","",""
"html-keyboard-response","256","657583","0.0-4.0-1.0-3.46","50303yjswuo92fo","prime","5ebeeb2d47d7182bb7855b52","5f5a55364e9b770ed21874ff","5f60d752196795054b70f2f6","false","null","<div style=""align-items: center; display: flex; color: dodgerblue; font-size: 90px""><b>o</b></div>","null","","","","forget_cue","","","","","","","","","","","","","","","",""
"html-keyboard-response","257","658287","0.0-4.0-1.0-0.47","50303yjswuo92fo","prime","5ebeeb2d47d7182bb7855b52","5f5a55364e9b770ed21874ff","5f60d752196795054b70f2f6","false","null","<span style=""color: black; font-size: 48px"">N + M</span>","null","","","","resp_prompt","","","","","","","","","","","","","","","",""
