"trial_type","trial_index","time_elapsed","internal_node_id","subject","exp_part","prolific_PID","study_ID","session_ID","use","rt","stimulus","key_press","button_pressed","responses","question_order","trial_part","correct","resp_map","correct_resp","probe_condition","category","image","forget_condition","list","trial_num","block_num","block","response","test_part","n_span","sequence","num_spaces"
"pavlovia","0","22","0.0-0.0","e6j9hvgx6eorayl","","5f072de78ef9940c5dbabf80","5f60e3c0a3b16e07647b2ff9","5f63802d2eb26305fea0e9ae","false","","","","","","","","","","","","","","","","","","","","","","",""
"html-keyboard-response","1","15344","0.0-1.0-0.0-0.0","e6j9hvgx6eorayl","welcome","5f072de78ef9940c5dbabf80","5f60e3c0a3b16e07647b2ff9","5f63802d2eb26305fea0e9ae","false","15312.804999994114","<div align=left>Dear participant, <br> thank you for participating in an online study of the Cognition, Action, and Sustainability Unit of the University of Freiburg! <br> <br>The aim of this study is to examine our ability to remember previously learned information. <br>Our goal is to find out, whether our memory improves, when we only remember information that is relevant to us. <br>The experiment will take about 35 minutes to complete. <br> <br>Please, note that you can only participate in this study if you are using a device with a keyboard (PC, Laptop etc.) <br>and not if you are using a mobile device such as a tablet or smartphone.<br> <br>Press 'SPACE' to proceed to the experiment. </div>","32","","","","","","","","","","","","","","","","","","","",""
"html-keyboard-response","2","28287","0.0-1.0-0.0-1.0","e6j9hvgx6eorayl","welcome","5f072de78ef9940c5dbabf80","5f60e3c0a3b16e07647b2ff9","5f63802d2eb26305fea0e9ae","false","12938.504999969155","<div align=left><strong> Time Course of this experiment: </strong> <br><br> <strong> 1.</strong>  First, please fill in some information regarding your demographic data. <br><br> <strong> 2.</strong>  Next, your task will be to classify everyday objects. <br>In addition, you will be asked to remember certain objects and recall them later. <br>Working on these tasks requires your undivided attention and concentration.<br>It is therefore essential that you eliminate any sources of distraction in your  <br>environment and ensure that you will not be disturbed. <br><br><strong> 3.</strong>  At the end of the experiment, you will be asked to answer a few additional questions. <br> <br><strong> Important:</strong> After finishing the experiment, only close the browser window <br> by clicking on the 'end the experiment'-button when you are asked to do so. <br>Closing the browser window prematurely will make the allocation of your participation credit impossible. <br><br> Press 'SPACE' to start the experiment. </div>","32","","","","","","","","","","","","","","","","","","","",""
"html-button-response","3","318116","0.0-1.0-0.0-2.0","e6j9hvgx6eorayl","welcome","5f072de78ef9940c5dbabf80","5f60e3c0a3b16e07647b2ff9","5f63802d2eb26305fea0e9ae","true","289824.0450001322","<div align=left><strong> Informed consent </strong>  <br>The aim of our research is to better understand human behavior and mental processes. <br>In the following study your behavior (e.g. choices, reaction times) will be studied. <br> <br><strong> Voluntariness and Anonymity </strong> <br>Your participation in this study is  <strong> voluntary</strong>.<br>You may withdraw your consent to participate at any time without providing a reason for doing so and without fear of prejudice. <br><br>As no personal data will be collected, <strong>your data and your person cannot be connected after data collection</strong> – the data-set is anonymous. <br>Respectively, deletion of your data will not be possible after data collection has been completed, as we cannot retrace your data-set.<br>The results and anonymized data collected in this study will be published as a scientific publication. <br>This will happen in an <strong>anonymized format</strong>, so that no data can be traced back to a specific person. <br> <br>The anonymized data of this study will be made available to other researchers and/or in a data archive on the Internet as a means of transparency and to enable subsequent re-use. By doing so, this study follows the recommendations of the Deutsche Forschungsgemeinschaft (DFG, German Research Foundation) and Deutsche Gesellschaft für Psychologie (DGPS, German Psychological Society) regarding quality assurance in research.<br>If you have any questions now or after the experiment, please contact our team (experiments@cs.uni-freiburg.de).<br><br><br>I hereby declare, that I understand the above described conditions of participation and I agree to participate under these conditions. <br><br> </div>","","0","","","","","","","","","","","","","","","","","","",""
"html-keyboard-response","4","343603","0.0-1.0-0.0-3.0","e6j9hvgx6eorayl","welcome","5f072de78ef9940c5dbabf80","5f60e3c0a3b16e07647b2ff9","5f63802d2eb26305fea0e9ae","false","25479.980000061914","<div align=left><strong> General information concerning the experiment </strong>  <br> <br>Please follow the instructions:<ol> <li><strong> Do not leave this tab (your browser window) during the experiment and do not reload this tab! </strong>  <br>If you do switch tabs/windows during the experiment (to check your mail or visit another website, for example), <br>the experiment will end automatically and you will <strong>not receive credit</strong> for your participation. <br>Repeated participation or resumption of the experiment is impossible.</li> <br><li>Please close all other programs for the duration of your participation. </li> <br><li>Please mute or turn off your phone and put it out of your reach. </li> <br><li>Please also take off any disturbing accessories (such as wristwatches, bracelets, etc.). </li> <br><li>If you have music playing in the background, please turn it off now. </li> <br></ol>Thank you! <br>Press 'SPACE' to continue. </div>","32","","","","","","","","","","","","","","","","","","","",""
"survey-text","5","347991","0.0-1.0-1.0-0.0","e6j9hvgx6eorayl","demographics","5f072de78ef9940c5dbabf80","5f60e3c0a3b16e07647b2ff9","5f63802d2eb26305fea0e9ae","true","4372.285000048578","","","","{""age"":""30""}","","","","","","","","","","","","","","","","","",""
"survey-multi-choice","6","372077","0.0-1.0-1.0-1.0","e6j9hvgx6eorayl","demographics","5f072de78ef9940c5dbabf80","5f60e3c0a3b16e07647b2ff9","5f63802d2eb26305fea0e9ae","true","24077.35999999568","","","","{""gender"":""female"",""school"":""others"",""education"":""Completed university degree or equivalent""}","[0,1,2]","","","","","","","","","","","","","","","","",""
"html-keyboard-response","7","382579","0.0-1.0-2.0","e6j9hvgx6eorayl","instructions","5f072de78ef9940c5dbabf80","5f60e3c0a3b16e07647b2ff9","5f63802d2eb26305fea0e9ae","false","10493.92500007525","<div align=left> The experiment is now about to start: <br> <br>In the following part, you will be presented pictures of everyday objects. <br>Your first task is to <strong>classify these objects. </strong> <br> <br> You will classify them either as mechanical or non-mechanical objects. <br> <br>Objects that include any kind of technical mechanism (for example, wheels, switches, levers, <br> electronic components) fall under the category of <strong>mechanical</strong> objects. <br>Only objects without any kind of technical mechanism should be classified as <strong>non-mechanical</strong>. <br><br>Press 'SPACE' to continue. </div>","32","","","","","","","","","","","","","","","","","","","",""
"html-keyboard-response","8","458854","0.0-2.0-0.0","e6j9hvgx6eorayl","instructions","5f072de78ef9940c5dbabf80","5f60e3c0a3b16e07647b2ff9","5f63802d2eb26305fea0e9ae","false","76271.47000003606","<div align=justify>You will classify the objects using the <strong>'S'</strong> and the <strong>'L'</strong> keys on your keyboard.<br>For doing so, please place your <strong>left index finger</strong> on the <strong>'S'</strong> key and place your <strong>right index finger</strong> on the <strong>'L'</strong> key. <br><br> Each trial starts with an instruction, indicating which key ('S'/'L') you need to press to classify <br>the object as mechanical (letter M) or non-mechanical (letter N).<br>The instruction <strong>M + N</strong> indicates that, in the current trial, by pressing the left key ('S') you classify the displayed object as mechanical (M) <br> and by pressing the right key ('L') you classify the object as non-mechanical (N). <br>The instruction <strong>N + M</strong> on the other hand indicates that by pressing the left key ('S') you classify the displayed object as non-mechanical (N) <br> and by pressing the right key ('L') you classify the object as mechanical (M). <br><br>Please press the key corresponding to the correct classification as fast as possible as soon as the object is displayed and try to avoid making mistakes.<br>If you do not respond within a 2 second window, a corresponding feedback will be displayed and the next trial will start.<br> The experiment is divided into multiple blocks to give you the opportunity to take a break after each block. <br>First, you can now practice this task. <br><br>Please place your <strong>LEFT INDEX FINGER</strong> on the 'S' key and your <strong>RIGHT INDEX FINGER</strong> on the 'L' key now. <br><br>Press SPACE to continue.</div>","32","","","","","","","","","","","","","","","","","","","",""
"html-keyboard-response","9","470653","0.0-2.0-1.0","e6j9hvgx6eorayl","instructions","5f072de78ef9940c5dbabf80","5f60e3c0a3b16e07647b2ff9","5f63802d2eb26305fea0e9ae","false","11796.129999915138","<div align=left> You will now have time to practice this task.<br><br>Remember: <br> <br><li>Please place your index fingers on the <strong>'S'</strong> and <strong>'L'</strong> keys <br>to respond as fast and accurately as possible.</li><li>Every picture can be classified as either mechanical or non-mechanical.</li><li>If you do not respond in time or commit an error, you will receive a corresponding feedback. </li><li> Please try to respond as <strong> fast </strong> and as <strong> accurately as possible </strong> .<br><li>To ensure optimal results, please minimize distractions and stay focused. </li><br><br>Press SPACE to continue.</div>","32","","","","","","","","","","","","","","","","","","","",""
"html-keyboard-response","10","471359","0.0-2.0-2.0-0.0","e6j9hvgx6eorayl","practice_no_cue","5f072de78ef9940c5dbabf80","5f60e3c0a3b16e07647b2ff9","5f63802d2eb26305fea0e9ae","false","null","<span style=""color: black; font-size: 48px"">N + M</span>","null","","","","resp_prompt","","","","","","","","","","","","","","","",""
"categorize-image","11","472777","0.0-2.0-2.0-1.0","e6j9hvgx6eorayl","practice_no_cue","5f072de78ef9940c5dbabf80","5f60e3c0a3b16e07647b2ff9","5f63802d2eb26305fea0e9ae","true","911.3600000273436","./Stimuli/ImagesPractice/LM224.jpg","76","","","","test","true","N + M","76","","LM","LM224.jpg","forget","old","1","1","start","right","","","",""
"html-keyboard-response","12","473480","0.0-2.0-2.0-0.1","e6j9hvgx6eorayl","practice_no_cue","5f072de78ef9940c5dbabf80","5f60e3c0a3b16e07647b2ff9","5f63802d2eb26305fea0e9ae","false","null","<span style=""color: black; font-size: 48px"">N + M</span>","null","","","","resp_prompt","","","","","","","","","","","","","","","",""
"categorize-image","13","475353","0.0-2.0-2.0-1.1","e6j9hvgx6eorayl","practice_no_cue","5f072de78ef9940c5dbabf80","5f60e3c0a3b16e07647b2ff9","5f63802d2eb26305fea0e9ae","true","1367.4349999055266","./Stimuli/ImagesPractice/SM61.jpg","76","","","","test","true","N + M","76","","SM","SM61.jpg","forget","old","2","1","start","right","","","",""
"html-keyboard-response","14","476057","0.0-2.0-2.0-0.2","e6j9hvgx6eorayl","practice_no_cue","5f072de78ef9940c5dbabf80","5f60e3c0a3b16e07647b2ff9","5f63802d2eb26305fea0e9ae","false","null","<span style=""color: black; font-size: 48px"">M + N</span>","null","","","","resp_prompt","","","","","","","","","","","","","","","",""
"categorize-image","15","477638","0.0-2.0-2.0-1.2","e6j9hvgx6eorayl","practice_no_cue","5f072de78ef9940c5dbabf80","5f60e3c0a3b16e07647b2ff9","5f63802d2eb26305fea0e9ae","true","1076.575000071898","./Stimuli/ImagesPractice/LM147.jpg","83","","","","test","true","M + N","83","","LM","LM147.jpg","remember","old","3","1","start","left","","","",""
"html-keyboard-response","16","478342","0.0-2.0-2.0-0.3","e6j9hvgx6eorayl","practice_no_cue","5f072de78ef9940c5dbabf80","5f60e3c0a3b16e07647b2ff9","5f63802d2eb26305fea0e9ae","false","null","<span style=""color: black; font-size: 48px"">M + N</span>","null","","","","resp_prompt","","","","","","","","","","","","","","","",""
"categorize-image","17","480160","0.0-2.0-2.0-1.3","e6j9hvgx6eorayl","practice_no_cue","5f072de78ef9940c5dbabf80","5f60e3c0a3b16e07647b2ff9","5f63802d2eb26305fea0e9ae","true","1312.3250000644475","./Stimuli/ImagesPractice/LN4.jpg","76","","","","test","true","M + N","76","","LN","LN4.jpg","forget","old","4","1","start","right","","","",""
"html-keyboard-response","18","480863","0.0-2.0-2.0-0.4","e6j9hvgx6eorayl","practice_no_cue","5f072de78ef9940c5dbabf80","5f60e3c0a3b16e07647b2ff9","5f63802d2eb26305fea0e9ae","false","null","<span style=""color: black; font-size: 48px"">M + N</span>","null","","","","resp_prompt","","","","","","","","","","","","","","","",""
"categorize-image","19","482264","0.0-2.0-2.0-1.4","e6j9hvgx6eorayl","practice_no_cue","5f072de78ef9940c5dbabf80","5f60e3c0a3b16e07647b2ff9","5f63802d2eb26305fea0e9ae","true","894.4349999073893","./Stimuli/ImagesPractice/SM98.jpg","83","","","","test","true","M + N","83","","SM","SM98.jpg","remember","old","5","1","start","left","","","",""
"html-keyboard-response","20","482968","0.0-2.0-2.0-0.5","e6j9hvgx6eorayl","practice_no_cue","5f072de78ef9940c5dbabf80","5f60e3c0a3b16e07647b2ff9","5f63802d2eb26305fea0e9ae","false","null","<span style=""color: black; font-size: 48px"">N + M</span>","null","","","","resp_prompt","","","","","","","","","","","","","","","",""
"categorize-image","21","484304","0.0-2.0-2.0-1.5","e6j9hvgx6eorayl","practice_no_cue","5f072de78ef9940c5dbabf80","5f60e3c0a3b16e07647b2ff9","5f63802d2eb26305fea0e9ae","true","831.6849998664111","./Stimuli/ImagesPractice/SM37.jpg","76","","","","test","true","N + M","76","","SM","SM37.jpg","remember","old","6","1","start","right","","","",""
"html-keyboard-response","22","485007","0.0-2.0-2.0-0.6","e6j9hvgx6eorayl","practice_no_cue","5f072de78ef9940c5dbabf80","5f60e3c0a3b16e07647b2ff9","5f63802d2eb26305fea0e9ae","false","null","<span style=""color: black; font-size: 48px"">N + M</span>","null","","","","resp_prompt","","","","","","","","","","","","","","","",""
"categorize-image","23","486434","0.0-2.0-2.0-1.6","e6j9hvgx6eorayl","practice_no_cue","5f072de78ef9940c5dbabf80","5f60e3c0a3b16e07647b2ff9","5f63802d2eb26305fea0e9ae","true","923.4150000847876","./Stimuli/ImagesPractice/SN205.jpg","83","","","","test","true","N + M","83","","SN","SN205.jpg","forget","old","7","1","start","left","","","",""
"html-keyboard-response","24","487139","0.0-2.0-2.0-0.7","e6j9hvgx6eorayl","practice_no_cue","5f072de78ef9940c5dbabf80","5f60e3c0a3b16e07647b2ff9","5f63802d2eb26305fea0e9ae","false","null","<span style=""color: black; font-size: 48px"">M + N</span>","null","","","","resp_prompt","","","","","","","","","","","","","","","",""
"categorize-image","25","488596","0.0-2.0-2.0-1.7","e6j9hvgx6eorayl","practice_no_cue","5f072de78ef9940c5dbabf80","5f60e3c0a3b16e07647b2ff9","5f63802d2eb26305fea0e9ae","true","952.165000140667","./Stimuli/ImagesPractice/LN2.jpg","76","","","","test","true","M + N","76","","LN","LN2.jpg","remember","old","8","1","start","right","","","",""
"html-keyboard-response","26","489300","0.0-2.0-2.0-0.8","e6j9hvgx6eorayl","practice_no_cue","5f072de78ef9940c5dbabf80","5f60e3c0a3b16e07647b2ff9","5f63802d2eb26305fea0e9ae","false","null","<span style=""color: black; font-size: 48px"">N + M</span>","null","","","","resp_prompt","","","","","","","","","","","","","","","",""
"categorize-image","27","490798","0.0-2.0-2.0-1.8","e6j9hvgx6eorayl","practice_no_cue","5f072de78ef9940c5dbabf80","5f60e3c0a3b16e07647b2ff9","5f63802d2eb26305fea0e9ae","true","992.7600000519305","./Stimuli/ImagesPractice/LN15.jpg","76","","","","test","false","N + M","83","","LN","LN15.jpg","remember","old","9","1","start","right","","","",""
"html-keyboard-response","28","491502","0.0-2.0-2.0-0.9","e6j9hvgx6eorayl","practice_no_cue","5f072de78ef9940c5dbabf80","5f60e3c0a3b16e07647b2ff9","5f63802d2eb26305fea0e9ae","false","null","<span style=""color: black; font-size: 48px"">M + N</span>","null","","","","resp_prompt","","","","","","","","","","","","","","","",""
"categorize-image","29","493450","0.0-2.0-2.0-1.9","e6j9hvgx6eorayl","practice_no_cue","5f072de78ef9940c5dbabf80","5f60e3c0a3b16e07647b2ff9","5f63802d2eb26305fea0e9ae","true","1443.6850000638515","./Stimuli/ImagesPractice/LN109.jpg","76","","","","test","true","M + N","76","","LN","LN109.jpg","forget","old","10","1","start","right","","","",""
"html-keyboard-response","30","494154","0.0-2.0-2.0-0.10","e6j9hvgx6eorayl","practice_no_cue","5f072de78ef9940c5dbabf80","5f60e3c0a3b16e07647b2ff9","5f63802d2eb26305fea0e9ae","false","null","<span style=""color: black; font-size: 48px"">N + M</span>","null","","","","resp_prompt","","","","","","","","","","","","","","","",""
"categorize-image","31","496174","0.0-2.0-2.0-1.10","e6j9hvgx6eorayl","practice_no_cue","5f072de78ef9940c5dbabf80","5f60e3c0a3b16e07647b2ff9","5f63802d2eb26305fea0e9ae","true","1515.7800000160933","./Stimuli/ImagesPractice/SM62.jpg","76","","","","test","true","N + M","76","","SM","SM62.jpg","remember","old","11","1","start","right","","","",""
"html-keyboard-response","32","496876","0.0-2.0-2.0-0.11","e6j9hvgx6eorayl","practice_no_cue","5f072de78ef9940c5dbabf80","5f60e3c0a3b16e07647b2ff9","5f63802d2eb26305fea0e9ae","false","null","<span style=""color: black; font-size: 48px"">M + N</span>","null","","","","resp_prompt","","","","","","","","","","","","","","","",""
"categorize-image","33","498565","0.0-2.0-2.0-1.11","e6j9hvgx6eorayl","practice_no_cue","5f072de78ef9940c5dbabf80","5f60e3c0a3b16e07647b2ff9","5f63802d2eb26305fea0e9ae","true","1183.8449998758733","./Stimuli/ImagesPractice/SM35.jpg","83","","","","test","true","M + N","83","","SM","SM35.jpg","remember","old","12","1","start","left","","","",""
"html-keyboard-response","34","499269","0.0-2.0-2.0-0.12","e6j9hvgx6eorayl","practice_no_cue","5f072de78ef9940c5dbabf80","5f60e3c0a3b16e07647b2ff9","5f63802d2eb26305fea0e9ae","false","null","<span style=""color: black; font-size: 48px"">N + M</span>","null","","","","resp_prompt","","","","","","","","","","","","","","","",""
"categorize-image","35","500623","0.0-2.0-2.0-1.12","e6j9hvgx6eorayl","practice_no_cue","5f072de78ef9940c5dbabf80","5f60e3c0a3b16e07647b2ff9","5f63802d2eb26305fea0e9ae","true","848.4849999658763","./Stimuli/ImagesPractice/LM230.jpg","76","","","","test","true","N + M","76","","LM","LM230.jpg","forget","old","13","1","start","right","","","",""
"html-keyboard-response","36","501327","0.0-2.0-2.0-0.13","e6j9hvgx6eorayl","practice_no_cue","5f072de78ef9940c5dbabf80","5f60e3c0a3b16e07647b2ff9","5f63802d2eb26305fea0e9ae","false","null","<span style=""color: black; font-size: 48px"">M + N</span>","null","","","","resp_prompt","","","","","","","","","","","","","","","",""
"categorize-image","37","502992","0.0-2.0-2.0-1.13","e6j9hvgx6eorayl","practice_no_cue","5f072de78ef9940c5dbabf80","5f60e3c0a3b16e07647b2ff9","5f63802d2eb26305fea0e9ae","true","1160.280000185594","./Stimuli/ImagesPractice/LN72.jpg","76","","","","test","true","M + N","76","","LN","LN72.jpg","forget","old","14","1","start","right","","","",""
"html-keyboard-response","38","503696","0.0-2.0-2.0-0.14","e6j9hvgx6eorayl","practice_no_cue","5f072de78ef9940c5dbabf80","5f60e3c0a3b16e07647b2ff9","5f63802d2eb26305fea0e9ae","false","null","<span style=""color: black; font-size: 48px"">M + N</span>","null","","","","resp_prompt","","","","","","","","","","","","","","","",""
"categorize-image","39","505032","0.0-2.0-2.0-1.14","e6j9hvgx6eorayl","practice_no_cue","5f072de78ef9940c5dbabf80","5f60e3c0a3b16e07647b2ff9","5f63802d2eb26305fea0e9ae","true","830.3049998357892","./Stimuli/ImagesPractice/SN75.jpg","76","","","","test","true","M + N","76","","SN","SN75.jpg","forget","old","15","1","start","right","","","",""
"html-keyboard-response","40","505736","0.0-2.0-2.0-0.15","e6j9hvgx6eorayl","practice_no_cue","5f072de78ef9940c5dbabf80","5f60e3c0a3b16e07647b2ff9","5f63802d2eb26305fea0e9ae","false","null","<span style=""color: black; font-size: 48px"">N + M</span>","null","","","","resp_prompt","","","","","","","","","","","","","","","",""
"categorize-image","41","506948","0.0-2.0-2.0-1.15","e6j9hvgx6eorayl","practice_no_cue","5f072de78ef9940c5dbabf80","5f60e3c0a3b16e07647b2ff9","5f63802d2eb26305fea0e9ae","true","708.4000001195818","./Stimuli/ImagesPractice/SN222.jpg","83","","","","test","true","N + M","83","","SN","SN222.jpg","remember","old","16","1","start","left","","","",""
"html-keyboard-response","42","515812","0.0-2.0-3.0","e6j9hvgx6eorayl","break","5f072de78ef9940c5dbabf80","5f60e3c0a3b16e07647b2ff9","5f63802d2eb26305fea0e9ae","false","8857.755000004545","<p style='font-size: 32px;'>Break</><br><br><br><br><br><p style='font-size: 24px;'>In the last block, you committed 1 errors and did not respond in time on 0 trials.
</p><p style='font-size: 24px;'>Try to respond as fast and accurately as possible in the next block as well! </p><p style='font-size: 24px;'>Press SPACE to continue.</p>","32","","","","","","","","","","","","","","","","","","","",""
"html-keyboard-response","43","519770","0.0-2.0-4.0","e6j9hvgx6eorayl","instructions","5f072de78ef9940c5dbabf80","5f60e3c0a3b16e07647b2ff9","5f63802d2eb26305fea0e9ae","false","3953.9700001478195","<div align=left> Great!<br><br>Are you ready to continue?<br><br>If you want to reread the instructions and redo the practice trials, <br>please press „Z“. <br><br>Press SPACE to CONTINUE with the experiment when you are ready. </div>","32","","","","","","","","","","","","","","","","","","","",""
"html-keyboard-response","44","557097","0.0-3.0-0.0","e6j9hvgx6eorayl","instructions","5f072de78ef9940c5dbabf80","5f60e3c0a3b16e07647b2ff9","5f63802d2eb26305fea0e9ae","false","37323.929999955","<div align=left>Great!<br> <strong>Attention</strong>! You will now receive a second, additional task! <br><br>To this point it was you <strong>first task</strong> to correctly <strong>classify objects</strong>. <br><br>As mentioned in the beginning, we aim to examine how well humans can remember previously learned information.<br>We would like to find out whether our memory improves if we only remember information that is relevant to us. <br><br>Therefore, your <strong>second task</strong> will be to <strong>remember</strong> the pictures you are to categorize. <br> After the learning phase, there will be a memory test phase, in which you will be asked to indicate whether you have seen a picture before or not. <br>Some, but not all pictures shown in the learning phase will appear in the memory test phase.<br>After classifying a picture, you will be told whether you should remember it for the memory test phase or not. <br>Thus, some pictures can be forgotten, whereas others have to be remembered. <br><br>Note: From now on, feedback will only be displayed if you responded incorrectly or not in time.<br><br>Press SPACE to continue.</div>","32","","","","","","","","","","","","","","","","","","","",""
"html-keyboard-response","45","584675","0.0-3.0-1.0","e6j9hvgx6eorayl","instructions","5f072de78ef9940c5dbabf80","5f60e3c0a3b16e07647b2ff9","5f63802d2eb26305fea0e9ae","false","27573.904999997467","<div align=left>In the following part, you will thus have to remember only some pictures. <br>Immediately after seeing and classifying the picture, a symbol will be displayed, indicating whether you should remember or forget the previous picture. <br><br>A <span style='color: dodgerblue; font-size: 28px'>O</span> indicates REMEMBER. That means, you have to remember this picture, because it will be tested later. <br><br>A <span style='color: darkorange; font-size:28px'>Ø</span> indicates FORGET. You do not have to remember this picture. <br><br> As you will have to remember a lot of pictures, it will be hard for you to remember all of them. <br>It will put you at an advantage if you instantly forget the pictures you are not asked to remember. <br> This will make it easier for you to remember the pictures that will be tested afterwards. <br><br>Press SPACE to continue.</div>","32","","","","","","","","","","","","","","","","","","","",""
"html-keyboard-response","46","593379","0.0-3.0-2.0","e6j9hvgx6eorayl","instructions","5f072de78ef9940c5dbabf80","5f60e3c0a3b16e07647b2ff9","5f63802d2eb26305fea0e9ae","false","8700.919999973848","<div align=left> Now you have the chance to practice both tasks together.<br><br>Remember: <br> <br><li>Please place your index fingers on the <strong>'S'</strong> and <strong>'L'</strong> keys <br>to respond as fast and accurately as possible.</li><li>Every picture can be classified as either mechanical or non-mechanical.</li><li>If you do not respond in time or commit an error, you will receive a corresponding feedback. <br>Please try to respond as <strong> fast </strong> and as <strong> accurately as possible </strong>.</li><li> Please remember only the to-be-remembered <span style='color: dodgerblue; font-size: 28px'>O</span> pictures. <br></li><li> Please minimize distractions and stay focused. </li><br><br>Press SPACE to START</div>","32","","","","","","","","","","","","","","","","","","","",""
"html-keyboard-response","47","594083","0.0-3.0-3.0-0.0","e6j9hvgx6eorayl","practice_cue","5f072de78ef9940c5dbabf80","5f60e3c0a3b16e07647b2ff9","5f63802d2eb26305fea0e9ae","false","null","<span style=""color: black; font-size: 48px"">N + M</span>","null","","","","resp_prompt","","","","","","","","","","","","","","","",""
"categorize-image","48","594791","0.0-3.0-3.0-1.0","e6j9hvgx6eorayl","practice_cue","5f072de78ef9940c5dbabf80","5f60e3c0a3b16e07647b2ff9","5f63802d2eb26305fea0e9ae","true","676.5399998985231","./Stimuli/ImagesPractice/LN15.jpg","76","","","","test","false","N + M","83","","LN","LN15.jpg","remember","old","17","2","practice_forget","right","","","",""
"html-keyboard-response","49","595296","0.0-3.0-3.0-2.0-0.0","e6j9hvgx6eorayl","practice_cue","5f072de78ef9940c5dbabf80","5f60e3c0a3b16e07647b2ff9","5f63802d2eb26305fea0e9ae","false","null","<span style=""color: red; font-size: 48px"">Error!</span>","null","","","","feedback","","","","","","","","","","","","","","","",""
"html-keyboard-response","50","597299","0.0-3.0-3.0-3.0","e6j9hvgx6eorayl","practice_cue","5f072de78ef9940c5dbabf80","5f60e3c0a3b16e07647b2ff9","5f63802d2eb26305fea0e9ae","false","null","<div style=""align-items: center; display: flex; color: dodgerblue; font-size: 90px""><b>o</b></div>","null","","","","forget_cue","","","","","","","","","","","","","","","",""
"html-keyboard-response","51","598002","0.0-3.0-3.0-0.1","e6j9hvgx6eorayl","practice_cue","5f072de78ef9940c5dbabf80","5f60e3c0a3b16e07647b2ff9","5f63802d2eb26305fea0e9ae","false","null","<span style=""color: black; font-size: 48px"">N + M</span>","null","","","","resp_prompt","","","","","","","","","","","","","","","",""
"categorize-image","52","598606","0.0-3.0-3.0-1.1","e6j9hvgx6eorayl","practice_cue","5f072de78ef9940c5dbabf80","5f60e3c0a3b16e07647b2ff9","5f63802d2eb26305fea0e9ae","true","595.7499998621643","./Stimuli/ImagesPractice/SN222.jpg","83","","","","test","true","N + M","83","","SN","SN222.jpg","remember","old","18","2","practice_forget","left","","","",""
"html-keyboard-response","53","600610","0.0-3.0-3.0-3.1","e6j9hvgx6eorayl","practice_cue","5f072de78ef9940c5dbabf80","5f60e3c0a3b16e07647b2ff9","5f63802d2eb26305fea0e9ae","false","null","<div style=""align-items: center; display: flex; color: dodgerblue; font-size: 90px""><b>o</b></div>","null","","","","forget_cue","","","","","","","","","","","","","","","",""
"html-keyboard-response","54","601313","0.0-3.0-3.0-0.2","e6j9hvgx6eorayl","practice_cue","5f072de78ef9940c5dbabf80","5f60e3c0a3b16e07647b2ff9","5f63802d2eb26305fea0e9ae","false","null","<span style=""color: black; font-size: 48px"">M + N</span>","null","","","","resp_prompt","","","","","","","","","","","","","","","",""
"categorize-image","55","602234","0.0-3.0-3.0-1.2","e6j9hvgx6eorayl","practice_cue","5f072de78ef9940c5dbabf80","5f60e3c0a3b16e07647b2ff9","5f63802d2eb26305fea0e9ae","true","914.0699999406934","./Stimuli/ImagesPractice/SM98.jpg","83","","","","test","true","M + N","83","","SM","SM98.jpg","remember","old","19","2","practice_forget","left","","","",""
"html-keyboard-response","56","604240","0.0-3.0-3.0-3.2","e6j9hvgx6eorayl","practice_cue","5f072de78ef9940c5dbabf80","5f60e3c0a3b16e07647b2ff9","5f63802d2eb26305fea0e9ae","false","null","<div style=""align-items: center; display: flex; color: dodgerblue; font-size: 90px""><b>o</b></div>","null","","","","forget_cue","","","","","","","","","","","","","","","",""
"html-keyboard-response","57","604943","0.0-3.0-3.0-0.3","e6j9hvgx6eorayl","practice_cue","5f072de78ef9940c5dbabf80","5f60e3c0a3b16e07647b2ff9","5f63802d2eb26305fea0e9ae","false","null","<span style=""color: black; font-size: 48px"">N + M</span>","null","","","","resp_prompt","","","","","","","","","","","","","","","",""
"categorize-image","58","605574","0.0-3.0-3.0-1.3","e6j9hvgx6eorayl","practice_cue","5f072de78ef9940c5dbabf80","5f60e3c0a3b16e07647b2ff9","5f63802d2eb26305fea0e9ae","true","623.4750000294298","./Stimuli/ImagesPractice/LM230.jpg","76","","","","test","true","N + M","76","","LM","LM230.jpg","forget","old","20","2","practice_forget","right","","","",""
"html-keyboard-response","59","607579","0.0-3.0-3.0-3.3","e6j9hvgx6eorayl","practice_cue","5f072de78ef9940c5dbabf80","5f60e3c0a3b16e07647b2ff9","5f63802d2eb26305fea0e9ae","false","null","<div style=""align-items: center; display: flex; color: darkorange; font-size: 90px""><b>ø</b></div>","null","","","","forget_cue","","","","","","","","","","","","","","","",""
"html-keyboard-response","60","608282","0.0-3.0-3.0-0.4","e6j9hvgx6eorayl","practice_cue","5f072de78ef9940c5dbabf80","5f60e3c0a3b16e07647b2ff9","5f63802d2eb26305fea0e9ae","false","null","<span style=""color: black; font-size: 48px"">M + N</span>","null","","","","resp_prompt","","","","","","","","","","","","","","","",""
"categorize-image","61","608989","0.0-3.0-3.0-1.4","e6j9hvgx6eorayl","practice_cue","5f072de78ef9940c5dbabf80","5f60e3c0a3b16e07647b2ff9","5f63802d2eb26305fea0e9ae","true","699.2599999066442","./Stimuli/ImagesPractice/SM35.jpg","83","","","","test","true","M + N","83","","SM","SM35.jpg","remember","old","21","2","practice_forget","left","","","",""
"html-keyboard-response","62","610993","0.0-3.0-3.0-3.4","e6j9hvgx6eorayl","practice_cue","5f072de78ef9940c5dbabf80","5f60e3c0a3b16e07647b2ff9","5f63802d2eb26305fea0e9ae","false","null","<div style=""align-items: center; display: flex; color: dodgerblue; font-size: 90px""><b>o</b></div>","null","","","","forget_cue","","","","","","","","","","","","","","","",""
"html-keyboard-response","63","611696","0.0-3.0-3.0-0.5","e6j9hvgx6eorayl","practice_cue","5f072de78ef9940c5dbabf80","5f60e3c0a3b16e07647b2ff9","5f63802d2eb26305fea0e9ae","false","null","<span style=""color: black; font-size: 48px"">M + N</span>","null","","","","resp_prompt","","","","","","","","","","","","","","","",""
"categorize-image","64","612504","0.0-3.0-3.0-1.5","e6j9hvgx6eorayl","practice_cue","5f072de78ef9940c5dbabf80","5f60e3c0a3b16e07647b2ff9","5f63802d2eb26305fea0e9ae","true","799.4999999646097","./Stimuli/ImagesPractice/LM147.jpg","83","","","","test","true","M + N","83","","LM","LM147.jpg","remember","old","22","2","practice_forget","left","","","",""
"html-keyboard-response","65","614506","0.0-3.0-3.0-3.5","e6j9hvgx6eorayl","practice_cue","5f072de78ef9940c5dbabf80","5f60e3c0a3b16e07647b2ff9","5f63802d2eb26305fea0e9ae","false","null","<div style=""align-items: center; display: flex; color: dodgerblue; font-size: 90px""><b>o</b></div>","null","","","","forget_cue","","","","","","","","","","","","","","","",""
"html-keyboard-response","66","615210","0.0-3.0-3.0-0.6","e6j9hvgx6eorayl","practice_cue","5f072de78ef9940c5dbabf80","5f60e3c0a3b16e07647b2ff9","5f63802d2eb26305fea0e9ae","false","null","<span style=""color: black; font-size: 48px"">M + N</span>","null","","","","resp_prompt","","","","","","","","","","","","","","","",""
"categorize-image","67","615892","0.0-3.0-3.0-1.6","e6j9hvgx6eorayl","practice_cue","5f072de78ef9940c5dbabf80","5f60e3c0a3b16e07647b2ff9","5f63802d2eb26305fea0e9ae","true","673.9700001198798","./Stimuli/ImagesPractice/LN72.jpg","76","","","","test","true","M + N","76","","LN","LN72.jpg","forget","old","23","2","practice_forget","right","","","",""
"html-keyboard-response","68","617896","0.0-3.0-3.0-3.6","e6j9hvgx6eorayl","practice_cue","5f072de78ef9940c5dbabf80","5f60e3c0a3b16e07647b2ff9","5f63802d2eb26305fea0e9ae","false","null","<div style=""align-items: center; display: flex; color: darkorange; font-size: 90px""><b>ø</b></div>","null","","","","forget_cue","","","","","","","","","","","","","","","",""
"html-keyboard-response","69","618599","0.0-3.0-3.0-0.7","e6j9hvgx6eorayl","practice_cue","5f072de78ef9940c5dbabf80","5f60e3c0a3b16e07647b2ff9","5f63802d2eb26305fea0e9ae","false","null","<span style=""color: black; font-size: 48px"">N + M</span>","null","","","","resp_prompt","","","","","","","","","","","","","","","",""
"categorize-image","70","619145","0.0-3.0-3.0-1.7","e6j9hvgx6eorayl","practice_cue","5f072de78ef9940c5dbabf80","5f60e3c0a3b16e07647b2ff9","5f63802d2eb26305fea0e9ae","true","537.2200000565499","./Stimuli/ImagesPractice/LM224.jpg","76","","","","test","true","N + M","76","","LM","LM224.jpg","forget","old","24","2","practice_forget","right","","","",""
"html-keyboard-response","71","621149","0.0-3.0-3.0-3.7","e6j9hvgx6eorayl","practice_cue","5f072de78ef9940c5dbabf80","5f60e3c0a3b16e07647b2ff9","5f63802d2eb26305fea0e9ae","false","null","<div style=""align-items: center; display: flex; color: darkorange; font-size: 90px""><b>ø</b></div>","null","","","","forget_cue","","","","","","","","","","","","","","","",""
"html-keyboard-response","72","621853","0.0-3.0-3.0-0.8","e6j9hvgx6eorayl","practice_cue","5f072de78ef9940c5dbabf80","5f60e3c0a3b16e07647b2ff9","5f63802d2eb26305fea0e9ae","false","null","<span style=""color: black; font-size: 48px"">M + N</span>","null","","","","resp_prompt","","","","","","","","","","","","","","","",""
"categorize-image","73","622473","0.0-3.0-3.0-1.8","e6j9hvgx6eorayl","practice_cue","5f072de78ef9940c5dbabf80","5f60e3c0a3b16e07647b2ff9","5f63802d2eb26305fea0e9ae","true","613.1850001402199","./Stimuli/ImagesPractice/SN75.jpg","76","","","","test","true","M + N","76","","SN","SN75.jpg","forget","old","25","2","practice_forget","right","","","",""
"html-keyboard-response","74","624476","0.0-3.0-3.0-3.8","e6j9hvgx6eorayl","practice_cue","5f072de78ef9940c5dbabf80","5f60e3c0a3b16e07647b2ff9","5f63802d2eb26305fea0e9ae","false","null","<div style=""align-items: center; display: flex; color: darkorange; font-size: 90px""><b>ø</b></div>","null","","","","forget_cue","","","","","","","","","","","","","","","",""
"html-keyboard-response","75","625179","0.0-3.0-3.0-0.9","e6j9hvgx6eorayl","practice_cue","5f072de78ef9940c5dbabf80","5f60e3c0a3b16e07647b2ff9","5f63802d2eb26305fea0e9ae","false","null","<span style=""color: black; font-size: 48px"">N + M</span>","null","","","","resp_prompt","","","","","","","","","","","","","","","",""
"categorize-image","76","625718","0.0-3.0-3.0-1.9","e6j9hvgx6eorayl","practice_cue","5f072de78ef9940c5dbabf80","5f60e3c0a3b16e07647b2ff9","5f63802d2eb26305fea0e9ae","true","531.0349999926984","./Stimuli/ImagesPractice/SN205.jpg","83","","","","test","true","N + M","83","","SN","SN205.jpg","forget","old","26","2","practice_forget","left","","","",""
"html-keyboard-response","77","627721","0.0-3.0-3.0-3.9","e6j9hvgx6eorayl","practice_cue","5f072de78ef9940c5dbabf80","5f60e3c0a3b16e07647b2ff9","5f63802d2eb26305fea0e9ae","false","null","<div style=""align-items: center; display: flex; color: darkorange; font-size: 90px""><b>ø</b></div>","null","","","","forget_cue","","","","","","","","","","","","","","","",""
"html-keyboard-response","78","628427","0.0-3.0-3.0-0.10","e6j9hvgx6eorayl","practice_cue","5f072de78ef9940c5dbabf80","5f60e3c0a3b16e07647b2ff9","5f63802d2eb26305fea0e9ae","false","null","<span style=""color: black; font-size: 48px"">M + N</span>","null","","","","resp_prompt","","","","","","","","","","","","","","","",""
"categorize-image","79","628983","0.0-3.0-3.0-1.10","e6j9hvgx6eorayl","practice_cue","5f072de78ef9940c5dbabf80","5f60e3c0a3b16e07647b2ff9","5f63802d2eb26305fea0e9ae","true","548.5400001052767","./Stimuli/ImagesPractice/LN4.jpg","76","","","","test","true","M + N","76","","LN","LN4.jpg","forget","old","27","2","practice_forget","right","","","",""
"html-keyboard-response","80","630986","0.0-3.0-3.0-3.10","e6j9hvgx6eorayl","practice_cue","5f072de78ef9940c5dbabf80","5f60e3c0a3b16e07647b2ff9","5f63802d2eb26305fea0e9ae","false","null","<div style=""align-items: center; display: flex; color: darkorange; font-size: 90px""><b>ø</b></div>","null","","","","forget_cue","","","","","","","","","","","","","","","",""
"html-keyboard-response","81","631688","0.0-3.0-3.0-0.11","e6j9hvgx6eorayl","practice_cue","5f072de78ef9940c5dbabf80","5f60e3c0a3b16e07647b2ff9","5f63802d2eb26305fea0e9ae","false","null","<span style=""color: black; font-size: 48px"">M + N</span>","null","","","","resp_prompt","","","","","","","","","","","","","","","",""
"categorize-image","82","632360","0.0-3.0-3.0-1.11","e6j9hvgx6eorayl","practice_cue","5f072de78ef9940c5dbabf80","5f60e3c0a3b16e07647b2ff9","5f63802d2eb26305fea0e9ae","true","663.2550000213087","./Stimuli/ImagesPractice/LN2.jpg","76","","","","test","true","M + N","76","","LN","LN2.jpg","remember","old","28","2","practice_forget","right","","","",""
"html-keyboard-response","83","634364","0.0-3.0-3.0-3.11","e6j9hvgx6eorayl","practice_cue","5f072de78ef9940c5dbabf80","5f60e3c0a3b16e07647b2ff9","5f63802d2eb26305fea0e9ae","false","null","<div style=""align-items: center; display: flex; color: dodgerblue; font-size: 90px""><b>o</b></div>","null","","","","forget_cue","","","","","","","","","","","","","","","",""
"html-keyboard-response","84","635067","0.0-3.0-3.0-0.12","e6j9hvgx6eorayl","practice_cue","5f072de78ef9940c5dbabf80","5f60e3c0a3b16e07647b2ff9","5f63802d2eb26305fea0e9ae","false","null","<span style=""color: black; font-size: 48px"">N + M</span>","null","","","","resp_prompt","","","","","","","","","","","","","","","",""
"categorize-image","85","635849","0.0-3.0-3.0-1.12","e6j9hvgx6eorayl","practice_cue","5f072de78ef9940c5dbabf80","5f60e3c0a3b16e07647b2ff9","5f63802d2eb26305fea0e9ae","true","773.8200000021607","./Stimuli/ImagesPractice/SM37.jpg","76","","","","test","true","N + M","76","","SM","SM37.jpg","remember","old","29","2","practice_forget","right","","","",""
"html-keyboard-response","86","637855","0.0-3.0-3.0-3.12","e6j9hvgx6eorayl","practice_cue","5f072de78ef9940c5dbabf80","5f60e3c0a3b16e07647b2ff9","5f63802d2eb26305fea0e9ae","false","null","<div style=""align-items: center; display: flex; color: dodgerblue; font-size: 90px""><b>o</b></div>","null","","","","forget_cue","","","","","","","","","","","","","","","",""
"html-keyboard-response","87","638558","0.0-3.0-3.0-0.13","e6j9hvgx6eorayl","practice_cue","5f072de78ef9940c5dbabf80","5f60e3c0a3b16e07647b2ff9","5f63802d2eb26305fea0e9ae","false","null","<span style=""color: black; font-size: 48px"">N + M</span>","null","","","","resp_prompt","","","","","","","","","","","","","","","",""
"categorize-image","88","639371","0.0-3.0-3.0-1.13","e6j9hvgx6eorayl","practice_cue","5f072de78ef9940c5dbabf80","5f60e3c0a3b16e07647b2ff9","5f63802d2eb26305fea0e9ae","true","805.445000063628","./Stimuli/ImagesPractice/SM61.jpg","76","","","","test","true","N + M","76","","SM","SM61.jpg","forget","old","30","2","practice_forget","right","","","",""
"html-keyboard-response","89","641376","0.0-3.0-3.0-3.13","e6j9hvgx6eorayl","practice_cue","5f072de78ef9940c5dbabf80","5f60e3c0a3b16e07647b2ff9","5f63802d2eb26305fea0e9ae","false","null","<div style=""align-items: center; display: flex; color: darkorange; font-size: 90px""><b>ø</b></div>","null","","","","forget_cue","","","","","","","","","","","","","","","",""
"html-keyboard-response","90","642080","0.0-3.0-3.0-0.14","e6j9hvgx6eorayl","practice_cue","5f072de78ef9940c5dbabf80","5f60e3c0a3b16e07647b2ff9","5f63802d2eb26305fea0e9ae","false","null","<span style=""color: black; font-size: 48px"">M + N</span>","null","","","","resp_prompt","","","","","","","","","","","","","","","",""
"categorize-image","91","642776","0.0-3.0-3.0-1.14","e6j9hvgx6eorayl","practice_cue","5f072de78ef9940c5dbabf80","5f60e3c0a3b16e07647b2ff9","5f63802d2eb26305fea0e9ae","true","688.3099998813123","./Stimuli/ImagesPractice/LN109.jpg","76","","","","test","true","M + N","76","","LN","LN109.jpg","forget","old","31","2","practice_forget","right","","","",""
"html-keyboard-response","92","644779","0.0-3.0-3.0-3.14","e6j9hvgx6eorayl","practice_cue","5f072de78ef9940c5dbabf80","5f60e3c0a3b16e07647b2ff9","5f63802d2eb26305fea0e9ae","false","null","<div style=""align-items: center; display: flex; color: darkorange; font-size: 90px""><b>ø</b></div>","null","","","","forget_cue","","","","","","","","","","","","","","","",""
"html-keyboard-response","93","645481","0.0-3.0-3.0-0.15","e6j9hvgx6eorayl","practice_cue","5f072de78ef9940c5dbabf80","5f60e3c0a3b16e07647b2ff9","5f63802d2eb26305fea0e9ae","false","null","<span style=""color: black; font-size: 48px"">N + M</span>","null","","","","resp_prompt","","","","","","","","","","","","","","","",""
"categorize-image","94","646191","0.0-3.0-3.0-1.15","e6j9hvgx6eorayl","practice_cue","5f072de78ef9940c5dbabf80","5f60e3c0a3b16e07647b2ff9","5f63802d2eb26305fea0e9ae","true","702.2899999283254","./Stimuli/ImagesPractice/SM62.jpg","76","","","","test","true","N + M","76","","SM","SM62.jpg","remember","old","32","2","practice_forget","right","","","",""
"html-keyboard-response","95","648199","0.0-3.0-3.0-3.15","e6j9hvgx6eorayl","practice_cue","5f072de78ef9940c5dbabf80","5f60e3c0a3b16e07647b2ff9","5f63802d2eb26305fea0e9ae","false","null","<div style=""align-items: center; display: flex; color: dodgerblue; font-size: 90px""><b>o</b></div>","null","","","","forget_cue","","","","","","","","","","","","","","","",""
"html-keyboard-response","96","651416","0.0-3.0-4.0","e6j9hvgx6eorayl","break","5f072de78ef9940c5dbabf80","5f60e3c0a3b16e07647b2ff9","5f63802d2eb26305fea0e9ae","false","3214.335000142455","<p style='font-size: 32px;'>Break</><br><br><br><br><br><p style='font-size: 24px;'>In the last block, you committed 1 errors and did not respond in time on 0 trials.
</p><p style='font-size: 24px;'>Try to respond as fast and accurately as possible in the next block as well! </p><p style='font-size: 24px;'>Press SPACE to continue.</p>","32","","","","","","","","","","","","","","","","","","","",""
"html-keyboard-response","97","667816","0.0-3.0-5.0","e6j9hvgx6eorayl","instructions","5f072de78ef9940c5dbabf80","5f60e3c0a3b16e07647b2ff9","5f63802d2eb26305fea0e9ae","false","16397.82000007108","<div align=left> Now, to practice, we kindly ask you to remember as many of the to-be-remembered pictures<br>of the previous learning phase as possible.<br><br>The pictures you were instructed to remember were the pictures followed by a <span style='color: dodgerblue; font-size: 28px'>O</span>.<br><br>In this memory test phase, you will also see some new pictures.<br>It is your task to remember whether you were presented with this specific picture in this study so far or not.<br>If you recognize an object (you have already seen it in this study), it is an OLD object. <br>If you do not recognize an object (you have NOT seen it in this study), it is a NEW object. <br><strong> Attention</strong>: As already mentioned, <span style='color: darkorange; font-size:28px'>Ø</span>-pictures will <strong>never</strong> appear in this memory test (neither as new objects). <br><br>Press SPACE to continue. </div>","32","","","","","","","","","","","","","","","","","","","",""
"html-keyboard-response","98","703681","0.0-3.0-6.0","e6j9hvgx6eorayl","instructions","5f072de78ef9940c5dbabf80","5f60e3c0a3b16e07647b2ff9","5f63802d2eb26305fea0e9ae","false","35862.03499999829","<div align=left> M and N no longer will appear on the left/right of the fixation cross. <br>Instead there will be a note at the bottom of the left or right side  <br>indicating which key you should press for an old or new object:  <br> <br>Press the <strong>right</strong> key to classify an object as <strong>old</strong> and press the <strong>left</strong>, to classify an object as <strong>new</strong>.<br>Please classify the objects as new/old by again placing your index finger on the 'S' and 'L' keys <br>and press them accordingly.<br><br><strong>Old:</strong> This object has been presented before. <br><strong>New:</strong> This object has <strong>not</strong> been presented.<br><br>Now please put your right and left index fingers on the 'S' and 'L' keys of your keyboard. <br>Please respond as fast and as accurately as possible!<br><br>Press SPACE to continue. </div>","32","","","","","","","","","","","","","","","","","","","",""
"categorize-image","99","705365","0.0-3.0-7.0-0.0","e6j9hvgx6eorayl","practice_recog","5f072de78ef9940c5dbabf80","5f60e3c0a3b16e07647b2ff9","5f63802d2eb26305fea0e9ae","true","1175.1350001432002","./Stimuli/ImagesPractice/SN220.jpg","83","","","","test","true","","83","","SN","SN220.jpg","","new","33","3","practice_recog","left","","","",""
"categorize-image","100","706682","0.0-3.0-7.0-0.1","e6j9hvgx6eorayl","practice_recog","5f072de78ef9940c5dbabf80","5f60e3c0a3b16e07647b2ff9","5f63802d2eb26305fea0e9ae","true","810.4900000616908","./Stimuli/ImagesPractice/LN17.jpg","83","","","","test","true","","83","","LN","LN17.jpg","","new","34","3","practice_recog","left","","","",""
"categorize-image","101","707882","0.0-3.0-7.0-0.2","e6j9hvgx6eorayl","practice_recog","5f072de78ef9940c5dbabf80","5f60e3c0a3b16e07647b2ff9","5f63802d2eb26305fea0e9ae","true","693.6949999071658","./Stimuli/ImagesPractice/SM97.jpg","83","","","","test","true","","83","","SM","SM97.jpg","","new","35","3","practice_recog","left","","","",""
"categorize-image","102","708997","0.0-3.0-7.0-0.3","e6j9hvgx6eorayl","practice_recog","5f072de78ef9940c5dbabf80","5f60e3c0a3b16e07647b2ff9","5f63802d2eb26305fea0e9ae","true","609.7099999897182","./Stimuli/ImagesPractice/LM143.jpg","83","","","","test","true","","83","","LM","LM143.jpg","","new","36","3","practice_recog","left","","","",""
"categorize-image","103","710096","0.0-3.0-7.0-0.4","e6j9hvgx6eorayl","practice_recog","5f072de78ef9940c5dbabf80","5f60e3c0a3b16e07647b2ff9","5f63802d2eb26305fea0e9ae","true","591.9899998698384","./Stimuli/ImagesPractice/LM239.jpg","83","","","","test","true","","83","","LM","LM239.jpg","","new","37","3","practice_recog","left","","","",""
"categorize-image","104","711135","0.0-3.0-7.0-0.5","e6j9hvgx6eorayl","practice_recog","5f072de78ef9940c5dbabf80","5f60e3c0a3b16e07647b2ff9","5f63802d2eb26305fea0e9ae","true","533.9999999850988","./Stimuli/ImagesPractice/LM55.jpg","83","","","","test","true","","83","","LM","LM55.jpg","","new","38","3","practice_recog","left","","","",""
"categorize-image","105","712298","0.0-3.0-7.0-0.6","e6j9hvgx6eorayl","practice_recog","5f072de78ef9940c5dbabf80","5f60e3c0a3b16e07647b2ff9","5f63802d2eb26305fea0e9ae","true","656.1550002079457","./Stimuli/ImagesPractice/LN15.jpg","76","","","","test","true","","76","","LN","LN15.jpg","","old","39","3","practice_recog","right","","","",""
"categorize-image","106","713480","0.0-3.0-7.0-0.7","e6j9hvgx6eorayl","practice_recog","5f072de78ef9940c5dbabf80","5f60e3c0a3b16e07647b2ff9","5f63802d2eb26305fea0e9ae","true","675.9500000625849","./Stimuli/ImagesPractice/SM37.jpg","76","","","","test","true","","76","","SM","SM37.jpg","","old","40","3","practice_recog","right","","","",""
"categorize-image","107","714542","0.0-3.0-7.0-0.8","e6j9hvgx6eorayl","practice_recog","5f072de78ef9940c5dbabf80","5f60e3c0a3b16e07647b2ff9","5f63802d2eb26305fea0e9ae","true","555.4500001017004","./Stimuli/ImagesPractice/SN221.jpg","83","","","","test","true","","83","","SN","SN221.jpg","","new","41","3","practice_recog","left","","","",""
"categorize-image","108","715714","0.0-3.0-7.0-0.9","e6j9hvgx6eorayl","practice_recog","5f072de78ef9940c5dbabf80","5f60e3c0a3b16e07647b2ff9","5f63802d2eb26305fea0e9ae","true","668.5399999842048","./Stimuli/ImagesPractice/SM98.jpg","76","","","","test","true","","76","","SM","SM98.jpg","","old","42","3","practice_recog","right","","","",""
"categorize-image","109","716923","0.0-3.0-7.0-0.10","e6j9hvgx6eorayl","practice_recog","5f072de78ef9940c5dbabf80","5f60e3c0a3b16e07647b2ff9","5f63802d2eb26305fea0e9ae","true","702.3300000000745","./Stimuli/ImagesPractice/LN2.jpg","76","","","","test","true","","76","","LN","LN2.jpg","","old","43","3","practice_recog","right","","","",""
"categorize-image","110","717957","0.0-3.0-7.0-0.11","e6j9hvgx6eorayl","practice_recog","5f072de78ef9940c5dbabf80","5f60e3c0a3b16e07647b2ff9","5f63802d2eb26305fea0e9ae","true","528.5849999636412","./Stimuli/ImagesPractice/SM62.jpg","76","","","","test","true","","76","","SM","SM62.jpg","","old","44","3","practice_recog","right","","","",""
"categorize-image","111","719024","0.0-3.0-7.0-0.12","e6j9hvgx6eorayl","practice_recog","5f072de78ef9940c5dbabf80","5f60e3c0a3b16e07647b2ff9","5f63802d2eb26305fea0e9ae","true","562.8800000995398","./Stimuli/ImagesPractice/SM35.jpg","76","","","","test","true","","76","","SM","SM35.jpg","","old","45","3","practice_recog","right","","","",""
"categorize-image","112","720033","0.0-3.0-7.0-0.13","e6j9hvgx6eorayl","practice_recog","5f072de78ef9940c5dbabf80","5f60e3c0a3b16e07647b2ff9","5f63802d2eb26305fea0e9ae","true","501.7750000115484","./Stimuli/ImagesPractice/SN222.jpg","83","","","","test","false","","76","","SN","SN222.jpg","","old","46","3","practice_recog","left","","","",""
"categorize-image","113","721808","0.0-3.0-7.0-0.14","e6j9hvgx6eorayl","practice_recog","5f072de78ef9940c5dbabf80","5f60e3c0a3b16e07647b2ff9","5f63802d2eb26305fea0e9ae","true","1268.0199998430908","./Stimuli/ImagesPractice/SN76.jpg","83","","","","test","true","","83","","SN","SN76.jpg","","new","47","3","practice_recog","left","","","",""
"categorize-image","114","722973","0.0-3.0-7.0-0.15","e6j9hvgx6eorayl","practice_recog","5f072de78ef9940c5dbabf80","5f60e3c0a3b16e07647b2ff9","5f63802d2eb26305fea0e9ae","true","659.9449999630451","./Stimuli/ImagesPractice/LM147.jpg","76","","","","test","true","","76","","LM","LM147.jpg","","old","48","3","practice_recog","right","","","",""
"html-keyboard-response","115","725558","0.0-3.0-8.0","e6j9hvgx6eorayl","instructions","5f072de78ef9940c5dbabf80","5f60e3c0a3b16e07647b2ff9","5f63802d2eb26305fea0e9ae","false","2582.440000027418","<div align=left> Great!<br><br>Are you ready to continue?<br>If you want to reread the instructions and redo the practice trials, please <br>press „Z“.<br><br>You can proceed when you are ready.<br><br>After the presentation of each object, you will receive an instruction whether to <br>remember or to forget the object.<br>We will test your memory of the following pictures only at the very end of <br>the experiment after all learning blocks are completed. <br><br>Press SPACE to CONTINUE when you are ready. </div>","32","","","","","","","","","","","","","","","","","","","",""
"html-keyboard-response","116","736594","0.0-4.0-0.0","e6j9hvgx6eorayl","instructions","5f072de78ef9940c5dbabf80","5f60e3c0a3b16e07647b2ff9","5f63802d2eb26305fea0e9ae","false","11033.730000024661","<div align=left> The actual experiment is about to start.<br>The practice trials are over!<br><br>Please always respond both fast and accurately!<br><br>Remember: <br> <br><li> Please place your index fingers on the <strong>'S'</strong> and <strong>'L'</strong> keys <br>to respond as fast and accurately as possible.</li><li> Every picture can be classified as either mechanical or non-mechanical.</li><li> If you do not respond in time or commit an error, you will receive a corresponding feedback.<br> Please try to respond as <strong> fast </strong> and as <strong> accurately as possible </strong>.</li><li> Remember the <span style='color: dodgerblue; font-size: 28px'>O</span> pictures. <br></li><li> Please minimize distractions and stay focused. </li><br><br>Press SPACE to START.</div>","32","","","","","","","","","","","","","","","","","","","",""
"html-keyboard-response","117","737299","0.0-4.0-1.0-0.0","e6j9hvgx6eorayl","prime","5f072de78ef9940c5dbabf80","5f60e3c0a3b16e07647b2ff9","5f63802d2eb26305fea0e9ae","false","null","<span style=""color: black; font-size: 48px"">M + N</span>","null","","","","resp_prompt","","","","","","","","","","","","","","","",""
"categorize-image","118","738213","0.0-4.0-1.0-1.0","e6j9hvgx6eorayl","prime","5f072de78ef9940c5dbabf80","5f60e3c0a3b16e07647b2ff9","5f63802d2eb26305fea0e9ae","true","907.4699999764562","./Stimuli/SelectedImages/SM/SM213.bmp","83","","","","test","true","M + N","83","repetition","SM","SM213.bmp","forget","","49","3","prime1","left","","","",""
"html-keyboard-response","119","740218","0.0-4.0-1.0-3.0","e6j9hvgx6eorayl","prime","5f072de78ef9940c5dbabf80","5f60e3c0a3b16e07647b2ff9","5f63802d2eb26305fea0e9ae","false","null","<div style=""align-items: center; display: flex; color: darkorange; font-size: 90px""><b>ø</b></div>","null","","","","forget_cue","","","","","","","","","","","","","","","",""
"html-keyboard-response","120","740920","0.0-4.0-1.0-0.1","e6j9hvgx6eorayl","prime","5f072de78ef9940c5dbabf80","5f60e3c0a3b16e07647b2ff9","5f63802d2eb26305fea0e9ae","false","null","<span style=""color: black; font-size: 48px"">N + M</span>","null","","","","resp_prompt","","","","","","","","","","","","","","","",""
"categorize-image","121","741874","0.0-4.0-1.0-1.1","e6j9hvgx6eorayl","prime","5f072de78ef9940c5dbabf80","5f60e3c0a3b16e07647b2ff9","5f63802d2eb26305fea0e9ae","true","947.0699999947101","./Stimuli/SelectedImages/SM/SM195.bmp","76","","","","test","true","N + M","76","switch","SM","SM195.bmp","forget","","50","3","prime1","right","","","",""
"html-keyboard-response","122","743879","0.0-4.0-1.0-3.1","e6j9hvgx6eorayl","prime","5f072de78ef9940c5dbabf80","5f60e3c0a3b16e07647b2ff9","5f63802d2eb26305fea0e9ae","false","null","<div style=""align-items: center; display: flex; color: darkorange; font-size: 90px""><b>ø</b></div>","null","","","","forget_cue","","","","","","","","","","","","","","","",""
"html-keyboard-response","123","744582","0.0-4.0-1.0-0.2","e6j9hvgx6eorayl","prime","5f072de78ef9940c5dbabf80","5f60e3c0a3b16e07647b2ff9","5f63802d2eb26305fea0e9ae","false","null","<span style=""color: black; font-size: 48px"">M + N</span>","null","","","","resp_prompt","","","","","","","","","","","","","","","",""
"categorize-image","124","745412","0.0-4.0-1.0-1.2","e6j9hvgx6eorayl","prime","5f072de78ef9940c5dbabf80","5f60e3c0a3b16e07647b2ff9","5f63802d2eb26305fea0e9ae","true","821.8199999537319","./Stimuli/SelectedImages/LM/LM75.bmp","83","","","","test","true","M + N","83","switch","LM","LM75.bmp","remember","","51","3","prime1","left","","","",""
"html-keyboard-response","125","747416","0.0-4.0-1.0-3.2","e6j9hvgx6eorayl","prime","5f072de78ef9940c5dbabf80","5f60e3c0a3b16e07647b2ff9","5f63802d2eb26305fea0e9ae","false","null","<div style=""align-items: center; display: flex; color: dodgerblue; font-size: 90px""><b>o</b></div>","null","","","","forget_cue","","","","","","","","","","","","","","","",""
"html-keyboard-response","126","748120","0.0-4.0-1.0-0.3","e6j9hvgx6eorayl","prime","5f072de78ef9940c5dbabf80","5f60e3c0a3b16e07647b2ff9","5f63802d2eb26305fea0e9ae","false","null","<span style=""color: black; font-size: 48px"">N + M</span>","null","","","","resp_prompt","","","","","","","","","","","","","","","",""
"categorize-image","127","748907","0.0-4.0-1.0-1.3","e6j9hvgx6eorayl","prime","5f072de78ef9940c5dbabf80","5f60e3c0a3b16e07647b2ff9","5f63802d2eb26305fea0e9ae","true","777.1300000604242","./Stimuli/SelectedImages/LN/LN128.bmp","83","","","","test","true","N + M","83","repetition","LN","LN128.bmp","remember","","52","3","prime1","left","","","",""
"html-keyboard-response","128","750910","0.0-4.0-1.0-3.3","e6j9hvgx6eorayl","prime","5f072de78ef9940c5dbabf80","5f60e3c0a3b16e07647b2ff9","5f63802d2eb26305fea0e9ae","false","null","<div style=""align-items: center; display: flex; color: dodgerblue; font-size: 90px""><b>o</b></div>","null","","","","forget_cue","","","","","","","","","","","","","","","",""
"html-keyboard-response","129","751614","0.0-4.0-1.0-0.4","e6j9hvgx6eorayl","prime","5f072de78ef9940c5dbabf80","5f60e3c0a3b16e07647b2ff9","5f63802d2eb26305fea0e9ae","false","null","<span style=""color: black; font-size: 48px"">N + M</span>","null","","","","resp_prompt","","","","","","","","","","","","","","","",""
"categorize-image","130","752339","0.0-4.0-1.0-1.4","e6j9hvgx6eorayl","prime","5f072de78ef9940c5dbabf80","5f60e3c0a3b16e07647b2ff9","5f63802d2eb26305fea0e9ae","true","716.6299999225885","./Stimuli/SelectedImages/LN/LN150.bmp","83","","","","test","true","N + M","83","repetition","LN","LN150.bmp","forget","","53","3","prime1","left","","","",""
"html-keyboard-response","131","754343","0.0-4.0-1.0-3.4","e6j9hvgx6eorayl","prime","5f072de78ef9940c5dbabf80","5f60e3c0a3b16e07647b2ff9","5f63802d2eb26305fea0e9ae","false","null","<div style=""align-items: center; display: flex; color: darkorange; font-size: 90px""><b>ø</b></div>","null","","","","forget_cue","","","","","","","","","","","","","","","",""
"html-keyboard-response","132","755045","0.0-4.0-1.0-0.5","e6j9hvgx6eorayl","prime","5f072de78ef9940c5dbabf80","5f60e3c0a3b16e07647b2ff9","5f63802d2eb26305fea0e9ae","false","null","<span style=""color: black; font-size: 48px"">N + M</span>","null","","","","resp_prompt","","","","","","","","","","","","","","","",""
"categorize-image","133","755769","0.0-4.0-1.0-1.5","e6j9hvgx6eorayl","prime","5f072de78ef9940c5dbabf80","5f60e3c0a3b16e07647b2ff9","5f63802d2eb26305fea0e9ae","true","716.2200000602752","./Stimuli/SelectedImages/LM/LM57.bmp","76","","","","test","true","N + M","76","repetition","LM","LM57.bmp","forget","","54","3","prime1","right","","","",""
"html-keyboard-response","134","757773","0.0-4.0-1.0-3.5","e6j9hvgx6eorayl","prime","5f072de78ef9940c5dbabf80","5f60e3c0a3b16e07647b2ff9","5f63802d2eb26305fea0e9ae","false","null","<div style=""align-items: center; display: flex; color: darkorange; font-size: 90px""><b>ø</b></div>","null","","","","forget_cue","","","","","","","","","","","","","","","",""
"html-keyboard-response","135","758477","0.0-4.0-1.0-0.6","e6j9hvgx6eorayl","prime","5f072de78ef9940c5dbabf80","5f60e3c0a3b16e07647b2ff9","5f63802d2eb26305fea0e9ae","false","null","<span style=""color: black; font-size: 48px"">N + M</span>","null","","","","resp_prompt","","","","","","","","","","","","","","","",""
"categorize-image","136","759385","0.0-4.0-1.0-1.6","e6j9hvgx6eorayl","prime","5f072de78ef9940c5dbabf80","5f60e3c0a3b16e07647b2ff9","5f63802d2eb26305fea0e9ae","true","899.7150000650436","./Stimuli/SelectedImages/LN/LN131.bmp","83","","","","test","true","N + M","83","switch","LN","LN131.bmp","remember","","55","3","prime1","left","","","",""
"html-keyboard-response","137","761389","0.0-4.0-1.0-3.6","e6j9hvgx6eorayl","prime","5f072de78ef9940c5dbabf80","5f60e3c0a3b16e07647b2ff9","5f63802d2eb26305fea0e9ae","false","null","<div style=""align-items: center; display: flex; color: dodgerblue; font-size: 90px""><b>o</b></div>","null","","","","forget_cue","","","","","","","","","","","","","","","",""
"html-keyboard-response","138","762092","0.0-4.0-1.0-0.7","e6j9hvgx6eorayl","prime","5f072de78ef9940c5dbabf80","5f60e3c0a3b16e07647b2ff9","5f63802d2eb26305fea0e9ae","false","null","<span style=""color: black; font-size: 48px"">M + N</span>","null","","","","resp_prompt","","","","","","","","","","","","","","","",""
"categorize-image","139","763136","0.0-4.0-1.0-1.7","e6j9hvgx6eorayl","prime","5f072de78ef9940c5dbabf80","5f60e3c0a3b16e07647b2ff9","5f63802d2eb26305fea0e9ae","true","1034.9850000347942","./Stimuli/SelectedImages/SM/SM184.bmp","83","","","","test","true","M + N","83","repetition","SM","SM184.bmp","forget","","56","3","prime1","left","","","",""
"html-keyboard-response","140","765139","0.0-4.0-1.0-3.7","e6j9hvgx6eorayl","prime","5f072de78ef9940c5dbabf80","5f60e3c0a3b16e07647b2ff9","5f63802d2eb26305fea0e9ae","false","null","<div style=""align-items: center; display: flex; color: darkorange; font-size: 90px""><b>ø</b></div>","null","","","","forget_cue","","","","","","","","","","","","","","","",""
"html-keyboard-response","141","765841","0.0-4.0-1.0-0.8","e6j9hvgx6eorayl","prime","5f072de78ef9940c5dbabf80","5f60e3c0a3b16e07647b2ff9","5f63802d2eb26305fea0e9ae","false","null","<span style=""color: black; font-size: 48px"">M + N</span>","null","","","","resp_prompt","","","","","","","","","","","","","","","",""
"categorize-image","142","766380","0.0-4.0-1.0-1.8","e6j9hvgx6eorayl","prime","5f072de78ef9940c5dbabf80","5f60e3c0a3b16e07647b2ff9","5f63802d2eb26305fea0e9ae","true","528.7550000939518","./Stimuli/SelectedImages/SM/SM78.bmp","83","","","","test","true","M + N","83","switch","SM","SM78.bmp","remember","","57","3","prime1","left","","","",""
"html-keyboard-response","143","768384","0.0-4.0-1.0-3.8","e6j9hvgx6eorayl","prime","5f072de78ef9940c5dbabf80","5f60e3c0a3b16e07647b2ff9","5f63802d2eb26305fea0e9ae","false","null","<div style=""align-items: center; display: flex; color: dodgerblue; font-size: 90px""><b>o</b></div>","null","","","","forget_cue","","","","","","","","","","","","","","","",""
"html-keyboard-response","144","769088","0.0-4.0-1.0-0.9","e6j9hvgx6eorayl","prime","5f072de78ef9940c5dbabf80","5f60e3c0a3b16e07647b2ff9","5f63802d2eb26305fea0e9ae","false","null","<span style=""color: black; font-size: 48px"">N + M</span>","null","","","","resp_prompt","","","","","","","","","","","","","","","",""
"categorize-image","145","769753","0.0-4.0-1.0-1.9","e6j9hvgx6eorayl","prime","5f072de78ef9940c5dbabf80","5f60e3c0a3b16e07647b2ff9","5f63802d2eb26305fea0e9ae","true","652.9650001320988","./Stimuli/SelectedImages/LM/LM129.bmp","76","","","","test","true","N + M","76","switch","LM","LM129.bmp","forget","","58","3","prime1","right","","","",""
"html-keyboard-response","146","771759","0.0-4.0-1.0-3.9","e6j9hvgx6eorayl","prime","5f072de78ef9940c5dbabf80","5f60e3c0a3b16e07647b2ff9","5f63802d2eb26305fea0e9ae","false","null","<div style=""align-items: center; display: flex; color: darkorange; font-size: 90px""><b>ø</b></div>","null","","","","forget_cue","","","","","","","","","","","","","","","",""
"html-keyboard-response","147","772463","0.0-4.0-1.0-0.10","e6j9hvgx6eorayl","prime","5f072de78ef9940c5dbabf80","5f60e3c0a3b16e07647b2ff9","5f63802d2eb26305fea0e9ae","false","null","<span style=""color: black; font-size: 48px"">N + M</span>","null","","","","resp_prompt","","","","","","","","","","","","","","","",""
"categorize-image","148","773016","0.0-4.0-1.0-1.10","e6j9hvgx6eorayl","prime","5f072de78ef9940c5dbabf80","5f60e3c0a3b16e07647b2ff9","5f63802d2eb26305fea0e9ae","true","545.6799999810755","./Stimuli/SelectedImages/SM/SM108.bmp","76","","","","test","true","N + M","76","repetition","SM","SM108.bmp","remember","","59","3","prime1","right","","","",""
"html-keyboard-response","149","775020","0.0-4.0-1.0-3.10","e6j9hvgx6eorayl","prime","5f072de78ef9940c5dbabf80","5f60e3c0a3b16e07647b2ff9","5f63802d2eb26305fea0e9ae","false","null","<div style=""align-items: center; display: flex; color: dodgerblue; font-size: 90px""><b>o</b></div>","null","","","","forget_cue","","","","","","","","","","","","","","","",""
"html-keyboard-response","150","775724","0.0-4.0-1.0-0.11","e6j9hvgx6eorayl","prime","5f072de78ef9940c5dbabf80","5f60e3c0a3b16e07647b2ff9","5f63802d2eb26305fea0e9ae","false","null","<span style=""color: black; font-size: 48px"">M + N</span>","null","","","","resp_prompt","","","","","","","","","","","","","","","",""
"categorize-image","151","776411","0.0-4.0-1.0-1.11","e6j9hvgx6eorayl","prime","5f072de78ef9940c5dbabf80","5f60e3c0a3b16e07647b2ff9","5f63802d2eb26305fea0e9ae","true","678.9949999656528","./Stimuli/SelectedImages/LN/LN82.bmp","76","","","","test","true","M + N","76","switch","LN","LN82.bmp","forget","","60","3","prime1","right","","","",""
"html-keyboard-response","152","778414","0.0-4.0-1.0-3.11","e6j9hvgx6eorayl","prime","5f072de78ef9940c5dbabf80","5f60e3c0a3b16e07647b2ff9","5f63802d2eb26305fea0e9ae","false","null","<div style=""align-items: center; display: flex; color: darkorange; font-size: 90px""><b>ø</b></div>","null","","","","forget_cue","","","","","","","","","","","","","","","",""
"html-keyboard-response","153","779117","0.0-4.0-1.0-0.12","e6j9hvgx6eorayl","prime","5f072de78ef9940c5dbabf80","5f60e3c0a3b16e07647b2ff9","5f63802d2eb26305fea0e9ae","false","null","<span style=""color: black; font-size: 48px"">M + N</span>","null","","","","resp_prompt","","","","","","","","","","","","","","","",""
"categorize-image","154","779665","0.0-4.0-1.0-1.12","e6j9hvgx6eorayl","prime","5f072de78ef9940c5dbabf80","5f60e3c0a3b16e07647b2ff9","5f63802d2eb26305fea0e9ae","true","540.5600001104176","./Stimuli/SelectedImages/SM/SM24.bmp","83","","","","test","true","M + N","83","switch","SM","SM24.bmp","forget","","61","3","prime1","left","","","",""
"html-keyboard-response","155","781668","0.0-4.0-1.0-3.12","e6j9hvgx6eorayl","prime","5f072de78ef9940c5dbabf80","5f60e3c0a3b16e07647b2ff9","5f63802d2eb26305fea0e9ae","false","null","<div style=""align-items: center; display: flex; color: darkorange; font-size: 90px""><b>ø</b></div>","null","","","","forget_cue","","","","","","","","","","","","","","","",""
"html-keyboard-response","156","782371","0.0-4.0-1.0-0.13","e6j9hvgx6eorayl","prime","5f072de78ef9940c5dbabf80","5f60e3c0a3b16e07647b2ff9","5f63802d2eb26305fea0e9ae","false","null","<span style=""color: black; font-size: 48px"">N + M</span>","null","","","","resp_prompt","","","","","","","","","","","","","","","",""
"categorize-image","157","782926","0.0-4.0-1.0-1.13","e6j9hvgx6eorayl","prime","5f072de78ef9940c5dbabf80","5f60e3c0a3b16e07647b2ff9","5f63802d2eb26305fea0e9ae","true","548.0400000233203","./Stimuli/SelectedImages/LM/LM150.bmp","76","","","","test","true","N + M","76","repetition","LM","LM150.bmp","remember","","62","3","prime1","right","","","",""
"html-keyboard-response","158","784931","0.0-4.0-1.0-3.13","e6j9hvgx6eorayl","prime","5f072de78ef9940c5dbabf80","5f60e3c0a3b16e07647b2ff9","5f63802d2eb26305fea0e9ae","false","null","<div style=""align-items: center; display: flex; color: dodgerblue; font-size: 90px""><b>o</b></div>","null","","","","forget_cue","","","","","","","","","","","","","","","",""
"html-keyboard-response","159","785633","0.0-4.0-1.0-0.14","e6j9hvgx6eorayl","prime","5f072de78ef9940c5dbabf80","5f60e3c0a3b16e07647b2ff9","5f63802d2eb26305fea0e9ae","false","null","<span style=""color: black; font-size: 48px"">N + M</span>","null","","","","resp_prompt","","","","","","","","","","","","","","","",""
"categorize-image","160","786397","0.0-4.0-1.0-1.14","e6j9hvgx6eorayl","prime","5f072de78ef9940c5dbabf80","5f60e3c0a3b16e07647b2ff9","5f63802d2eb26305fea0e9ae","true","756.0300000477582","./Stimuli/SelectedImages/SN/SN182.bmp","83","","","","test","true","N + M","83","repetition","SN","SN182.bmp","remember","","63","3","prime1","left","","","",""
"html-keyboard-response","161","788401","0.0-4.0-1.0-3.14","e6j9hvgx6eorayl","prime","5f072de78ef9940c5dbabf80","5f60e3c0a3b16e07647b2ff9","5f63802d2eb26305fea0e9ae","false","null","<div style=""align-items: center; display: flex; color: dodgerblue; font-size: 90px""><b>o</b></div>","null","","","","forget_cue","","","","","","","","","","","","","","","",""
"html-keyboard-response","162","789104","0.0-4.0-1.0-0.15","e6j9hvgx6eorayl","prime","5f072de78ef9940c5dbabf80","5f60e3c0a3b16e07647b2ff9","5f63802d2eb26305fea0e9ae","false","null","<span style=""color: black; font-size: 48px"">N + M</span>","null","","","","resp_prompt","","","","","","","","","","","","","","","",""
"categorize-image","163","789796","0.0-4.0-1.0-1.15","e6j9hvgx6eorayl","prime","5f072de78ef9940c5dbabf80","5f60e3c0a3b16e07647b2ff9","5f63802d2eb26305fea0e9ae","true","684.2700000852346","./Stimuli/SelectedImages/SN/SN187.bmp","83","","","","test","true","N + M","83","repetition","SN","SN187.bmp","forget","","64","3","prime1","left","","","",""
"html-keyboard-response","164","791799","0.0-4.0-1.0-3.15","e6j9hvgx6eorayl","prime","5f072de78ef9940c5dbabf80","5f60e3c0a3b16e07647b2ff9","5f63802d2eb26305fea0e9ae","false","null","<div style=""align-items: center; display: flex; color: darkorange; font-size: 90px""><b>ø</b></div>","null","","","","forget_cue","","","","","","","","","","","","","","","",""
"html-keyboard-response","165","792501","0.0-4.0-1.0-0.16","e6j9hvgx6eorayl","prime","5f072de78ef9940c5dbabf80","5f60e3c0a3b16e07647b2ff9","5f63802d2eb26305fea0e9ae","false","null","<span style=""color: black; font-size: 48px"">N + M</span>","null","","","","resp_prompt","","","","","","","","","","","","","","","",""
"categorize-image","166","793238","0.0-4.0-1.0-1.16","e6j9hvgx6eorayl","prime","5f072de78ef9940c5dbabf80","5f60e3c0a3b16e07647b2ff9","5f63802d2eb26305fea0e9ae","true","729.7149999067187","./Stimuli/SelectedImages/LN/LN12.bmp","83","","","","test","true","N + M","83","repetition","LN","LN12.bmp","remember","","65","3","prime1","left","","","",""
"html-keyboard-response","167","795241","0.0-4.0-1.0-3.16","e6j9hvgx6eorayl","prime","5f072de78ef9940c5dbabf80","5f60e3c0a3b16e07647b2ff9","5f63802d2eb26305fea0e9ae","false","null","<div style=""align-items: center; display: flex; color: dodgerblue; font-size: 90px""><b>o</b></div>","null","","","","forget_cue","","","","","","","","","","","","","","","",""
"html-keyboard-response","168","795944","0.0-4.0-1.0-0.17","e6j9hvgx6eorayl","prime","5f072de78ef9940c5dbabf80","5f60e3c0a3b16e07647b2ff9","5f63802d2eb26305fea0e9ae","false","null","<span style=""color: black; font-size: 48px"">N + M</span>","null","","","","resp_prompt","","","","","","","","","","","","","","","",""
"categorize-image","169","796636","0.0-4.0-1.0-1.17","e6j9hvgx6eorayl","prime","5f072de78ef9940c5dbabf80","5f60e3c0a3b16e07647b2ff9","5f63802d2eb26305fea0e9ae","true","683.7899999227375","./Stimuli/SelectedImages/LN/LN28.bmp","83","","","","test","true","N + M","83","switch","LN","LN28.bmp","forget","","66","3","prime1","left","","","",""
"html-keyboard-response","170","798640","0.0-4.0-1.0-3.17","e6j9hvgx6eorayl","prime","5f072de78ef9940c5dbabf80","5f60e3c0a3b16e07647b2ff9","5f63802d2eb26305fea0e9ae","false","null","<div style=""align-items: center; display: flex; color: darkorange; font-size: 90px""><b>ø</b></div>","null","","","","forget_cue","","","","","","","","","","","","","","","",""
"html-keyboard-response","171","799343","0.0-4.0-1.0-0.18","e6j9hvgx6eorayl","prime","5f072de78ef9940c5dbabf80","5f60e3c0a3b16e07647b2ff9","5f63802d2eb26305fea0e9ae","false","null","<span style=""color: black; font-size: 48px"">M + N</span>","null","","","","resp_prompt","","","","","","","","","","","","","","","",""
"categorize-image","172","799817","0.0-4.0-1.0-1.18","e6j9hvgx6eorayl","prime","5f072de78ef9940c5dbabf80","5f60e3c0a3b16e07647b2ff9","5f63802d2eb26305fea0e9ae","true","466.9999999459833","./Stimuli/SelectedImages/LN/LN177.bmp","76","","","","test","true","M + N","76","repetition","LN","LN177.bmp","remember","","67","3","prime1","right","","","",""
"html-keyboard-response","173","801821","0.0-4.0-1.0-3.18","e6j9hvgx6eorayl","prime","5f072de78ef9940c5dbabf80","5f60e3c0a3b16e07647b2ff9","5f63802d2eb26305fea0e9ae","false","null","<div style=""align-items: center; display: flex; color: dodgerblue; font-size: 90px""><b>o</b></div>","null","","","","forget_cue","","","","","","","","","","","","","","","",""
"html-keyboard-response","174","802524","0.0-4.0-1.0-0.19","e6j9hvgx6eorayl","prime","5f072de78ef9940c5dbabf80","5f60e3c0a3b16e07647b2ff9","5f63802d2eb26305fea0e9ae","false","null","<span style=""color: black; font-size: 48px"">N + M</span>","null","","","","resp_prompt","","","","","","","","","","","","","","","",""
"categorize-image","175","803222","0.0-4.0-1.0-1.19","e6j9hvgx6eorayl","prime","5f072de78ef9940c5dbabf80","5f60e3c0a3b16e07647b2ff9","5f63802d2eb26305fea0e9ae","true","689.6150000393391","./Stimuli/SelectedImages/SM/SM128.bmp","76","","","","test","true","N + M","76","switch","SM","SM128.bmp","remember","","68","3","prime1","right","","","",""
"html-keyboard-response","176","805226","0.0-4.0-1.0-3.19","e6j9hvgx6eorayl","prime","5f072de78ef9940c5dbabf80","5f60e3c0a3b16e07647b2ff9","5f63802d2eb26305fea0e9ae","false","null","<div style=""align-items: center; display: flex; color: dodgerblue; font-size: 90px""><b>o</b></div>","null","","","","forget_cue","","","","","","","","","","","","","","","",""
"html-keyboard-response","177","805929","0.0-4.0-1.0-0.20","e6j9hvgx6eorayl","prime","5f072de78ef9940c5dbabf80","5f60e3c0a3b16e07647b2ff9","5f63802d2eb26305fea0e9ae","false","null","<span style=""color: black; font-size: 48px"">N + M</span>","null","","","","resp_prompt","","","","","","","","","","","","","","","",""
"categorize-image","178","806544","0.0-4.0-1.0-1.20","e6j9hvgx6eorayl","prime","5f072de78ef9940c5dbabf80","5f60e3c0a3b16e07647b2ff9","5f63802d2eb26305fea0e9ae","true","606.2600000295788","./Stimuli/SelectedImages/SN/SN52.bmp","83","","","","test","true","N + M","83","switch","SN","SN52.bmp","remember","","69","3","prime1","left","","","",""
"html-keyboard-response","179","808547","0.0-4.0-1.0-3.20","e6j9hvgx6eorayl","prime","5f072de78ef9940c5dbabf80","5f60e3c0a3b16e07647b2ff9","5f63802d2eb26305fea0e9ae","false","null","<div style=""align-items: center; display: flex; color: dodgerblue; font-size: 90px""><b>o</b></div>","null","","","","forget_cue","","","","","","","","","","","","","","","",""
"html-keyboard-response","180","809250","0.0-4.0-1.0-0.21","e6j9hvgx6eorayl","prime","5f072de78ef9940c5dbabf80","5f60e3c0a3b16e07647b2ff9","5f63802d2eb26305fea0e9ae","false","null","<span style=""color: black; font-size: 48px"">M + N</span>","null","","","","resp_prompt","","","","","","","","","","","","","","","",""
"categorize-image","181","809896","0.0-4.0-1.0-1.21","e6j9hvgx6eorayl","prime","5f072de78ef9940c5dbabf80","5f60e3c0a3b16e07647b2ff9","5f63802d2eb26305fea0e9ae","true","637.9400000441819","./Stimuli/SelectedImages/SM/SM17.bmp","83","","","","test","true","M + N","83","switch","SM","SM17.bmp","remember","","70","3","prime1","left","","","",""
"html-keyboard-response","182","811900","0.0-4.0-1.0-3.21","e6j9hvgx6eorayl","prime","5f072de78ef9940c5dbabf80","5f60e3c0a3b16e07647b2ff9","5f63802d2eb26305fea0e9ae","false","null","<div style=""align-items: center; display: flex; color: dodgerblue; font-size: 90px""><b>o</b></div>","null","","","","forget_cue","","","","","","","","","","","","","","","",""
"html-keyboard-response","183","812604","0.0-4.0-1.0-0.22","e6j9hvgx6eorayl","prime","5f072de78ef9940c5dbabf80","5f60e3c0a3b16e07647b2ff9","5f63802d2eb26305fea0e9ae","false","null","<span style=""color: black; font-size: 48px"">N + M</span>","null","","","","resp_prompt","","","","","","","","","","","","","","","",""
"categorize-image","184","813677","0.0-4.0-1.0-1.22","e6j9hvgx6eorayl","prime","5f072de78ef9940c5dbabf80","5f60e3c0a3b16e07647b2ff9","5f63802d2eb26305fea0e9ae","true","1065.330000128597","./Stimuli/SelectedImages/SN/SN179.bmp","83","","","","test","true","N + M","83","switch","SN","SN179.bmp","remember","","71","3","prime1","left","","","",""
"html-keyboard-response","185","815679","0.0-4.0-1.0-3.22","e6j9hvgx6eorayl","prime","5f072de78ef9940c5dbabf80","5f60e3c0a3b16e07647b2ff9","5f63802d2eb26305fea0e9ae","false","null","<div style=""align-items: center; display: flex; color: dodgerblue; font-size: 90px""><b>o</b></div>","null","","","","forget_cue","","","","","","","","","","","","","","","",""
"html-keyboard-response","186","816382","0.0-4.0-1.0-0.23","e6j9hvgx6eorayl","prime","5f072de78ef9940c5dbabf80","5f60e3c0a3b16e07647b2ff9","5f63802d2eb26305fea0e9ae","false","null","<span style=""color: black; font-size: 48px"">M + N</span>","null","","","","resp_prompt","","","","","","","","","","","","","","","",""
"categorize-image","187","817132","0.0-4.0-1.0-1.23","e6j9hvgx6eorayl","prime","5f072de78ef9940c5dbabf80","5f60e3c0a3b16e07647b2ff9","5f63802d2eb26305fea0e9ae","true","741.8499998748302","./Stimuli/SelectedImages/LM/LM209.bmp","83","","","","test","true","M + N","83","repetition","LM","LM209.bmp","forget","","72","3","prime1","left","","","",""
"html-keyboard-response","188","819134","0.0-4.0-1.0-3.23","e6j9hvgx6eorayl","prime","5f072de78ef9940c5dbabf80","5f60e3c0a3b16e07647b2ff9","5f63802d2eb26305fea0e9ae","false","null","<div style=""align-items: center; display: flex; color: darkorange; font-size: 90px""><b>ø</b></div>","null","","","","forget_cue","","","","","","","","","","","","","","","",""
"html-keyboard-response","189","819839","0.0-4.0-1.0-0.24","e6j9hvgx6eorayl","prime","5f072de78ef9940c5dbabf80","5f60e3c0a3b16e07647b2ff9","5f63802d2eb26305fea0e9ae","false","null","<span style=""color: black; font-size: 48px"">N + M</span>","null","","","","resp_prompt","","","","","","","","","","","","","","","",""
"categorize-image","190","820423","0.0-4.0-1.0-1.24","e6j9hvgx6eorayl","prime","5f072de78ef9940c5dbabf80","5f60e3c0a3b16e07647b2ff9","5f63802d2eb26305fea0e9ae","true","575.1900000032037","./Stimuli/SelectedImages/SN/SN155.bmp","83","","","","test","true","N + M","83","repetition","SN","SN155.bmp","remember","","73","3","prime1","left","","","",""
"html-keyboard-response","191","822426","0.0-4.0-1.0-3.24","e6j9hvgx6eorayl","prime","5f072de78ef9940c5dbabf80","5f60e3c0a3b16e07647b2ff9","5f63802d2eb26305fea0e9ae","false","null","<div style=""align-items: center; display: flex; color: dodgerblue; font-size: 90px""><b>o</b></div>","null","","","","forget_cue","","","","","","","","","","","","","","","",""
"html-keyboard-response","192","823129","0.0-4.0-1.0-0.25","e6j9hvgx6eorayl","prime","5f072de78ef9940c5dbabf80","5f60e3c0a3b16e07647b2ff9","5f63802d2eb26305fea0e9ae","false","null","<span style=""color: black; font-size: 48px"">N + M</span>","null","","","","resp_prompt","","","","","","","","","","","","","","","",""
"categorize-image","193","824158","0.0-4.0-1.0-1.25","e6j9hvgx6eorayl","prime","5f072de78ef9940c5dbabf80","5f60e3c0a3b16e07647b2ff9","5f63802d2eb26305fea0e9ae","true","1019.6999998297542","./Stimuli/SelectedImages/LM/LM59.bmp","76","","","","test","true","N + M","76","switch","LM","LM59.bmp","remember","","74","3","prime1","right","","","",""
"html-keyboard-response","194","826162","0.0-4.0-1.0-3.25","e6j9hvgx6eorayl","prime","5f072de78ef9940c5dbabf80","5f60e3c0a3b16e07647b2ff9","5f63802d2eb26305fea0e9ae","false","null","<div style=""align-items: center; display: flex; color: dodgerblue; font-size: 90px""><b>o</b></div>","null","","","","forget_cue","","","","","","","","","","","","","","","",""
"html-keyboard-response","195","826869","0.0-4.0-1.0-0.26","e6j9hvgx6eorayl","prime","5f072de78ef9940c5dbabf80","5f60e3c0a3b16e07647b2ff9","5f63802d2eb26305fea0e9ae","false","null","<span style=""color: black; font-size: 48px"">N + M</span>","null","","","","resp_prompt","","","","","","","","","","","","","","","",""
"categorize-image","196","827681","0.0-4.0-1.0-1.26","e6j9hvgx6eorayl","prime","5f072de78ef9940c5dbabf80","5f60e3c0a3b16e07647b2ff9","5f63802d2eb26305fea0e9ae","true","800.539999967441","./Stimuli/SelectedImages/SM/SM148.bmp","76","","","","test","true","N + M","76","repetition","SM","SM148.bmp","remember","","75","3","prime1","right","","","",""
"html-keyboard-response","197","829685","0.0-4.0-1.0-3.26","e6j9hvgx6eorayl","prime","5f072de78ef9940c5dbabf80","5f60e3c0a3b16e07647b2ff9","5f63802d2eb26305fea0e9ae","false","null","<div style=""align-items: center; display: flex; color: dodgerblue; font-size: 90px""><b>o</b></div>","null","","","","forget_cue","","","","","","","","","","","","","","","",""
"html-keyboard-response","198","830398","0.0-4.0-1.0-0.27","e6j9hvgx6eorayl","prime","5f072de78ef9940c5dbabf80","5f60e3c0a3b16e07647b2ff9","5f63802d2eb26305fea0e9ae","false","null","<span style=""color: black; font-size: 48px"">N + M</span>","null","","","","resp_prompt","","","","","","","","","","","","","","","",""
"categorize-image","199","830979","0.0-4.0-1.0-1.27","e6j9hvgx6eorayl","prime","5f072de78ef9940c5dbabf80","5f60e3c0a3b16e07647b2ff9","5f63802d2eb26305fea0e9ae","true","572.3750002216548","./Stimuli/SelectedImages/LN/LN42.bmp","83","","","","test","true","N + M","83","switch","LN","LN42.bmp","forget","","76","3","prime1","left","","","",""
"html-keyboard-response","200","832984","0.0-4.0-1.0-3.27","e6j9hvgx6eorayl","prime","5f072de78ef9940c5dbabf80","5f60e3c0a3b16e07647b2ff9","5f63802d2eb26305fea0e9ae","false","null","<div style=""align-items: center; display: flex; color: darkorange; font-size: 90px""><b>ø</b></div>","null","","","","forget_cue","","","","","","","","","","","","","","","",""
"html-keyboard-response","201","833688","0.0-4.0-1.0-0.28","e6j9hvgx6eorayl","prime","5f072de78ef9940c5dbabf80","5f60e3c0a3b16e07647b2ff9","5f63802d2eb26305fea0e9ae","false","null","<span style=""color: black; font-size: 48px"">N + M</span>","null","","","","resp_prompt","","","","","","","","","","","","","","","",""
"categorize-image","202","834333","0.0-4.0-1.0-1.28","e6j9hvgx6eorayl","prime","5f072de78ef9940c5dbabf80","5f60e3c0a3b16e07647b2ff9","5f63802d2eb26305fea0e9ae","true","635.9300001058728","./Stimuli/SelectedImages/LM/LM216.bmp","76","","","","test","true","N + M","76","repetition","LM","LM216.bmp","forget","","77","3","prime1","right","","","",""
"html-keyboard-response","203","836336","0.0-4.0-1.0-3.28","e6j9hvgx6eorayl","prime","5f072de78ef9940c5dbabf80","5f60e3c0a3b16e07647b2ff9","5f63802d2eb26305fea0e9ae","false","null","<div style=""align-items: center; display: flex; color: darkorange; font-size: 90px""><b>ø</b></div>","null","","","","forget_cue","","","","","","","","","","","","","","","",""
"html-keyboard-response","204","837039","0.0-4.0-1.0-0.29","e6j9hvgx6eorayl","prime","5f072de78ef9940c5dbabf80","5f60e3c0a3b16e07647b2ff9","5f63802d2eb26305fea0e9ae","false","null","<span style=""color: black; font-size: 48px"">N + M</span>","null","","","","resp_prompt","","","","","","","","","","","","","","","",""
"categorize-image","205","837640","0.0-4.0-1.0-1.29","e6j9hvgx6eorayl","prime","5f072de78ef9940c5dbabf80","5f60e3c0a3b16e07647b2ff9","5f63802d2eb26305fea0e9ae","true","591.9899998698384","./Stimuli/SelectedImages/LN/LN166.bmp","83","","","","test","true","N + M","83","switch","LN","LN166.bmp","remember","","78","3","prime1","left","","","",""
"html-keyboard-response","206","839643","0.0-4.0-1.0-3.29","e6j9hvgx6eorayl","prime","5f072de78ef9940c5dbabf80","5f60e3c0a3b16e07647b2ff9","5f63802d2eb26305fea0e9ae","false","null","<div style=""align-items: center; display: flex; color: dodgerblue; font-size: 90px""><b>o</b></div>","null","","","","forget_cue","","","","","","","","","","","","","","","",""
"html-keyboard-response","207","840346","0.0-4.0-1.0-0.30","e6j9hvgx6eorayl","prime","5f072de78ef9940c5dbabf80","5f60e3c0a3b16e07647b2ff9","5f63802d2eb26305fea0e9ae","false","null","<span style=""color: black; font-size: 48px"">M + N</span>","null","","","","resp_prompt","","","","","","","","","","","","","","","",""
"categorize-image","208","841031","0.0-4.0-1.0-1.30","e6j9hvgx6eorayl","prime","5f072de78ef9940c5dbabf80","5f60e3c0a3b16e07647b2ff9","5f63802d2eb26305fea0e9ae","true","677.0250000990927","./Stimuli/SelectedImages/LN/LN92.bmp","76","","","","test","true","M + N","76","switch","LN","LN92.bmp","remember","","79","3","prime1","right","","","",""
"html-keyboard-response","209","843034","0.0-4.0-1.0-3.30","e6j9hvgx6eorayl","prime","5f072de78ef9940c5dbabf80","5f60e3c0a3b16e07647b2ff9","5f63802d2eb26305fea0e9ae","false","null","<div style=""align-items: center; display: flex; color: dodgerblue; font-size: 90px""><b>o</b></div>","null","","","","forget_cue","","","","","","","","","","","","","","","",""
"html-keyboard-response","210","843737","0.0-4.0-1.0-0.31","e6j9hvgx6eorayl","prime","5f072de78ef9940c5dbabf80","5f60e3c0a3b16e07647b2ff9","5f63802d2eb26305fea0e9ae","false","null","<span style=""color: black; font-size: 48px"">N + M</span>","null","","","","resp_prompt","","","","","","","","","","","","","","","",""
"categorize-image","211","844326","0.0-4.0-1.0-1.31","e6j9hvgx6eorayl","prime","5f072de78ef9940c5dbabf80","5f60e3c0a3b16e07647b2ff9","5f63802d2eb26305fea0e9ae","true","582.5249999761581","./Stimuli/SelectedImages/SN/SN93.bmp","83","","","","test","true","N + M","83","repetition","SN","SN93.bmp","forget","","80","3","prime1","left","","","",""
"html-keyboard-response","212","846329","0.0-4.0-1.0-3.31","e6j9hvgx6eorayl","prime","5f072de78ef9940c5dbabf80","5f60e3c0a3b16e07647b2ff9","5f63802d2eb26305fea0e9ae","false","null","<div style=""align-items: center; display: flex; color: darkorange; font-size: 90px""><b>ø</b></div>","null","","","","forget_cue","","","","","","","","","","","","","","","",""
"html-keyboard-response","213","847034","0.0-4.0-1.0-0.32","e6j9hvgx6eorayl","prime","5f072de78ef9940c5dbabf80","5f60e3c0a3b16e07647b2ff9","5f63802d2eb26305fea0e9ae","false","null","<span style=""color: black; font-size: 48px"">N + M</span>","null","","","","resp_prompt","","","","","","","","","","","","","","","",""
"categorize-image","214","847582","0.0-4.0-1.0-1.32","e6j9hvgx6eorayl","prime","5f072de78ef9940c5dbabf80","5f60e3c0a3b16e07647b2ff9","5f63802d2eb26305fea0e9ae","true","540.1149999815971","./Stimuli/SelectedImages/LN/LN149.bmp","83","","","","test","true","N + M","83","repetition","LN","LN149.bmp","forget","","81","3","prime1","left","","","",""
"html-keyboard-response","215","849587","0.0-4.0-1.0-3.32","e6j9hvgx6eorayl","prime","5f072de78ef9940c5dbabf80","5f60e3c0a3b16e07647b2ff9","5f63802d2eb26305fea0e9ae","false","null","<div style=""align-items: center; display: flex; color: darkorange; font-size: 90px""><b>ø</b></div>","null","","","","forget_cue","","","","","","","","","","","","","","","",""
"html-keyboard-response","216","850290","0.0-4.0-1.0-0.33","e6j9hvgx6eorayl","prime","5f072de78ef9940c5dbabf80","5f60e3c0a3b16e07647b2ff9","5f63802d2eb26305fea0e9ae","false","null","<span style=""color: black; font-size: 48px"">N + M</span>","null","","","","resp_prompt","","","","","","","","","","","","","","","",""
"categorize-image","217","851047","0.0-4.0-1.0-1.33","e6j9hvgx6eorayl","prime","5f072de78ef9940c5dbabf80","5f60e3c0a3b16e07647b2ff9","5f63802d2eb26305fea0e9ae","true","750.6800000555813","./Stimuli/SelectedImages/LM/LM58.bmp","76","","","","test","true","N + M","76","switch","LM","LM58.bmp","forget","","82","3","prime1","right","","","",""
"html-keyboard-response","218","853051","0.0-4.0-1.0-3.33","e6j9hvgx6eorayl","prime","5f072de78ef9940c5dbabf80","5f60e3c0a3b16e07647b2ff9","5f63802d2eb26305fea0e9ae","false","null","<div style=""align-items: center; display: flex; color: darkorange; font-size: 90px""><b>ø</b></div>","null","","","","forget_cue","","","","","","","","","","","","","","","",""
"html-keyboard-response","219","853754","0.0-4.0-1.0-0.34","e6j9hvgx6eorayl","prime","5f072de78ef9940c5dbabf80","5f60e3c0a3b16e07647b2ff9","5f63802d2eb26305fea0e9ae","false","null","<span style=""color: black; font-size: 48px"">M + N</span>","null","","","","resp_prompt","","","","","","","","","","","","","","","",""
"categorize-image","220","854327","0.0-4.0-1.0-1.34","e6j9hvgx6eorayl","prime","5f072de78ef9940c5dbabf80","5f60e3c0a3b16e07647b2ff9","5f63802d2eb26305fea0e9ae","true","565.5499999411404","./Stimuli/SelectedImages/SN/SN60.bmp","76","","","","test","true","M + N","76","repetition","SN","SN60.bmp","forget","","83","3","prime1","right","","","",""
"html-keyboard-response","221","856329","0.0-4.0-1.0-3.34","e6j9hvgx6eorayl","prime","5f072de78ef9940c5dbabf80","5f60e3c0a3b16e07647b2ff9","5f63802d2eb26305fea0e9ae","false","null","<div style=""align-items: center; display: flex; color: darkorange; font-size: 90px""><b>ø</b></div>","null","","","","forget_cue","","","","","","","","","","","","","","","",""
"html-keyboard-response","222","857033","0.0-4.0-1.0-0.35","e6j9hvgx6eorayl","prime","5f072de78ef9940c5dbabf80","5f60e3c0a3b16e07647b2ff9","5f63802d2eb26305fea0e9ae","false","null","<span style=""color: black; font-size: 48px"">M + N</span>","null","","","","resp_prompt","","","","","","","","","","","","","","","",""
"categorize-image","223","857807","0.0-4.0-1.0-1.35","e6j9hvgx6eorayl","prime","5f072de78ef9940c5dbabf80","5f60e3c0a3b16e07647b2ff9","5f63802d2eb26305fea0e9ae","true","767.5150001887232","./Stimuli/SelectedImages/LN/LN9.bmp","76","","","","test","true","M + N","76","switch","LN","LN9.bmp","forget","","84","3","prime1","right","","","",""
"html-keyboard-response","224","859812","0.0-4.0-1.0-3.35","e6j9hvgx6eorayl","prime","5f072de78ef9940c5dbabf80","5f60e3c0a3b16e07647b2ff9","5f63802d2eb26305fea0e9ae","false","null","<div style=""align-items: center; display: flex; color: darkorange; font-size: 90px""><b>ø</b></div>","null","","","","forget_cue","","","","","","","","","","","","","","","",""
"html-keyboard-response","225","860515","0.0-4.0-1.0-0.36","e6j9hvgx6eorayl","prime","5f072de78ef9940c5dbabf80","5f60e3c0a3b16e07647b2ff9","5f63802d2eb26305fea0e9ae","false","null","<span style=""color: black; font-size: 48px"">N + M</span>","null","","","","resp_prompt","","","","","","","","","","","","","","","",""
"categorize-image","226","861356","0.0-4.0-1.0-1.36","e6j9hvgx6eorayl","prime","5f072de78ef9940c5dbabf80","5f60e3c0a3b16e07647b2ff9","5f63802d2eb26305fea0e9ae","true","833.9500001166016","./Stimuli/SelectedImages/SN/SN64.bmp","83","","","","test","true","N + M","83","switch","SN","SN64.bmp","forget","","85","3","prime1","left","","","",""
"html-keyboard-response","227","863359","0.0-4.0-1.0-3.36","e6j9hvgx6eorayl","prime","5f072de78ef9940c5dbabf80","5f60e3c0a3b16e07647b2ff9","5f63802d2eb26305fea0e9ae","false","null","<div style=""align-items: center; display: flex; color: darkorange; font-size: 90px""><b>ø</b></div>","null","","","","forget_cue","","","","","","","","","","","","","","","",""
"html-keyboard-response","228","864062","0.0-4.0-1.0-0.37","e6j9hvgx6eorayl","prime","5f072de78ef9940c5dbabf80","5f60e3c0a3b16e07647b2ff9","5f63802d2eb26305fea0e9ae","false","null","<span style=""color: black; font-size: 48px"">M + N</span>","null","","","","resp_prompt","","","","","","","","","","","","","","","",""
"categorize-image","229","864795","0.0-4.0-1.0-1.37","e6j9hvgx6eorayl","prime","5f072de78ef9940c5dbabf80","5f60e3c0a3b16e07647b2ff9","5f63802d2eb26305fea0e9ae","true","724.5050000492483","./Stimuli/SelectedImages/LM/LM157.bmp","83","","","","test","true","M + N","83","repetition","LM","LM157.bmp","remember","","86","3","prime1","left","","","",""
"html-keyboard-response","230","866800","0.0-4.0-1.0-3.37","e6j9hvgx6eorayl","prime","5f072de78ef9940c5dbabf80","5f60e3c0a3b16e07647b2ff9","5f63802d2eb26305fea0e9ae","false","null","<div style=""align-items: center; display: flex; color: dodgerblue; font-size: 90px""><b>o</b></div>","null","","","","forget_cue","","","","","","","","","","","","","","","",""
"html-keyboard-response","231","867504","0.0-4.0-1.0-0.38","e6j9hvgx6eorayl","prime","5f072de78ef9940c5dbabf80","5f60e3c0a3b16e07647b2ff9","5f63802d2eb26305fea0e9ae","false","null","<span style=""color: black; font-size: 48px"">M + N</span>","null","","","","resp_prompt","","","","","","","","","","","","","","","",""
"categorize-image","232","868175","0.0-4.0-1.0-1.38","e6j9hvgx6eorayl","prime","5f072de78ef9940c5dbabf80","5f60e3c0a3b16e07647b2ff9","5f63802d2eb26305fea0e9ae","true","664.0500000212342","./Stimuli/SelectedImages/SN/SN18.bmp","76","","","","test","true","M + N","76","repetition","SN","SN18.bmp","forget","","87","3","prime1","right","","","",""
"html-keyboard-response","233","870178","0.0-4.0-1.0-3.38","e6j9hvgx6eorayl","prime","5f072de78ef9940c5dbabf80","5f60e3c0a3b16e07647b2ff9","5f63802d2eb26305fea0e9ae","false","null","<div style=""align-items: center; display: flex; color: darkorange; font-size: 90px""><b>ø</b></div>","null","","","","forget_cue","","","","","","","","","","","","","","","",""
"html-keyboard-response","234","870882","0.0-4.0-1.0-0.39","e6j9hvgx6eorayl","prime","5f072de78ef9940c5dbabf80","5f60e3c0a3b16e07647b2ff9","5f63802d2eb26305fea0e9ae","false","null","<span style=""color: black; font-size: 48px"">N + M</span>","null","","","","resp_prompt","","","","","","","","","","","","","","","",""
"categorize-image","235","871840","0.0-4.0-1.0-1.39","e6j9hvgx6eorayl","prime","5f072de78ef9940c5dbabf80","5f60e3c0a3b16e07647b2ff9","5f63802d2eb26305fea0e9ae","true","949.6700000017881","./Stimuli/SelectedImages/SM/SM200.bmp","76","","","","test","true","N + M","76","repetition","SM","SM200.bmp","forget","","88","3","prime1","right","","","",""
"html-keyboard-response","236","873844","0.0-4.0-1.0-3.39","e6j9hvgx6eorayl","prime","5f072de78ef9940c5dbabf80","5f60e3c0a3b16e07647b2ff9","5f63802d2eb26305fea0e9ae","false","null","<div style=""align-items: center; display: flex; color: darkorange; font-size: 90px""><b>ø</b></div>","null","","","","forget_cue","","","","","","","","","","","","","","","",""
"html-keyboard-response","237","874547","0.0-4.0-1.0-0.40","e6j9hvgx6eorayl","prime","5f072de78ef9940c5dbabf80","5f60e3c0a3b16e07647b2ff9","5f63802d2eb26305fea0e9ae","false","null","<span style=""color: black; font-size: 48px"">M + N</span>","null","","","","resp_prompt","","","","","","","","","","","","","","","",""
"categorize-image","238","875217","0.0-4.0-1.0-1.40","e6j9hvgx6eorayl","prime","5f072de78ef9940c5dbabf80","5f60e3c0a3b16e07647b2ff9","5f63802d2eb26305fea0e9ae","true","662.4150001443923","./Stimuli/SelectedImages/LM/LM51.bmp","83","","","","test","true","M + N","83","switch","LM","LM51.bmp","forget","","89","3","prime1","left","","","",""
"html-keyboard-response","239","877221","0.0-4.0-1.0-3.40","e6j9hvgx6eorayl","prime","5f072de78ef9940c5dbabf80","5f60e3c0a3b16e07647b2ff9","5f63802d2eb26305fea0e9ae","false","null","<div style=""align-items: center; display: flex; color: darkorange; font-size: 90px""><b>ø</b></div>","null","","","","forget_cue","","","","","","","","","","","","","","","",""
"html-keyboard-response","240","877924","0.0-4.0-1.0-0.41","e6j9hvgx6eorayl","prime","5f072de78ef9940c5dbabf80","5f60e3c0a3b16e07647b2ff9","5f63802d2eb26305fea0e9ae","false","null","<span style=""color: black; font-size: 48px"">M + N</span>","null","","","","resp_prompt","","","","","","","","","","","","","","","",""
"categorize-image","241","878521","0.0-4.0-1.0-1.41","e6j9hvgx6eorayl","prime","5f072de78ef9940c5dbabf80","5f60e3c0a3b16e07647b2ff9","5f63802d2eb26305fea0e9ae","true","589.8299999535084","./Stimuli/SelectedImages/SM/SM207.bmp","83","","","","test","true","M + N","83","repetition","SM","SM207.bmp","remember","","90","3","prime1","left","","","",""
"html-keyboard-response","242","880524","0.0-4.0-1.0-3.41","e6j9hvgx6eorayl","prime","5f072de78ef9940c5dbabf80","5f60e3c0a3b16e07647b2ff9","5f63802d2eb26305fea0e9ae","false","null","<div style=""align-items: center; display: flex; color: dodgerblue; font-size: 90px""><b>o</b></div>","null","","","","forget_cue","","","","","","","","","","","","","","","",""
"html-keyboard-response","243","881227","0.0-4.0-1.0-0.42","e6j9hvgx6eorayl","prime","5f072de78ef9940c5dbabf80","5f60e3c0a3b16e07647b2ff9","5f63802d2eb26305fea0e9ae","false","null","<span style=""color: black; font-size: 48px"">M + N</span>","null","","","","resp_prompt","","","","","","","","","","","","","","","",""
"categorize-image","244","881814","0.0-4.0-1.0-1.42","e6j9hvgx6eorayl","prime","5f072de78ef9940c5dbabf80","5f60e3c0a3b16e07647b2ff9","5f63802d2eb26305fea0e9ae","true","578.4200001507998","./Stimuli/SelectedImages/SN/SN27.bmp","76","","","","test","true","M + N","76","switch","SN","SN27.bmp","remember","","91","3","prime1","right","","","",""
"html-keyboard-response","245","883818","0.0-4.0-1.0-3.42","e6j9hvgx6eorayl","prime","5f072de78ef9940c5dbabf80","5f60e3c0a3b16e07647b2ff9","5f63802d2eb26305fea0e9ae","false","null","<div style=""align-items: center; display: flex; color: dodgerblue; font-size: 90px""><b>o</b></div>","null","","","","forget_cue","","","","","","","","","","","","","","","",""
"html-keyboard-response","246","884521","0.0-4.0-1.0-0.43","e6j9hvgx6eorayl","prime","5f072de78ef9940c5dbabf80","5f60e3c0a3b16e07647b2ff9","5f63802d2eb26305fea0e9ae","false","null","<span style=""color: black; font-size: 48px"">M + N</span>","null","","","","resp_prompt","","","","","","","","","","","","","","","",""
"categorize-image","247","885257","0.0-4.0-1.0-1.43","e6j9hvgx6eorayl","prime","5f072de78ef9940c5dbabf80","5f60e3c0a3b16e07647b2ff9","5f63802d2eb26305fea0e9ae","true","727.0300001837313","./Stimuli/SelectedImages/SN/SN111.bmp","76","","","","test","true","M + N","76","switch","SN","SN111.bmp","remember","","92","3","prime1","right","","","",""
"html-keyboard-response","248","887260","0.0-4.0-1.0-3.43","e6j9hvgx6eorayl","prime","5f072de78ef9940c5dbabf80","5f60e3c0a3b16e07647b2ff9","5f63802d2eb26305fea0e9ae","false","null","<div style=""align-items: center; display: flex; color: dodgerblue; font-size: 90px""><b>o</b></div>","null","","","","forget_cue","","","","","","","","","","","","","","","",""
"html-keyboard-response","249","887965","0.0-4.0-1.0-0.44","e6j9hvgx6eorayl","prime","5f072de78ef9940c5dbabf80","5f60e3c0a3b16e07647b2ff9","5f63802d2eb26305fea0e9ae","false","null","<span style=""color: black; font-size: 48px"">M + N</span>","null","","","","resp_prompt","","","","","","","","","","","","","","","",""
"categorize-image","250","888827","0.0-4.0-1.0-1.44","e6j9hvgx6eorayl","prime","5f072de78ef9940c5dbabf80","5f60e3c0a3b16e07647b2ff9","5f63802d2eb26305fea0e9ae","true","854.5550000853837","./Stimuli/SelectedImages/LN/LN13.bmp","76","","","","test","true","M + N","76","repetition","LN","LN13.bmp","remember","","93","3","prime1","right","","","",""
"html-keyboard-response","251","890830","0.0-4.0-1.0-3.44","e6j9hvgx6eorayl","prime","5f072de78ef9940c5dbabf80","5f60e3c0a3b16e07647b2ff9","5f63802d2eb26305fea0e9ae","false","null","<div style=""align-items: center; display: flex; color: dodgerblue; font-size: 90px""><b>o</b></div>","null","","","","forget_cue","","","","","","","","","","","","","","","",""
"html-keyboard-response","252","891533","0.0-4.0-1.0-0.45","e6j9hvgx6eorayl","prime","5f072de78ef9940c5dbabf80","5f60e3c0a3b16e07647b2ff9","5f63802d2eb26305fea0e9ae","false","null","<span style=""color: black; font-size: 48px"">M + N</span>","null","","","","resp_prompt","","","","","","","","","","","","","","","",""
