"trial_type","trial_index","time_elapsed","internal_node_id","subject","exp_part","prolific_PID","study_ID","session_ID","use","rt","stimulus","key_press","button_pressed","responses","question_order","trial_part","correct","resp_map","correct_resp","probe_condition","category","image","forget_condition","list","trial_num","block_num","block","response","test_part","n_span","sequence","num_spaces"
"pavlovia","0","31","0.0-0.0","g5gefw6uklt3v49","","5c791b51eaf40f0001c8f338","5f60e3c0a3b16e07647b2ff9","5f60e9cfbfaddb000828b747","false","","","","","","","","","","","","","","","","","","","","","","",""
"html-keyboard-response","1","17363","0.0-1.0-0.0-0.0","g5gefw6uklt3v49","welcome","5c791b51eaf40f0001c8f338","5f60e3c0a3b16e07647b2ff9","5f60e9cfbfaddb000828b747","false","17338.850000174716","<div align=left>Dear participant, <br> thank you for participating in an online study of the Cognition, Action, and Sustainability Unit of the University of Freiburg! <br> <br>The aim of this study is to examine our ability to remember previously learned information. <br>Our goal is to find out, whether our memory improves, when we only remember information that is relevant to us. <br>The experiment will take about 35 minutes to complete. <br> <br>Please, note that you can only participate in this study if you are using a device with a keyboard (PC, Laptop etc.) <br>and not if you are using a mobile device such as a tablet or smartphone.<br> <br>Press 'SPACE' to proceed to the experiment. </div>","32","","","","","","","","","","","","","","","","","","","",""
"html-keyboard-response","2","31990","0.0-1.0-0.0-1.0","g5gefw6uklt3v49","welcome","5c791b51eaf40f0001c8f338","5f60e3c0a3b16e07647b2ff9","5f60e9cfbfaddb000828b747","false","14625.82499999553","<div align=left><strong> Time Course of this experiment: </strong> <br><br> <strong> 1.</strong>  First, please fill in some information regarding your demographic data. <br><br> <strong> 2.</strong>  Next, your task will be to classify everyday objects. <br>In addition, you will be asked to remember certain objects and recall them later. <br>Working on these tasks requires your undivided attention and concentration.<br>It is therefore essential that you eliminate any sources of distraction in your  <br>environment and ensure that you will not be disturbed. <br><br><strong> 3.</strong>  At the end of the experiment, you will be asked to answer a few additional questions. <br> <br><strong> Important:</strong> After finishing the experiment, only close the browser window <br> by clicking on the 'end the experiment'-button when you are asked to do so. <br>Closing the browser window prematurely will make the allocation of your participation credit impossible. <br><br> Press 'SPACE' to start the experiment. </div>","32","","","","","","","","","","","","","","","","","","","",""
"html-button-response","3","33877","0.0-1.0-0.0-2.0","g5gefw6uklt3v49","welcome","5c791b51eaf40f0001c8f338","5f60e3c0a3b16e07647b2ff9","5f60e9cfbfaddb000828b747","true","1885.4950000531971","<div align=left><strong> Informed consent </strong>  <br>The aim of our research is to better understand human behavior and mental processes. <br>In the following study your behavior (e.g. choices, reaction times) will be studied. <br> <br><strong> Voluntariness and Anonymity </strong> <br>Your participation in this study is  <strong> voluntary</strong>.<br>You may withdraw your consent to participate at any time without providing a reason for doing so and without fear of prejudice. <br><br>As no personal data will be collected, <strong>your data and your person cannot be connected after data collection</strong> – the data-set is anonymous. <br>Respectively, deletion of your data will not be possible after data collection has been completed, as we cannot retrace your data-set.<br>The results and anonymized data collected in this study will be published as a scientific publication. <br>This will happen in an <strong>anonymized format</strong>, so that no data can be traced back to a specific person. <br> <br>The anonymized data of this study will be made available to other researchers and/or in a data archive on the Internet as a means of transparency and to enable subsequent re-use. By doing so, this study follows the recommendations of the Deutsche Forschungsgemeinschaft (DFG, German Research Foundation) and Deutsche Gesellschaft für Psychologie (DGPS, German Psychological Society) regarding quality assurance in research.<br>If you have any questions now or after the experiment, please contact our team (experiments@cs.uni-freiburg.de).<br><br><br>I hereby declare, that I understand the above described conditions of participation and I agree to participate under these conditions. <br><br> </div>","","0","","","","","","","","","","","","","","","","","","",""
"html-keyboard-response","4","49955","0.0-1.0-0.0-3.0","g5gefw6uklt3v49","welcome","5c791b51eaf40f0001c8f338","5f60e3c0a3b16e07647b2ff9","5f60e9cfbfaddb000828b747","false","16075.229999842122","<div align=left><strong> General information concerning the experiment </strong>  <br> <br>Please follow the instructions:<ol> <li><strong> Do not leave this tab (your browser window) during the experiment and do not reload this tab! </strong>  <br>If you do switch tabs/windows during the experiment (to check your mail or visit another website, for example), <br>the experiment will end automatically and you will <strong>not receive credit</strong> for your participation. <br>Repeated participation or resumption of the experiment is impossible.</li> <br><li>Please close all other programs for the duration of your participation. </li> <br><li>Please mute or turn off your phone and put it out of your reach. </li> <br><li>Please also take off any disturbing accessories (such as wristwatches, bracelets, etc.). </li> <br><li>If you have music playing in the background, please turn it off now. </li> <br></ol>Thank you! <br>Press 'SPACE' to continue. </div>","32","","","","","","","","","","","","","","","","","","","",""
"survey-text","5","52789","0.0-1.0-1.0-0.0","g5gefw6uklt3v49","demographics","5c791b51eaf40f0001c8f338","5f60e3c0a3b16e07647b2ff9","5f60e9cfbfaddb000828b747","true","2830.1900001242757","","","","{""age"":""20""}","","","","","","","","","","","","","","","","","",""
"survey-multi-choice","6","78913","0.0-1.0-1.0-1.0","g5gefw6uklt3v49","demographics","5c791b51eaf40f0001c8f338","5f60e3c0a3b16e07647b2ff9","5f60e9cfbfaddb000828b747","true","26112.88500018418","","","","{""gender"":""male"",""school"":""high school"",""education"":""High school graduate, diploma or equivalent""}","[0,1,2]","","","","","","","","","","","","","","","","",""
"html-keyboard-response","7","101705","0.0-1.0-2.0","g5gefw6uklt3v49","instructions","5c791b51eaf40f0001c8f338","5f60e3c0a3b16e07647b2ff9","5f60e9cfbfaddb000828b747","false","22789.350000210106","<div align=left> The experiment is now about to start: <br> <br>In the following part, you will be presented pictures of everyday objects. <br>Your first task is to <strong>classify these objects. </strong> <br> <br> You will classify them either as mechanical or non-mechanical objects. <br> <br>Objects that include any kind of technical mechanism (for example, wheels, switches, levers, <br> electronic components) fall under the category of <strong>mechanical</strong> objects. <br>Only objects without any kind of technical mechanism should be classified as <strong>non-mechanical</strong>. <br><br>Press 'SPACE' to continue. </div>","32","","","","","","","","","","","","","","","","","","","",""
"html-keyboard-response","8","136827","0.0-2.0-0.0","g5gefw6uklt3v49","instructions","5c791b51eaf40f0001c8f338","5f60e3c0a3b16e07647b2ff9","5f60e9cfbfaddb000828b747","false","35120.80999999307","<div align=justify>You will classify the objects using the <strong>'S'</strong> and the <strong>'L'</strong> keys on your keyboard.<br>For doing so, please place your <strong>left index finger</strong> on the <strong>'S'</strong> key and place your <strong>right index finger</strong> on the <strong>'L'</strong> key. <br><br> Each trial starts with an instruction, indicating which key ('S'/'L') you need to press to classify <br>the object as mechanical (letter M) or non-mechanical (letter N).<br>The instruction <strong>M + N</strong> indicates that, in the current trial, by pressing the left key ('S') you classify the displayed object as mechanical (M) <br> and by pressing the right key ('L') you classify the object as non-mechanical (N). <br>The instruction <strong>N + M</strong> on the other hand indicates that by pressing the left key ('S') you classify the displayed object as non-mechanical (N) <br> and by pressing the right key ('L') you classify the object as mechanical (M). <br><br>Please press the key corresponding to the correct classification as fast as possible as soon as the object is displayed and try to avoid making mistakes.<br>If you do not respond within a 2 second window, a corresponding feedback will be displayed and the next trial will start.<br> The experiment is divided into multiple blocks to give you the opportunity to take a break after each block. <br>First, you can now practice this task. <br><br>Please place your <strong>LEFT INDEX FINGER</strong> on the 'S' key and your <strong>RIGHT INDEX FINGER</strong> on the 'L' key now. <br><br>Press SPACE to continue.</div>","32","","","","","","","","","","","","","","","","","","","",""
"html-keyboard-response","9","144178","0.0-2.0-1.0","g5gefw6uklt3v49","instructions","5c791b51eaf40f0001c8f338","5f60e3c0a3b16e07647b2ff9","5f60e9cfbfaddb000828b747","false","7362.195000052452","<div align=left> You will now have time to practice this task.<br><br>Remember: <br> <br><li>Please place your index fingers on the <strong>'S'</strong> and <strong>'L'</strong> keys <br>to respond as fast and accurately as possible.</li><li>Every picture can be classified as either mechanical or non-mechanical.</li><li>If you do not respond in time or commit an error, you will receive a corresponding feedback. </li><li> Please try to respond as <strong> fast </strong> and as <strong> accurately as possible </strong> .<br><li>To ensure optimal results, please minimize distractions and stay focused. </li><br><br>Press SPACE to continue.</div>","32","","","","","","","","","","","","","","","","","","","",""
"html-keyboard-response","10","144895","0.0-2.0-2.0-0.0","g5gefw6uklt3v49","practice_no_cue","5c791b51eaf40f0001c8f338","5f60e3c0a3b16e07647b2ff9","5f60e9cfbfaddb000828b747","false","null","<span style=""color: black; font-size: 48px"">M + N</span>","null","","","","resp_prompt","","","","","","","","","","","","","","","",""
"categorize-image","11","146113","0.0-2.0-2.0-1.0","g5gefw6uklt3v49","practice_no_cue","5c791b51eaf40f0001c8f338","5f60e3c0a3b16e07647b2ff9","5f60e9cfbfaddb000828b747","true","710.2000000886619","./Stimuli/ImagesPractice/LM143.jpg","83","","","","test","true","M + N","83","","LM","LM143.jpg","remember","old","1","1","start","left","","","",""
"html-keyboard-response","12","146827","0.0-2.0-2.0-0.1","g5gefw6uklt3v49","practice_no_cue","5c791b51eaf40f0001c8f338","5f60e3c0a3b16e07647b2ff9","5f60e9cfbfaddb000828b747","false","null","<span style=""color: black; font-size: 48px"">N + M</span>","null","","","","resp_prompt","","","","","","","","","","","","","","","",""
"categorize-image","13","148174","0.0-2.0-2.0-1.1","g5gefw6uklt3v49","practice_no_cue","5c791b51eaf40f0001c8f338","5f60e3c0a3b16e07647b2ff9","5f60e9cfbfaddb000828b747","true","834.9399999715388","./Stimuli/ImagesPractice/LM147.jpg","76","","","","test","true","N + M","76","","LM","LM147.jpg","forget","old","2","1","start","right","","","",""
"html-keyboard-response","14","148883","0.0-2.0-2.0-0.2","g5gefw6uklt3v49","practice_no_cue","5c791b51eaf40f0001c8f338","5f60e3c0a3b16e07647b2ff9","5f60e9cfbfaddb000828b747","false","null","<span style=""color: black; font-size: 48px"">N + M</span>","null","","","","resp_prompt","","","","","","","","","","","","","","","",""
"categorize-image","15","150106","0.0-2.0-2.0-1.2","g5gefw6uklt3v49","practice_no_cue","5c791b51eaf40f0001c8f338","5f60e3c0a3b16e07647b2ff9","5f60e9cfbfaddb000828b747","true","715.5750000383705","./Stimuli/ImagesPractice/LM230.jpg","76","","","","test","true","N + M","76","","LM","LM230.jpg","remember","old","3","1","start","right","","","",""
"html-keyboard-response","16","150810","0.0-2.0-2.0-0.3","g5gefw6uklt3v49","practice_no_cue","5c791b51eaf40f0001c8f338","5f60e3c0a3b16e07647b2ff9","5f60e9cfbfaddb000828b747","false","null","<span style=""color: black; font-size: 48px"">M + N</span>","null","","","","resp_prompt","","","","","","","","","","","","","","","",""
"categorize-image","17","151859","0.0-2.0-2.0-1.3","g5gefw6uklt3v49","practice_no_cue","5c791b51eaf40f0001c8f338","5f60e3c0a3b16e07647b2ff9","5f60e9cfbfaddb000828b747","true","541.0300001967698","./Stimuli/ImagesPractice/SN76.jpg","76","","","","test","true","M + N","76","","SN","SN76.jpg","remember","old","4","1","start","right","","","",""
"html-keyboard-response","18","152565","0.0-2.0-2.0-0.4","g5gefw6uklt3v49","practice_no_cue","5c791b51eaf40f0001c8f338","5f60e3c0a3b16e07647b2ff9","5f60e9cfbfaddb000828b747","false","null","<span style=""color: black; font-size: 48px"">M + N</span>","null","","","","resp_prompt","","","","","","","","","","","","","","","",""
"categorize-image","19","153756","0.0-2.0-2.0-1.4","g5gefw6uklt3v49","practice_no_cue","5c791b51eaf40f0001c8f338","5f60e3c0a3b16e07647b2ff9","5f60e9cfbfaddb000828b747","true","679.0000000037253","./Stimuli/ImagesPractice/SM62.jpg","76","","","","test","false","M + N","83","","SM","SM62.jpg","forget","old","5","1","start","right","","","",""
"html-keyboard-response","20","154467","0.0-2.0-2.0-0.5","g5gefw6uklt3v49","practice_no_cue","5c791b51eaf40f0001c8f338","5f60e3c0a3b16e07647b2ff9","5f60e9cfbfaddb000828b747","false","null","<span style=""color: black; font-size: 48px"">M + N</span>","null","","","","resp_prompt","","","","","","","","","","","","","","","",""
"categorize-image","21","155572","0.0-2.0-2.0-1.5","g5gefw6uklt3v49","practice_no_cue","5c791b51eaf40f0001c8f338","5f60e3c0a3b16e07647b2ff9","5f60e9cfbfaddb000828b747","true","598.1399999000132","./Stimuli/ImagesPractice/LM239.jpg","76","","","","test","false","M + N","83","","LM","LM239.jpg","remember","old","6","1","start","right","","","",""
"html-keyboard-response","22","156276","0.0-2.0-2.0-0.6","g5gefw6uklt3v49","practice_no_cue","5c791b51eaf40f0001c8f338","5f60e3c0a3b16e07647b2ff9","5f60e9cfbfaddb000828b747","false","null","<span style=""color: black; font-size: 48px"">N + M</span>","null","","","","resp_prompt","","","","","","","","","","","","","","","",""
"categorize-image","23","157389","0.0-2.0-2.0-1.6","g5gefw6uklt3v49","practice_no_cue","5c791b51eaf40f0001c8f338","5f60e3c0a3b16e07647b2ff9","5f60e9cfbfaddb000828b747","true","606.1549999285489","./Stimuli/ImagesPractice/LM55.jpg","76","","","","test","true","N + M","76","","LM","LM55.jpg","forget","old","7","1","start","right","","","",""
"html-keyboard-response","24","158095","0.0-2.0-2.0-0.7","g5gefw6uklt3v49","practice_no_cue","5c791b51eaf40f0001c8f338","5f60e3c0a3b16e07647b2ff9","5f60e9cfbfaddb000828b747","false","null","<span style=""color: black; font-size: 48px"">M + N</span>","null","","","","resp_prompt","","","","","","","","","","","","","","","",""
"categorize-image","25","159188","0.0-2.0-2.0-1.7","g5gefw6uklt3v49","practice_no_cue","5c791b51eaf40f0001c8f338","5f60e3c0a3b16e07647b2ff9","5f60e9cfbfaddb000828b747","true","590.6950000207871","./Stimuli/ImagesPractice/LM224.jpg","76","","","","test","false","M + N","83","","LM","LM224.jpg","forget","old","8","1","start","right","","","",""
"html-keyboard-response","26","159895","0.0-2.0-2.0-0.8","g5gefw6uklt3v49","practice_no_cue","5c791b51eaf40f0001c8f338","5f60e3c0a3b16e07647b2ff9","5f60e9cfbfaddb000828b747","false","null","<span style=""color: black; font-size: 48px"">M + N</span>","null","","","","resp_prompt","","","","","","","","","","","","","","","",""
"categorize-image","27","160921","0.0-2.0-2.0-1.8","g5gefw6uklt3v49","practice_no_cue","5c791b51eaf40f0001c8f338","5f60e3c0a3b16e07647b2ff9","5f60e9cfbfaddb000828b747","true","517.7649999968708","./Stimuli/ImagesPractice/LN109.jpg","83","","","","test","false","M + N","76","","LN","LN109.jpg","remember","old","9","1","start","left","","","",""
"html-keyboard-response","28","161633","0.0-2.0-2.0-0.9","g5gefw6uklt3v49","practice_no_cue","5c791b51eaf40f0001c8f338","5f60e3c0a3b16e07647b2ff9","5f60e9cfbfaddb000828b747","false","null","<span style=""color: black; font-size: 48px"">N + M</span>","null","","","","resp_prompt","","","","","","","","","","","","","","","",""
"categorize-image","29","162754","0.0-2.0-2.0-1.9","g5gefw6uklt3v49","practice_no_cue","5c791b51eaf40f0001c8f338","5f60e3c0a3b16e07647b2ff9","5f60e9cfbfaddb000828b747","true","612.5199999660254","./Stimuli/ImagesPractice/LN15.jpg","83","","","","test","true","N + M","83","","LN","LN15.jpg","forget","old","10","1","start","left","","","",""
"html-keyboard-response","30","163465","0.0-2.0-2.0-0.10","g5gefw6uklt3v49","practice_no_cue","5c791b51eaf40f0001c8f338","5f60e3c0a3b16e07647b2ff9","5f60e9cfbfaddb000828b747","false","null","<span style=""color: black; font-size: 48px"">N + M</span>","null","","","","resp_prompt","","","","","","","","","","","","","","","",""
"categorize-image","31","164603","0.0-2.0-2.0-1.10","g5gefw6uklt3v49","practice_no_cue","5c791b51eaf40f0001c8f338","5f60e3c0a3b16e07647b2ff9","5f60e9cfbfaddb000828b747","true","631.7400000989437","./Stimuli/ImagesPractice/SN75.jpg","83","","","","test","true","N + M","83","","SN","SN75.jpg","remember","old","11","1","start","left","","","",""
"html-keyboard-response","32","165312","0.0-2.0-2.0-0.11","g5gefw6uklt3v49","practice_no_cue","5c791b51eaf40f0001c8f338","5f60e3c0a3b16e07647b2ff9","5f60e9cfbfaddb000828b747","false","null","<span style=""color: black; font-size: 48px"">M + N</span>","null","","","","resp_prompt","","","","","","","","","","","","","","","",""
"categorize-image","33","166572","0.0-2.0-2.0-1.11","g5gefw6uklt3v49","practice_no_cue","5c791b51eaf40f0001c8f338","5f60e3c0a3b16e07647b2ff9","5f60e9cfbfaddb000828b747","true","751.979999942705","./Stimuli/ImagesPractice/LN2.jpg","76","","","","test","true","M + N","76","","LN","LN2.jpg","forget","old","12","1","start","right","","","",""
"html-keyboard-response","34","167288","0.0-2.0-2.0-0.12","g5gefw6uklt3v49","practice_no_cue","5c791b51eaf40f0001c8f338","5f60e3c0a3b16e07647b2ff9","5f60e9cfbfaddb000828b747","false","null","<span style=""color: black; font-size: 48px"">N + M</span>","null","","","","resp_prompt","","","","","","","","","","","","","","","",""
"categorize-image","35","168320","0.0-2.0-2.0-1.12","g5gefw6uklt3v49","practice_no_cue","5c791b51eaf40f0001c8f338","5f60e3c0a3b16e07647b2ff9","5f60e9cfbfaddb000828b747","true","523.2900001574308","./Stimuli/ImagesPractice/LN72.jpg","83","","","","test","true","N + M","83","","LN","LN72.jpg","forget","old","13","1","start","left","","","",""
"html-keyboard-response","36","169024","0.0-2.0-2.0-0.13","g5gefw6uklt3v49","practice_no_cue","5c791b51eaf40f0001c8f338","5f60e3c0a3b16e07647b2ff9","5f60e9cfbfaddb000828b747","false","null","<span style=""color: black; font-size: 48px"">N + M</span>","null","","","","resp_prompt","","","","","","","","","","","","","","","",""
"categorize-image","37","170152","0.0-2.0-2.0-1.13","g5gefw6uklt3v49","practice_no_cue","5c791b51eaf40f0001c8f338","5f60e3c0a3b16e07647b2ff9","5f60e9cfbfaddb000828b747","true","620.0449999887496","./Stimuli/ImagesPractice/SM35.jpg","76","","","","test","true","N + M","76","","SM","SM35.jpg","remember","old","14","1","start","right","","","",""
"html-keyboard-response","38","170857","0.0-2.0-2.0-0.14","g5gefw6uklt3v49","practice_no_cue","5c791b51eaf40f0001c8f338","5f60e3c0a3b16e07647b2ff9","5f60e9cfbfaddb000828b747","false","null","<span style=""color: black; font-size: 48px"">N + M</span>","null","","","","resp_prompt","","","","","","","","","","","","","","","",""
"categorize-image","39","172040","0.0-2.0-2.0-1.14","g5gefw6uklt3v49","practice_no_cue","5c791b51eaf40f0001c8f338","5f60e3c0a3b16e07647b2ff9","5f60e9cfbfaddb000828b747","true","668.6650000046939","./Stimuli/ImagesPractice/SM37.jpg","76","","","","test","true","N + M","76","","SM","SM37.jpg","remember","old","15","1","start","right","","","",""
"html-keyboard-response","40","172756","0.0-2.0-2.0-0.15","g5gefw6uklt3v49","practice_no_cue","5c791b51eaf40f0001c8f338","5f60e3c0a3b16e07647b2ff9","5f60e9cfbfaddb000828b747","false","null","<span style=""color: black; font-size: 48px"">M + N</span>","null","","","","resp_prompt","","","","","","","","","","","","","","","",""
"categorize-image","41","173880","0.0-2.0-2.0-1.15","g5gefw6uklt3v49","practice_no_cue","5c791b51eaf40f0001c8f338","5f60e3c0a3b16e07647b2ff9","5f60e9cfbfaddb000828b747","true","613.1000001914799","./Stimuli/ImagesPractice/SN221.jpg","76","","","","test","true","M + N","76","","SN","SN221.jpg","forget","old","16","1","start","right","","","",""
"html-keyboard-response","42","177791","0.0-2.0-3.0","g5gefw6uklt3v49","break","5c791b51eaf40f0001c8f338","5f60e3c0a3b16e07647b2ff9","5f60e9cfbfaddb000828b747","false","3908.8250000495464","<p style='font-size: 32px;'>Break</><br><br><br><br><br><p style='font-size: 24px;'>In the last block, you committed 4 errors and did not respond in time on 0 trials.
</p><p style='font-size: 24px;'>Try to respond as fast and accurately as possible in the next block as well! </p><p style='font-size: 24px;'>Press SPACE to continue.</p>","32","","","","","","","","","","","","","","","","","","","",""
"html-keyboard-response","43","179628","0.0-2.0-4.0","g5gefw6uklt3v49","instructions","5c791b51eaf40f0001c8f338","5f60e3c0a3b16e07647b2ff9","5f60e9cfbfaddb000828b747","false","1835.6700001750141","<div align=left> Great!<br><br>Are you ready to continue?<br><br>If you want to reread the instructions and redo the practice trials, <br>please press „Z“. <br><br>Press SPACE to CONTINUE with the experiment when you are ready. </div>","32","","","","","","","","","","","","","","","","","","","",""
"html-keyboard-response","44","198142","0.0-3.0-0.0","g5gefw6uklt3v49","instructions","5c791b51eaf40f0001c8f338","5f60e3c0a3b16e07647b2ff9","5f60e9cfbfaddb000828b747","false","18512.68000015989","<div align=left>Great!<br> <strong>Attention</strong>! You will now receive a second, additional task! <br><br>To this point it was you <strong>first task</strong> to correctly <strong>classify objects</strong>. <br><br>As mentioned in the beginning, we aim to examine how well humans can remember previously learned information.<br>We would like to find out whether our memory improves if we only remember information that is relevant to us. <br><br>Therefore, your <strong>second task</strong> will be to <strong>remember</strong> the pictures you are to categorize. <br> After the learning phase, there will be a memory test phase, in which you will be asked to indicate whether you have seen a picture before or not. <br>Some, but not all pictures shown in the learning phase will appear in the memory test phase.<br>After classifying a picture, you will be told whether you should remember it for the memory test phase or not. <br>Thus, some pictures can be forgotten, whereas others have to be remembered. <br><br>Note: From now on, feedback will only be displayed if you responded incorrectly or not in time.<br><br>Press SPACE to continue.</div>","32","","","","","","","","","","","","","","","","","","","",""
"html-keyboard-response","45","221504","0.0-3.0-1.0","g5gefw6uklt3v49","instructions","5c791b51eaf40f0001c8f338","5f60e3c0a3b16e07647b2ff9","5f60e9cfbfaddb000828b747","false","23361.40999989584","<div align=left>In the following part, you will thus have to remember only some pictures. <br>Immediately after seeing and classifying the picture, a symbol will be displayed, indicating whether you should remember or forget the previous picture. <br><br>A <span style='color: dodgerblue; font-size: 28px'>O</span> indicates REMEMBER. That means, you have to remember this picture, because it will be tested later. <br><br>A <span style='color: darkorange; font-size:28px'>Ø</span> indicates FORGET. You do not have to remember this picture. <br><br> As you will have to remember a lot of pictures, it will be hard for you to remember all of them. <br>It will put you at an advantage if you instantly forget the pictures you are not asked to remember. <br> This will make it easier for you to remember the pictures that will be tested afterwards. <br><br>Press SPACE to continue.</div>","32","","","","","","","","","","","","","","","","","","","",""
"html-keyboard-response","46","231291","0.0-3.0-2.0","g5gefw6uklt3v49","instructions","5c791b51eaf40f0001c8f338","5f60e3c0a3b16e07647b2ff9","5f60e9cfbfaddb000828b747","false","9786.510000005364","<div align=left> Now you have the chance to practice both tasks together.<br><br>Remember: <br> <br><li>Please place your index fingers on the <strong>'S'</strong> and <strong>'L'</strong> keys <br>to respond as fast and accurately as possible.</li><li>Every picture can be classified as either mechanical or non-mechanical.</li><li>If you do not respond in time or commit an error, you will receive a corresponding feedback. <br>Please try to respond as <strong> fast </strong> and as <strong> accurately as possible </strong>.</li><li> Please remember only the to-be-remembered <span style='color: dodgerblue; font-size: 28px'>O</span> pictures. <br></li><li> Please minimize distractions and stay focused. </li><br><br>Press SPACE to START</div>","32","","","","","","","","","","","","","","","","","","","",""
"html-keyboard-response","47","231995","0.0-3.0-3.0-0.0","g5gefw6uklt3v49","practice_cue","5c791b51eaf40f0001c8f338","5f60e3c0a3b16e07647b2ff9","5f60e9cfbfaddb000828b747","false","null","<span style=""color: black; font-size: 48px"">M + N</span>","null","","","","resp_prompt","","","","","","","","","","","","","","","",""
"categorize-image","48","232493","0.0-3.0-3.0-1.0","g5gefw6uklt3v49","practice_cue","5c791b51eaf40f0001c8f338","5f60e3c0a3b16e07647b2ff9","5f60e9cfbfaddb000828b747","true","495.2150001190603","./Stimuli/ImagesPractice/SM62.jpg","83","","","","test","true","M + N","83","","SM","SM62.jpg","forget","old","17","2","practice_forget","left","","","",""
"html-keyboard-response","49","234501","0.0-3.0-3.0-3.0","g5gefw6uklt3v49","practice_cue","5c791b51eaf40f0001c8f338","5f60e3c0a3b16e07647b2ff9","5f60e9cfbfaddb000828b747","false","null","<div style=""align-items: center; display: flex; color: darkorange; font-size: 90px""><b>ø</b></div>","null","","","","forget_cue","","","","","","","","","","","","","","","",""
"html-keyboard-response","50","235210","0.0-3.0-3.0-0.1","g5gefw6uklt3v49","practice_cue","5c791b51eaf40f0001c8f338","5f60e3c0a3b16e07647b2ff9","5f60e9cfbfaddb000828b747","false","null","<span style=""color: black; font-size: 48px"">M + N</span>","null","","","","resp_prompt","","","","","","","","","","","","","","","",""
"categorize-image","51","235670","0.0-3.0-3.0-1.1","g5gefw6uklt3v49","practice_cue","5c791b51eaf40f0001c8f338","5f60e3c0a3b16e07647b2ff9","5f60e9cfbfaddb000828b747","true","456.7599999718368","./Stimuli/ImagesPractice/SN221.jpg","76","","","","test","true","M + N","76","","SN","SN221.jpg","forget","old","18","2","practice_forget","right","","","",""
"html-keyboard-response","52","237675","0.0-3.0-3.0-3.1","g5gefw6uklt3v49","practice_cue","5c791b51eaf40f0001c8f338","5f60e3c0a3b16e07647b2ff9","5f60e9cfbfaddb000828b747","false","null","<div style=""align-items: center; display: flex; color: darkorange; font-size: 90px""><b>ø</b></div>","null","","","","forget_cue","","","","","","","","","","","","","","","",""
"html-keyboard-response","53","238384","0.0-3.0-3.0-0.2","g5gefw6uklt3v49","practice_cue","5c791b51eaf40f0001c8f338","5f60e3c0a3b16e07647b2ff9","5f60e9cfbfaddb000828b747","false","null","<span style=""color: black; font-size: 48px"">M + N</span>","null","","","","resp_prompt","","","","","","","","","","","","","","","",""
"categorize-image","54","238966","0.0-3.0-3.0-1.2","g5gefw6uklt3v49","practice_cue","5c791b51eaf40f0001c8f338","5f60e3c0a3b16e07647b2ff9","5f60e9cfbfaddb000828b747","true","578.8049998227507","./Stimuli/ImagesPractice/LM239.jpg","83","","","","test","true","M + N","83","","LM","LM239.jpg","remember","old","19","2","practice_forget","left","","","",""
"html-keyboard-response","55","240983","0.0-3.0-3.0-3.2","g5gefw6uklt3v49","practice_cue","5c791b51eaf40f0001c8f338","5f60e3c0a3b16e07647b2ff9","5f60e9cfbfaddb000828b747","false","null","<div style=""align-items: center; display: flex; color: dodgerblue; font-size: 90px""><b>o</b></div>","null","","","","forget_cue","","","","","","","","","","","","","","","",""
"html-keyboard-response","56","241693","0.0-3.0-3.0-0.3","g5gefw6uklt3v49","practice_cue","5c791b51eaf40f0001c8f338","5f60e3c0a3b16e07647b2ff9","5f60e9cfbfaddb000828b747","false","null","<span style=""color: black; font-size: 48px"">N + M</span>","null","","","","resp_prompt","","","","","","","","","","","","","","","",""
"categorize-image","57","242252","0.0-3.0-3.0-1.3","g5gefw6uklt3v49","practice_cue","5c791b51eaf40f0001c8f338","5f60e3c0a3b16e07647b2ff9","5f60e9cfbfaddb000828b747","true","555.665000109002","./Stimuli/ImagesPractice/LM55.jpg","76","","","","test","true","N + M","76","","LM","LM55.jpg","forget","old","20","2","practice_forget","right","","","",""
"html-keyboard-response","58","244258","0.0-3.0-3.0-3.3","g5gefw6uklt3v49","practice_cue","5c791b51eaf40f0001c8f338","5f60e3c0a3b16e07647b2ff9","5f60e9cfbfaddb000828b747","false","null","<div style=""align-items: center; display: flex; color: darkorange; font-size: 90px""><b>ø</b></div>","null","","","","forget_cue","","","","","","","","","","","","","","","",""
"html-keyboard-response","59","244963","0.0-3.0-3.0-0.4","g5gefw6uklt3v49","practice_cue","5c791b51eaf40f0001c8f338","5f60e3c0a3b16e07647b2ff9","5f60e9cfbfaddb000828b747","false","null","<span style=""color: black; font-size: 48px"">M + N</span>","null","","","","resp_prompt","","","","","","","","","","","","","","","",""
"categorize-image","60","245574","0.0-3.0-3.0-1.4","g5gefw6uklt3v49","practice_cue","5c791b51eaf40f0001c8f338","5f60e3c0a3b16e07647b2ff9","5f60e9cfbfaddb000828b747","true","608.185000019148","./Stimuli/ImagesPractice/SN76.jpg","76","","","","test","true","M + N","76","","SN","SN76.jpg","remember","old","21","2","practice_forget","right","","","",""
"html-keyboard-response","61","247582","0.0-3.0-3.0-3.4","g5gefw6uklt3v49","practice_cue","5c791b51eaf40f0001c8f338","5f60e3c0a3b16e07647b2ff9","5f60e9cfbfaddb000828b747","false","null","<div style=""align-items: center; display: flex; color: dodgerblue; font-size: 90px""><b>o</b></div>","null","","","","forget_cue","","","","","","","","","","","","","","","",""
"html-keyboard-response","62","248291","0.0-3.0-3.0-0.5","g5gefw6uklt3v49","practice_cue","5c791b51eaf40f0001c8f338","5f60e3c0a3b16e07647b2ff9","5f60e9cfbfaddb000828b747","false","null","<span style=""color: black; font-size: 48px"">N + M</span>","null","","","","resp_prompt","","","","","","","","","","","","","","","",""
"categorize-image","63","248830","0.0-3.0-3.0-1.5","g5gefw6uklt3v49","practice_cue","5c791b51eaf40f0001c8f338","5f60e3c0a3b16e07647b2ff9","5f60e9cfbfaddb000828b747","true","535.4300001636147","./Stimuli/ImagesPractice/SM37.jpg","76","","","","test","true","N + M","76","","SM","SM37.jpg","remember","old","22","2","practice_forget","right","","","",""
"html-keyboard-response","64","250838","0.0-3.0-3.0-3.5","g5gefw6uklt3v49","practice_cue","5c791b51eaf40f0001c8f338","5f60e3c0a3b16e07647b2ff9","5f60e9cfbfaddb000828b747","false","null","<div style=""align-items: center; display: flex; color: dodgerblue; font-size: 90px""><b>o</b></div>","null","","","","forget_cue","","","","","","","","","","","","","","","",""
"html-keyboard-response","65","251548","0.0-3.0-3.0-0.6","g5gefw6uklt3v49","practice_cue","5c791b51eaf40f0001c8f338","5f60e3c0a3b16e07647b2ff9","5f60e9cfbfaddb000828b747","false","null","<span style=""color: black; font-size: 48px"">N + M</span>","null","","","","resp_prompt","","","","","","","","","","","","","","","",""
"categorize-image","66","252206","0.0-3.0-3.0-1.6","g5gefw6uklt3v49","practice_cue","5c791b51eaf40f0001c8f338","5f60e3c0a3b16e07647b2ff9","5f60e9cfbfaddb000828b747","true","653.7949999328703","./Stimuli/ImagesPractice/LM230.jpg","76","","","","test","true","N + M","76","","LM","LM230.jpg","remember","old","23","2","practice_forget","right","","","",""
"html-keyboard-response","67","254210","0.0-3.0-3.0-3.6","g5gefw6uklt3v49","practice_cue","5c791b51eaf40f0001c8f338","5f60e3c0a3b16e07647b2ff9","5f60e9cfbfaddb000828b747","false","null","<div style=""align-items: center; display: flex; color: dodgerblue; font-size: 90px""><b>o</b></div>","null","","","","forget_cue","","","","","","","","","","","","","","","",""
"html-keyboard-response","68","254922","0.0-3.0-3.0-0.7","g5gefw6uklt3v49","practice_cue","5c791b51eaf40f0001c8f338","5f60e3c0a3b16e07647b2ff9","5f60e9cfbfaddb000828b747","false","null","<span style=""color: black; font-size: 48px"">N + M</span>","null","","","","resp_prompt","","","","","","","","","","","","","","","",""
"categorize-image","69","255412","0.0-3.0-3.0-1.7","g5gefw6uklt3v49","practice_cue","5c791b51eaf40f0001c8f338","5f60e3c0a3b16e07647b2ff9","5f60e9cfbfaddb000828b747","true","487.0050000026822","./Stimuli/ImagesPractice/LM147.jpg","76","","","","test","true","N + M","76","","LM","LM147.jpg","forget","old","24","2","practice_forget","right","","","",""
"html-keyboard-response","70","257421","0.0-3.0-3.0-3.7","g5gefw6uklt3v49","practice_cue","5c791b51eaf40f0001c8f338","5f60e3c0a3b16e07647b2ff9","5f60e9cfbfaddb000828b747","false","null","<div style=""align-items: center; display: flex; color: darkorange; font-size: 90px""><b>ø</b></div>","null","","","","forget_cue","","","","","","","","","","","","","","","",""
"html-keyboard-response","71","258122","0.0-3.0-3.0-0.8","g5gefw6uklt3v49","practice_cue","5c791b51eaf40f0001c8f338","5f60e3c0a3b16e07647b2ff9","5f60e9cfbfaddb000828b747","false","null","<span style=""color: black; font-size: 48px"">N + M</span>","null","","","","resp_prompt","","","","","","","","","","","","","","","",""
"categorize-image","72","258628","0.0-3.0-3.0-1.8","g5gefw6uklt3v49","practice_cue","5c791b51eaf40f0001c8f338","5f60e3c0a3b16e07647b2ff9","5f60e9cfbfaddb000828b747","true","503.4299998078495","./Stimuli/ImagesPractice/SN75.jpg","83","","","","test","true","N + M","83","","SN","SN75.jpg","remember","old","25","2","practice_forget","left","","","",""
"html-keyboard-response","73","260644","0.0-3.0-3.0-3.8","g5gefw6uklt3v49","practice_cue","5c791b51eaf40f0001c8f338","5f60e3c0a3b16e07647b2ff9","5f60e9cfbfaddb000828b747","false","null","<div style=""align-items: center; display: flex; color: dodgerblue; font-size: 90px""><b>o</b></div>","null","","","","forget_cue","","","","","","","","","","","","","","","",""
"html-keyboard-response","74","261357","0.0-3.0-3.0-0.9","g5gefw6uklt3v49","practice_cue","5c791b51eaf40f0001c8f338","5f60e3c0a3b16e07647b2ff9","5f60e9cfbfaddb000828b747","false","null","<span style=""color: black; font-size: 48px"">M + N</span>","null","","","","resp_prompt","","","","","","","","","","","","","","","",""
"categorize-image","75","261760","0.0-3.0-3.0-1.9","g5gefw6uklt3v49","practice_cue","5c791b51eaf40f0001c8f338","5f60e3c0a3b16e07647b2ff9","5f60e9cfbfaddb000828b747","true","399.28000001236796","./Stimuli/ImagesPractice/LM224.jpg","83","","","","test","true","M + N","83","","LM","LM224.jpg","forget","old","26","2","practice_forget","left","","","",""
"html-keyboard-response","76","263773","0.0-3.0-3.0-3.9","g5gefw6uklt3v49","practice_cue","5c791b51eaf40f0001c8f338","5f60e3c0a3b16e07647b2ff9","5f60e9cfbfaddb000828b747","false","null","<div style=""align-items: center; display: flex; color: darkorange; font-size: 90px""><b>ø</b></div>","null","","","","forget_cue","","","","","","","","","","","","","","","",""
"html-keyboard-response","77","264476","0.0-3.0-3.0-0.10","g5gefw6uklt3v49","practice_cue","5c791b51eaf40f0001c8f338","5f60e3c0a3b16e07647b2ff9","5f60e9cfbfaddb000828b747","false","null","<span style=""color: black; font-size: 48px"">M + N</span>","null","","","","resp_prompt","","","","","","","","","","","","","","","",""
"categorize-image","78","265052","0.0-3.0-3.0-1.10","g5gefw6uklt3v49","practice_cue","5c791b51eaf40f0001c8f338","5f60e3c0a3b16e07647b2ff9","5f60e9cfbfaddb000828b747","true","570.7050000783056","./Stimuli/ImagesPractice/LN2.jpg","76","","","","test","true","M + N","76","","LN","LN2.jpg","forget","old","27","2","practice_forget","right","","","",""
"html-keyboard-response","79","267060","0.0-3.0-3.0-3.10","g5gefw6uklt3v49","practice_cue","5c791b51eaf40f0001c8f338","5f60e3c0a3b16e07647b2ff9","5f60e9cfbfaddb000828b747","false","null","<div style=""align-items: center; display: flex; color: darkorange; font-size: 90px""><b>ø</b></div>","null","","","","forget_cue","","","","","","","","","","","","","","","",""
"html-keyboard-response","80","267774","0.0-3.0-3.0-0.11","g5gefw6uklt3v49","practice_cue","5c791b51eaf40f0001c8f338","5f60e3c0a3b16e07647b2ff9","5f60e9cfbfaddb000828b747","false","null","<span style=""color: black; font-size: 48px"">N + M</span>","null","","","","resp_prompt","","","","","","","","","","","","","","","",""
"categorize-image","81","268457","0.0-3.0-3.0-1.11","g5gefw6uklt3v49","practice_cue","5c791b51eaf40f0001c8f338","5f60e3c0a3b16e07647b2ff9","5f60e9cfbfaddb000828b747","true","679.9800000153482","./Stimuli/ImagesPractice/LN72.jpg","83","","","","test","true","N + M","83","","LN","LN72.jpg","forget","old","28","2","practice_forget","left","","","",""
"html-keyboard-response","82","270472","0.0-3.0-3.0-3.11","g5gefw6uklt3v49","practice_cue","5c791b51eaf40f0001c8f338","5f60e3c0a3b16e07647b2ff9","5f60e9cfbfaddb000828b747","false","null","<div style=""align-items: center; display: flex; color: darkorange; font-size: 90px""><b>ø</b></div>","null","","","","forget_cue","","","","","","","","","","","","","","","",""
"html-keyboard-response","83","271186","0.0-3.0-3.0-0.12","g5gefw6uklt3v49","practice_cue","5c791b51eaf40f0001c8f338","5f60e3c0a3b16e07647b2ff9","5f60e9cfbfaddb000828b747","false","null","<span style=""color: black; font-size: 48px"">N + M</span>","null","","","","resp_prompt","","","","","","","","","","","","","","","",""
"categorize-image","84","271723","0.0-3.0-3.0-1.12","g5gefw6uklt3v49","practice_cue","5c791b51eaf40f0001c8f338","5f60e3c0a3b16e07647b2ff9","5f60e9cfbfaddb000828b747","true","534.4899999909103","./Stimuli/ImagesPractice/LN15.jpg","83","","","","test","true","N + M","83","","LN","LN15.jpg","forget","old","29","2","practice_forget","left","","","",""
"html-keyboard-response","85","273727","0.0-3.0-3.0-3.12","g5gefw6uklt3v49","practice_cue","5c791b51eaf40f0001c8f338","5f60e3c0a3b16e07647b2ff9","5f60e9cfbfaddb000828b747","false","null","<div style=""align-items: center; display: flex; color: darkorange; font-size: 90px""><b>ø</b></div>","null","","","","forget_cue","","","","","","","","","","","","","","","",""
"html-keyboard-response","86","274441","0.0-3.0-3.0-0.13","g5gefw6uklt3v49","practice_cue","5c791b51eaf40f0001c8f338","5f60e3c0a3b16e07647b2ff9","5f60e9cfbfaddb000828b747","false","null","<span style=""color: black; font-size: 48px"">M + N</span>","null","","","","resp_prompt","","","","","","","","","","","","","","","",""
"categorize-image","87","274930","0.0-3.0-3.0-1.13","g5gefw6uklt3v49","practice_cue","5c791b51eaf40f0001c8f338","5f60e3c0a3b16e07647b2ff9","5f60e9cfbfaddb000828b747","true","485.0850000511855","./Stimuli/ImagesPractice/LM143.jpg","83","","","","test","true","M + N","83","","LM","LM143.jpg","remember","old","30","2","practice_forget","left","","","",""
"html-keyboard-response","88","276939","0.0-3.0-3.0-3.13","g5gefw6uklt3v49","practice_cue","5c791b51eaf40f0001c8f338","5f60e3c0a3b16e07647b2ff9","5f60e9cfbfaddb000828b747","false","null","<div style=""align-items: center; display: flex; color: dodgerblue; font-size: 90px""><b>o</b></div>","null","","","","forget_cue","","","","","","","","","","","","","","","",""
"html-keyboard-response","89","277651","0.0-3.0-3.0-0.14","g5gefw6uklt3v49","practice_cue","5c791b51eaf40f0001c8f338","5f60e3c0a3b16e07647b2ff9","5f60e9cfbfaddb000828b747","false","null","<span style=""color: black; font-size: 48px"">N + M</span>","null","","","","resp_prompt","","","","","","","","","","","","","","","",""
"categorize-image","90","278226","0.0-3.0-3.0-1.14","g5gefw6uklt3v49","practice_cue","5c791b51eaf40f0001c8f338","5f60e3c0a3b16e07647b2ff9","5f60e9cfbfaddb000828b747","true","572.1599999815226","./Stimuli/ImagesPractice/SM35.jpg","76","","","","test","true","N + M","76","","SM","SM35.jpg","remember","old","31","2","practice_forget","right","","","",""
"html-keyboard-response","91","280235","0.0-3.0-3.0-3.14","g5gefw6uklt3v49","practice_cue","5c791b51eaf40f0001c8f338","5f60e3c0a3b16e07647b2ff9","5f60e9cfbfaddb000828b747","false","null","<div style=""align-items: center; display: flex; color: dodgerblue; font-size: 90px""><b>o</b></div>","null","","","","forget_cue","","","","","","","","","","","","","","","",""
"html-keyboard-response","92","280950","0.0-3.0-3.0-0.15","g5gefw6uklt3v49","practice_cue","5c791b51eaf40f0001c8f338","5f60e3c0a3b16e07647b2ff9","5f60e9cfbfaddb000828b747","false","null","<span style=""color: black; font-size: 48px"">M + N</span>","null","","","","resp_prompt","","","","","","","","","","","","","","","",""
"categorize-image","93","281615","0.0-3.0-3.0-1.15","g5gefw6uklt3v49","practice_cue","5c791b51eaf40f0001c8f338","5f60e3c0a3b16e07647b2ff9","5f60e9cfbfaddb000828b747","true","648.3500001486391","./Stimuli/ImagesPractice/LN109.jpg","76","","","","test","true","M + N","76","","LN","LN109.jpg","remember","old","32","2","practice_forget","right","","","",""
"html-keyboard-response","94","283628","0.0-3.0-3.0-3.15","g5gefw6uklt3v49","practice_cue","5c791b51eaf40f0001c8f338","5f60e3c0a3b16e07647b2ff9","5f60e9cfbfaddb000828b747","false","null","<div style=""align-items: center; display: flex; color: dodgerblue; font-size: 90px""><b>o</b></div>","null","","","","forget_cue","","","","","","","","","","","","","","","",""
"html-keyboard-response","95","284894","0.0-3.0-4.0","g5gefw6uklt3v49","break","5c791b51eaf40f0001c8f338","5f60e3c0a3b16e07647b2ff9","5f60e9cfbfaddb000828b747","false","1265.5249999370426","<p style='font-size: 32px;'>Break</><br><br><br><br><br><p style='font-size: 24px;'>In the last block, you committed 0 errors and did not respond in time on 0 trials.
</p><p style='font-size: 24px;'>Try to respond as fast and accurately as possible in the next block as well! </p><p style='font-size: 24px;'>Press SPACE to continue.</p>","32","","","","","","","","","","","","","","","","","","","",""
"html-keyboard-response","96","310641","0.0-3.0-5.0","g5gefw6uklt3v49","instructions","5c791b51eaf40f0001c8f338","5f60e3c0a3b16e07647b2ff9","5f60e9cfbfaddb000828b747","false","25745.53499999456","<div align=left> Now, to practice, we kindly ask you to remember as many of the to-be-remembered pictures<br>of the previous learning phase as possible.<br><br>The pictures you were instructed to remember were the pictures followed by a <span style='color: dodgerblue; font-size: 28px'>O</span>.<br><br>In this memory test phase, you will also see some new pictures.<br>It is your task to remember whether you were presented with this specific picture in this study so far or not.<br>If you recognize an object (you have already seen it in this study), it is an OLD object. <br>If you do not recognize an object (you have NOT seen it in this study), it is a NEW object. <br><strong> Attention</strong>: As already mentioned, <span style='color: darkorange; font-size:28px'>Ø</span>-pictures will <strong>never</strong> appear in this memory test (neither as new objects). <br><br>Press SPACE to continue. </div>","32","","","","","","","","","","","","","","","","","","","",""
"html-keyboard-response","97","322635","0.0-3.0-6.0","g5gefw6uklt3v49","instructions","5c791b51eaf40f0001c8f338","5f60e3c0a3b16e07647b2ff9","5f60e9cfbfaddb000828b747","false","11992.955000139773","<div align=left> M and N no longer will appear on the left/right of the fixation cross. <br>Instead there will be a note at the bottom of the left or right side  <br>indicating which key you should press for an old or new object:  <br> <br>Press the <strong>right</strong> key to classify an object as <strong>old</strong> and press the <strong>left</strong>, to classify an object as <strong>new</strong>.<br>Please classify the objects as new/old by again placing your index finger on the 'S' and 'L' keys <br>and press them accordingly.<br><br><strong>Old:</strong> This object has been presented before. <br><strong>New:</strong> This object has <strong>not</strong> been presented.<br><br>Now please put your right and left index fingers on the 'S' and 'L' keys of your keyboard. <br>Please respond as fast and as accurately as possible!<br><br>Press SPACE to continue. </div>","32","","","","","","","","","","","","","","","","","","","",""
"categorize-image","98","325818","0.0-3.0-7.0-0.0","g5gefw6uklt3v49","practice_recog","5c791b51eaf40f0001c8f338","5f60e3c0a3b16e07647b2ff9","5f60e9cfbfaddb000828b747","true","2671.370000112802","./Stimuli/ImagesPractice/LN17.jpg","83","","","","test","true","","83","","LN","LN17.jpg","","new","33","3","practice_recog","left","","","",""
"categorize-image","99","327286","0.0-3.0-7.0-0.1","g5gefw6uklt3v49","practice_recog","5c791b51eaf40f0001c8f338","5f60e3c0a3b16e07647b2ff9","5f60e9cfbfaddb000828b747","true","963.2200000341982","./Stimuli/ImagesPractice/SN76.jpg","76","","","","test","true","","76","","SN","SN76.jpg","","old","34","3","practice_recog","right","","","",""
"categorize-image","100","329716","0.0-3.0-7.0-0.2","g5gefw6uklt3v49","practice_recog","5c791b51eaf40f0001c8f338","5f60e3c0a3b16e07647b2ff9","5f60e9cfbfaddb000828b747","true","1919.6950001642108","./Stimuli/ImagesPractice/SM61.jpg","83","","","","test","true","","83","","SM","SM61.jpg","","new","35","3","practice_recog","left","","","",""
"categorize-image","101","331384","0.0-3.0-7.0-0.3","g5gefw6uklt3v49","practice_recog","5c791b51eaf40f0001c8f338","5f60e3c0a3b16e07647b2ff9","5f60e9cfbfaddb000828b747","true","1152.8950000647455","./Stimuli/ImagesPractice/LN4.jpg","83","","","","test","true","","83","","LN","LN4.jpg","","new","36","3","practice_recog","left","","","",""
"categorize-image","102","332668","0.0-3.0-7.0-0.4","g5gefw6uklt3v49","practice_recog","5c791b51eaf40f0001c8f338","5f60e3c0a3b16e07647b2ff9","5f60e9cfbfaddb000828b747","true","779.4350001495332","./Stimuli/ImagesPractice/LM143.jpg","76","","","","test","true","","76","","LM","LM143.jpg","","old","37","3","practice_recog","right","","","",""
"categorize-image","103","333915","0.0-3.0-7.0-0.5","g5gefw6uklt3v49","practice_recog","5c791b51eaf40f0001c8f338","5f60e3c0a3b16e07647b2ff9","5f60e9cfbfaddb000828b747","true","740.1850000023842","./Stimuli/ImagesPractice/SM37.jpg","76","","","","test","true","","76","","SM","SM37.jpg","","old","38","3","practice_recog","right","","","",""
"categorize-image","104","335334","0.0-3.0-7.0-0.6","g5gefw6uklt3v49","practice_recog","5c791b51eaf40f0001c8f338","5f60e3c0a3b16e07647b2ff9","5f60e9cfbfaddb000828b747","true","912.0699998456985","./Stimuli/ImagesPractice/SN205.jpg","83","","","","test","true","","83","","SN","SN205.jpg","","new","39","3","practice_recog","left","","","",""
"categorize-image","105","336799","0.0-3.0-7.0-0.7","g5gefw6uklt3v49","practice_recog","5c791b51eaf40f0001c8f338","5f60e3c0a3b16e07647b2ff9","5f60e9cfbfaddb000828b747","true","957.27499993518","./Stimuli/ImagesPractice/SM97.jpg","83","","","","test","true","","83","","SM","SM97.jpg","","new","40","3","practice_recog","left","","","",""
"categorize-image","106","338049","0.0-3.0-7.0-0.8","g5gefw6uklt3v49","practice_recog","5c791b51eaf40f0001c8f338","5f60e3c0a3b16e07647b2ff9","5f60e9cfbfaddb000828b747","true","737.0249999221414","./Stimuli/ImagesPractice/LM239.jpg","76","","","","test","true","","76","","LM","LM239.jpg","","old","41","3","practice_recog","right","","","",""
"categorize-image","107","339083","0.0-3.0-7.0-0.9","g5gefw6uklt3v49","practice_recog","5c791b51eaf40f0001c8f338","5f60e3c0a3b16e07647b2ff9","5f60e9cfbfaddb000828b747","true","516.899999929592","./Stimuli/ImagesPractice/SM35.jpg","76","","","","test","true","","76","","SM","SM35.jpg","","old","42","3","practice_recog","right","","","",""
"categorize-image","108","340349","0.0-3.0-7.0-0.10","g5gefw6uklt3v49","practice_recog","5c791b51eaf40f0001c8f338","5f60e3c0a3b16e07647b2ff9","5f60e9cfbfaddb000828b747","true","763.6849998962134","./Stimuli/ImagesPractice/LN109.jpg","76","","","","test","true","","76","","LN","LN109.jpg","","old","43","3","practice_recog","right","","","",""
"categorize-image","109","341699","0.0-3.0-7.0-0.11","g5gefw6uklt3v49","practice_recog","5c791b51eaf40f0001c8f338","5f60e3c0a3b16e07647b2ff9","5f60e9cfbfaddb000828b747","true","835.9199999831617","./Stimuli/ImagesPractice/SN220.jpg","83","","","","test","true","","83","","SN","SN220.jpg","","new","44","3","practice_recog","left","","","",""
"categorize-image","110","342931","0.0-3.0-7.0-0.12","g5gefw6uklt3v49","practice_recog","5c791b51eaf40f0001c8f338","5f60e3c0a3b16e07647b2ff9","5f60e9cfbfaddb000828b747","true","721.4150000363588","./Stimuli/ImagesPractice/SN75.jpg","76","","","","test","true","","76","","SN","SN75.jpg","","old","45","3","practice_recog","right","","","",""
"categorize-image","111","344332","0.0-3.0-7.0-0.13","g5gefw6uklt3v49","practice_recog","5c791b51eaf40f0001c8f338","5f60e3c0a3b16e07647b2ff9","5f60e9cfbfaddb000828b747","true","892.6950001623482","./Stimuli/ImagesPractice/SM98.jpg","83","","","","test","true","","83","","SM","SM98.jpg","","new","46","3","practice_recog","left","","","",""
"categorize-image","112","345513","0.0-3.0-7.0-0.14","g5gefw6uklt3v49","practice_recog","5c791b51eaf40f0001c8f338","5f60e3c0a3b16e07647b2ff9","5f60e9cfbfaddb000828b747","true","667.7650001365691","./Stimuli/ImagesPractice/SN222.jpg","83","","","","test","true","","83","","SN","SN222.jpg","","new","47","3","practice_recog","left","","","",""
"categorize-image","113","346582","0.0-3.0-7.0-0.15","g5gefw6uklt3v49","practice_recog","5c791b51eaf40f0001c8f338","5f60e3c0a3b16e07647b2ff9","5f60e9cfbfaddb000828b747","true","566.8850000947714","./Stimuli/ImagesPractice/LM230.jpg","76","","","","test","true","","76","","LM","LM230.jpg","","old","48","3","practice_recog","right","","","",""
"html-keyboard-response","114","349696","0.0-3.0-8.0","g5gefw6uklt3v49","instructions","5c791b51eaf40f0001c8f338","5f60e3c0a3b16e07647b2ff9","5f60e9cfbfaddb000828b747","false","3112.9350000992417","<div align=left> Great!<br><br>Are you ready to continue?<br>If you want to reread the instructions and redo the practice trials, please <br>press „Z“.<br><br>You can proceed when you are ready.<br><br>After the presentation of each object, you will receive an instruction whether to <br>remember or to forget the object.<br>We will test your memory of the following pictures only at the very end of <br>the experiment after all learning blocks are completed. <br><br>Press SPACE to CONTINUE when you are ready. </div>","32","","","","","","","","","","","","","","","","","","","",""
"html-keyboard-response","115","353699","0.0-4.0-0.0","g5gefw6uklt3v49","instructions","5c791b51eaf40f0001c8f338","5f60e3c0a3b16e07647b2ff9","5f60e9cfbfaddb000828b747","false","4001.939999870956","<div align=left> The actual experiment is about to start.<br>The practice trials are over!<br><br>Please always respond both fast and accurately!<br><br>Remember: <br> <br><li> Please place your index fingers on the <strong>'S'</strong> and <strong>'L'</strong> keys <br>to respond as fast and accurately as possible.</li><li> Every picture can be classified as either mechanical or non-mechanical.</li><li> If you do not respond in time or commit an error, you will receive a corresponding feedback.<br> Please try to respond as <strong> fast </strong> and as <strong> accurately as possible </strong>.</li><li> Remember the <span style='color: dodgerblue; font-size: 28px'>O</span> pictures. <br></li><li> Please minimize distractions and stay focused. </li><br><br>Press SPACE to START.</div>","32","","","","","","","","","","","","","","","","","","","",""
"html-keyboard-response","116","354415","0.0-4.0-1.0-0.0","g5gefw6uklt3v49","prime","5c791b51eaf40f0001c8f338","5f60e3c0a3b16e07647b2ff9","5f60e9cfbfaddb000828b747","false","null","<span style=""color: black; font-size: 48px"">N + M</span>","null","","","","resp_prompt","","","","","","","","","","","","","","","",""
"categorize-image","117","354976","0.0-4.0-1.0-1.0","g5gefw6uklt3v49","prime","5c791b51eaf40f0001c8f338","5f60e3c0a3b16e07647b2ff9","5f60e9cfbfaddb000828b747","true","557.2000001557171","./Stimuli/SelectedImages/LM/LM150.bmp","76","","","","test","true","N + M","76","repetition","LM","LM150.bmp","forget","","49","3","prime1","right","","","",""
"html-keyboard-response","118","356985","0.0-4.0-1.0-3.0","g5gefw6uklt3v49","prime","5c791b51eaf40f0001c8f338","5f60e3c0a3b16e07647b2ff9","5f60e9cfbfaddb000828b747","false","null","<div style=""align-items: center; display: flex; color: darkorange; font-size: 90px""><b>ø</b></div>","null","","","","forget_cue","","","","","","","","","","","","","","","",""
"html-keyboard-response","119","357699","0.0-4.0-1.0-0.1","g5gefw6uklt3v49","prime","5c791b51eaf40f0001c8f338","5f60e3c0a3b16e07647b2ff9","5f60e9cfbfaddb000828b747","false","null","<span style=""color: black; font-size: 48px"">N + M</span>","null","","","","resp_prompt","","","","","","","","","","","","","","","",""
"categorize-image","120","358217","0.0-4.0-1.0-1.1","g5gefw6uklt3v49","prime","5c791b51eaf40f0001c8f338","5f60e3c0a3b16e07647b2ff9","5f60e9cfbfaddb000828b747","true","514.9300000630319","./Stimuli/SelectedImages/SN/SN49.bmp","83","","","","test","true","N + M","83","repetition","SN","SN49.bmp","remember","","50","3","prime1","left","","","",""
"html-keyboard-response","121","360228","0.0-4.0-1.0-3.1","g5gefw6uklt3v49","prime","5c791b51eaf40f0001c8f338","5f60e3c0a3b16e07647b2ff9","5f60e9cfbfaddb000828b747","false","null","<div style=""align-items: center; display: flex; color: dodgerblue; font-size: 90px""><b>o</b></div>","null","","","","forget_cue","","","","","","","","","","","","","","","",""
"html-keyboard-response","122","360936","0.0-4.0-1.0-0.2","g5gefw6uklt3v49","prime","5c791b51eaf40f0001c8f338","5f60e3c0a3b16e07647b2ff9","5f60e9cfbfaddb000828b747","false","null","<span style=""color: black; font-size: 48px"">M + N</span>","null","","","","resp_prompt","","","","","","","","","","","","","","","",""
"categorize-image","123","361677","0.0-4.0-1.0-1.2","g5gefw6uklt3v49","prime","5c791b51eaf40f0001c8f338","5f60e3c0a3b16e07647b2ff9","5f60e9cfbfaddb000828b747","true","737.239999929443","./Stimuli/SelectedImages/SM/SM108.bmp","83","","","","test","true","M + N","83","switch","SM","SM108.bmp","remember","","51","3","prime1","left","","","",""
"html-keyboard-response","124","363688","0.0-4.0-1.0-3.2","g5gefw6uklt3v49","prime","5c791b51eaf40f0001c8f338","5f60e3c0a3b16e07647b2ff9","5f60e9cfbfaddb000828b747","false","null","<div style=""align-items: center; display: flex; color: dodgerblue; font-size: 90px""><b>o</b></div>","null","","","","forget_cue","","","","","","","","","","","","","","","",""
"html-keyboard-response","125","364403","0.0-4.0-1.0-0.3","g5gefw6uklt3v49","prime","5c791b51eaf40f0001c8f338","5f60e3c0a3b16e07647b2ff9","5f60e9cfbfaddb000828b747","false","null","<span style=""color: black; font-size: 48px"">N + M</span>","null","","","","resp_prompt","","","","","","","","","","","","","","","",""
"categorize-image","126","365093","0.0-4.0-1.0-1.3","g5gefw6uklt3v49","prime","5c791b51eaf40f0001c8f338","5f60e3c0a3b16e07647b2ff9","5f60e9cfbfaddb000828b747","true","687.3900000937283","./Stimuli/SelectedImages/SN/SN52.bmp","83","","","","test","true","N + M","83","switch","SN","SN52.bmp","forget","","52","3","prime1","left","","","",""
"html-keyboard-response","127","367095","0.0-4.0-1.0-3.3","g5gefw6uklt3v49","prime","5c791b51eaf40f0001c8f338","5f60e3c0a3b16e07647b2ff9","5f60e9cfbfaddb000828b747","false","null","<div style=""align-items: center; display: flex; color: darkorange; font-size: 90px""><b>ø</b></div>","null","","","","forget_cue","","","","","","","","","","","","","","","",""
"html-keyboard-response","128","367798","0.0-4.0-1.0-0.4","g5gefw6uklt3v49","prime","5c791b51eaf40f0001c8f338","5f60e3c0a3b16e07647b2ff9","5f60e9cfbfaddb000828b747","false","null","<span style=""color: black; font-size: 48px"">M + N</span>","null","","","","resp_prompt","","","","","","","","","","","","","","","",""
"categorize-image","129","368443","0.0-4.0-1.0-1.4","g5gefw6uklt3v49","prime","5c791b51eaf40f0001c8f338","5f60e3c0a3b16e07647b2ff9","5f60e9cfbfaddb000828b747","true","642.6099999807775","./Stimuli/SelectedImages/SM/SM73.bmp","83","","","","test","true","M + N","83","repetition","SM","SM73.bmp","forget","","53","3","prime1","left","","","",""
"html-keyboard-response","130","370452","0.0-4.0-1.0-3.4","g5gefw6uklt3v49","prime","5c791b51eaf40f0001c8f338","5f60e3c0a3b16e07647b2ff9","5f60e9cfbfaddb000828b747","false","null","<div style=""align-items: center; display: flex; color: darkorange; font-size: 90px""><b>ø</b></div>","null","","","","forget_cue","","","","","","","","","","","","","","","",""
"html-keyboard-response","131","371166","0.0-4.0-1.0-0.5","g5gefw6uklt3v49","prime","5c791b51eaf40f0001c8f338","5f60e3c0a3b16e07647b2ff9","5f60e9cfbfaddb000828b747","false","null","<span style=""color: black; font-size: 48px"">N + M</span>","null","","","","resp_prompt","","","","","","","","","","","","","","","",""
"categorize-image","132","371720","0.0-4.0-1.0-1.5","g5gefw6uklt3v49","prime","5c791b51eaf40f0001c8f338","5f60e3c0a3b16e07647b2ff9","5f60e9cfbfaddb000828b747","true","550.2599999308586","./Stimuli/SelectedImages/SM/SM195.bmp","83","","","","test","false","N + M","76","switch","SM","SM195.bmp","remember","","54","3","prime1","left","","","",""
"html-keyboard-response","133","372227","0.0-4.0-1.0-2.5-0.5","g5gefw6uklt3v49","prime","5c791b51eaf40f0001c8f338","5f60e3c0a3b16e07647b2ff9","5f60e9cfbfaddb000828b747","false","null","<span style=""color: red; font-size: 48px"">Error!</span>","null","","","","feedback","","","","","","","","","","","","","","","",""
"html-keyboard-response","134","374230","0.0-4.0-1.0-3.5","g5gefw6uklt3v49","prime","5c791b51eaf40f0001c8f338","5f60e3c0a3b16e07647b2ff9","5f60e9cfbfaddb000828b747","false","null","<div style=""align-items: center; display: flex; color: dodgerblue; font-size: 90px""><b>o</b></div>","null","","","","forget_cue","","","","","","","","","","","","","","","",""
"html-keyboard-response","135","374945","0.0-4.0-1.0-0.6","g5gefw6uklt3v49","prime","5c791b51eaf40f0001c8f338","5f60e3c0a3b16e07647b2ff9","5f60e9cfbfaddb000828b747","false","null","<span style=""color: black; font-size: 48px"">N + M</span>","null","","","","resp_prompt","","","","","","","","","","","","","","","",""
"categorize-image","136","375613","0.0-4.0-1.0-1.6","g5gefw6uklt3v49","prime","5c791b51eaf40f0001c8f338","5f60e3c0a3b16e07647b2ff9","5f60e9cfbfaddb000828b747","true","665.1149999815971","./Stimuli/SelectedImages/SN/SN128.bmp","83","","","","test","true","N + M","83","repetition","SN","SN128.bmp","forget","","55","3","prime1","left","","","",""
"html-keyboard-response","137","377630","0.0-4.0-1.0-3.6","g5gefw6uklt3v49","prime","5c791b51eaf40f0001c8f338","5f60e3c0a3b16e07647b2ff9","5f60e9cfbfaddb000828b747","false","null","<div style=""align-items: center; display: flex; color: darkorange; font-size: 90px""><b>ø</b></div>","null","","","","forget_cue","","","","","","","","","","","","","","","",""
"html-keyboard-response","138","378346","0.0-4.0-1.0-0.7","g5gefw6uklt3v49","prime","5c791b51eaf40f0001c8f338","5f60e3c0a3b16e07647b2ff9","5f60e9cfbfaddb000828b747","false","null","<span style=""color: black; font-size: 48px"">N + M</span>","null","","","","resp_prompt","","","","","","","","","","","","","","","",""
"categorize-image","139","378819","0.0-4.0-1.0-1.7","g5gefw6uklt3v49","prime","5c791b51eaf40f0001c8f338","5f60e3c0a3b16e07647b2ff9","5f60e9cfbfaddb000828b747","true","470.4699998255819","./Stimuli/SelectedImages/LM/LM103.bmp","76","","","","test","true","N + M","76","switch","LM","LM103.bmp","forget","","56","3","prime1","right","","","",""
"html-keyboard-response","140","380828","0.0-4.0-1.0-3.7","g5gefw6uklt3v49","prime","5c791b51eaf40f0001c8f338","5f60e3c0a3b16e07647b2ff9","5f60e9cfbfaddb000828b747","false","null","<div style=""align-items: center; display: flex; color: darkorange; font-size: 90px""><b>ø</b></div>","null","","","","forget_cue","","","","","","","","","","","","","","","",""
"html-keyboard-response","141","381543","0.0-4.0-1.0-0.8","g5gefw6uklt3v49","prime","5c791b51eaf40f0001c8f338","5f60e3c0a3b16e07647b2ff9","5f60e9cfbfaddb000828b747","false","null","<span style=""color: black; font-size: 48px"">N + M</span>","null","","","","resp_prompt","","","","","","","","","","","","","","","",""
"categorize-image","142","382041","0.0-4.0-1.0-1.8","g5gefw6uklt3v49","prime","5c791b51eaf40f0001c8f338","5f60e3c0a3b16e07647b2ff9","5f60e9cfbfaddb000828b747","true","493.955000070855","./Stimuli/SelectedImages/SM/SM106.bmp","76","","","","test","true","N + M","76","switch","SM","SM106.bmp","forget","","57","3","prime1","right","","","",""
"html-keyboard-response","143","384049","0.0-4.0-1.0-3.8","g5gefw6uklt3v49","prime","5c791b51eaf40f0001c8f338","5f60e3c0a3b16e07647b2ff9","5f60e9cfbfaddb000828b747","false","null","<div style=""align-items: center; display: flex; color: darkorange; font-size: 90px""><b>ø</b></div>","null","","","","forget_cue","","","","","","","","","","","","","","","",""
"html-keyboard-response","144","384759","0.0-4.0-1.0-0.9","g5gefw6uklt3v49","prime","5c791b51eaf40f0001c8f338","5f60e3c0a3b16e07647b2ff9","5f60e9cfbfaddb000828b747","false","null","<span style=""color: black; font-size: 48px"">N + M</span>","null","","","","resp_prompt","","","","","","","","","","","","","","","",""
"categorize-image","145","385422","0.0-4.0-1.0-1.9","g5gefw6uklt3v49","prime","5c791b51eaf40f0001c8f338","5f60e3c0a3b16e07647b2ff9","5f60e9cfbfaddb000828b747","true","659.7700000274926","./Stimuli/SelectedImages/LN/LN131.bmp","83","","","","test","true","N + M","83","switch","LN","LN131.bmp","remember","","58","3","prime1","left","","","",""
"html-keyboard-response","146","387432","0.0-4.0-1.0-3.9","g5gefw6uklt3v49","prime","5c791b51eaf40f0001c8f338","5f60e3c0a3b16e07647b2ff9","5f60e9cfbfaddb000828b747","false","null","<div style=""align-items: center; display: flex; color: dodgerblue; font-size: 90px""><b>o</b></div>","null","","","","forget_cue","","","","","","","","","","","","","","","",""
"html-keyboard-response","147","388146","0.0-4.0-1.0-0.10","g5gefw6uklt3v49","prime","5c791b51eaf40f0001c8f338","5f60e3c0a3b16e07647b2ff9","5f60e9cfbfaddb000828b747","false","null","<span style=""color: black; font-size: 48px"">N + M</span>","null","","","","resp_prompt","","","","","","","","","","","","","","","",""
"categorize-image","148","388783","0.0-4.0-1.0-1.10","g5gefw6uklt3v49","prime","5c791b51eaf40f0001c8f338","5f60e3c0a3b16e07647b2ff9","5f60e9cfbfaddb000828b747","true","633.8450000621378","./Stimuli/SelectedImages/LN/LN149.bmp","83","","","","test","true","N + M","83","repetition","LN","LN149.bmp","remember","","59","3","prime1","left","","","",""
"html-keyboard-response","149","390794","0.0-4.0-1.0-3.10","g5gefw6uklt3v49","prime","5c791b51eaf40f0001c8f338","5f60e3c0a3b16e07647b2ff9","5f60e9cfbfaddb000828b747","false","null","<div style=""align-items: center; display: flex; color: dodgerblue; font-size: 90px""><b>o</b></div>","null","","","","forget_cue","","","","","","","","","","","","","","","",""
"html-keyboard-response","150","391509","0.0-4.0-1.0-0.11","g5gefw6uklt3v49","prime","5c791b51eaf40f0001c8f338","5f60e3c0a3b16e07647b2ff9","5f60e9cfbfaddb000828b747","false","null","<span style=""color: black; font-size: 48px"">M + N</span>","null","","","","resp_prompt","","","","","","","","","","","","","","","",""
"categorize-image","151","392243","0.0-4.0-1.0-1.11","g5gefw6uklt3v49","prime","5c791b51eaf40f0001c8f338","5f60e3c0a3b16e07647b2ff9","5f60e9cfbfaddb000828b747","true","731.120000127703","./Stimuli/SelectedImages/LN/LN166.bmp","76","","","","test","true","M + N","76","switch","LN","LN166.bmp","forget","","60","3","prime1","right","","","",""
"html-keyboard-response","152","394246","0.0-4.0-1.0-3.11","g5gefw6uklt3v49","prime","5c791b51eaf40f0001c8f338","5f60e3c0a3b16e07647b2ff9","5f60e9cfbfaddb000828b747","false","null","<div style=""align-items: center; display: flex; color: darkorange; font-size: 90px""><b>ø</b></div>","null","","","","forget_cue","","","","","","","","","","","","","","","",""
"html-keyboard-response","153","394957","0.0-4.0-1.0-0.12","g5gefw6uklt3v49","prime","5c791b51eaf40f0001c8f338","5f60e3c0a3b16e07647b2ff9","5f60e9cfbfaddb000828b747","false","null","<span style=""color: black; font-size: 48px"">N + M</span>","null","","","","resp_prompt","","","","","","","","","","","","","","","",""
"categorize-image","154","395604","0.0-4.0-1.0-1.12","g5gefw6uklt3v49","prime","5c791b51eaf40f0001c8f338","5f60e3c0a3b16e07647b2ff9","5f60e9cfbfaddb000828b747","true","643.6299998313189","./Stimuli/SelectedImages/SN/SN182.bmp","83","","","","test","true","N + M","83","switch","SN","SN182.bmp","forget","","61","3","prime1","left","","","",""
"html-keyboard-response","155","397606","0.0-4.0-1.0-3.12","g5gefw6uklt3v49","prime","5c791b51eaf40f0001c8f338","5f60e3c0a3b16e07647b2ff9","5f60e9cfbfaddb000828b747","false","null","<div style=""align-items: center; display: flex; color: darkorange; font-size: 90px""><b>ø</b></div>","null","","","","forget_cue","","","","","","","","","","","","","","","",""
"html-keyboard-response","156","398315","0.0-4.0-1.0-0.13","g5gefw6uklt3v49","prime","5c791b51eaf40f0001c8f338","5f60e3c0a3b16e07647b2ff9","5f60e9cfbfaddb000828b747","false","null","<span style=""color: black; font-size: 48px"">N + M</span>","null","","","","resp_prompt","","","","","","","","","","","","","","","",""
"categorize-image","157","398865","0.0-4.0-1.0-1.13","g5gefw6uklt3v49","prime","5c791b51eaf40f0001c8f338","5f60e3c0a3b16e07647b2ff9","5f60e9cfbfaddb000828b747","true","546.7449999414384","./Stimuli/SelectedImages/LM/LM100.bmp","76","","","","test","true","N + M","76","repetition","LM","LM100.bmp","remember","","62","3","prime1","right","","","",""
"html-keyboard-response","158","400875","0.0-4.0-1.0-3.13","g5gefw6uklt3v49","prime","5c791b51eaf40f0001c8f338","5f60e3c0a3b16e07647b2ff9","5f60e9cfbfaddb000828b747","false","null","<div style=""align-items: center; display: flex; color: dodgerblue; font-size: 90px""><b>o</b></div>","null","","","","forget_cue","","","","","","","","","","","","","","","",""
"html-keyboard-response","159","401591","0.0-4.0-1.0-0.14","g5gefw6uklt3v49","prime","5c791b51eaf40f0001c8f338","5f60e3c0a3b16e07647b2ff9","5f60e9cfbfaddb000828b747","false","null","<span style=""color: black; font-size: 48px"">M + N</span>","null","","","","resp_prompt","","","","","","","","","","","","","","","",""
"categorize-image","160","402340","0.0-4.0-1.0-1.14","g5gefw6uklt3v49","prime","5c791b51eaf40f0001c8f338","5f60e3c0a3b16e07647b2ff9","5f60e9cfbfaddb000828b747","true","745.8799998275936","./Stimuli/SelectedImages/SN/SN64.bmp","76","","","","test","true","M + N","76","switch","SN","SN64.bmp","forget","","63","3","prime1","right","","","",""
"html-keyboard-response","161","404346","0.0-4.0-1.0-3.14","g5gefw6uklt3v49","prime","5c791b51eaf40f0001c8f338","5f60e3c0a3b16e07647b2ff9","5f60e9cfbfaddb000828b747","false","null","<div style=""align-items: center; display: flex; color: darkorange; font-size: 90px""><b>ø</b></div>","null","","","","forget_cue","","","","","","","","","","","","","","","",""
"html-keyboard-response","162","405060","0.0-4.0-1.0-0.15","g5gefw6uklt3v49","prime","5c791b51eaf40f0001c8f338","5f60e3c0a3b16e07647b2ff9","5f60e9cfbfaddb000828b747","false","null","<span style=""color: black; font-size: 48px"">N + M</span>","null","","","","resp_prompt","","","","","","","","","","","","","","","",""
"categorize-image","163","405592","0.0-4.0-1.0-1.15","g5gefw6uklt3v49","prime","5c791b51eaf40f0001c8f338","5f60e3c0a3b16e07647b2ff9","5f60e9cfbfaddb000828b747","true","528.6550000309944","./Stimuli/SelectedImages/SN/SN181.bmp","83","","","","test","true","N + M","83","repetition","SN","SN181.bmp","remember","","64","3","prime1","left","","","",""
"html-keyboard-response","164","407596","0.0-4.0-1.0-3.15","g5gefw6uklt3v49","prime","5c791b51eaf40f0001c8f338","5f60e3c0a3b16e07647b2ff9","5f60e9cfbfaddb000828b747","false","null","<div style=""align-items: center; display: flex; color: dodgerblue; font-size: 90px""><b>o</b></div>","null","","","","forget_cue","","","","","","","","","","","","","","","",""
"html-keyboard-response","165","408300","0.0-4.0-1.0-0.16","g5gefw6uklt3v49","prime","5c791b51eaf40f0001c8f338","5f60e3c0a3b16e07647b2ff9","5f60e9cfbfaddb000828b747","false","null","<span style=""color: black; font-size: 48px"">N + M</span>","null","","","","resp_prompt","","","","","","","","","","","","","","","",""
"categorize-image","166","409167","0.0-4.0-1.0-1.16","g5gefw6uklt3v49","prime","5c791b51eaf40f0001c8f338","5f60e3c0a3b16e07647b2ff9","5f60e9cfbfaddb000828b747","true","863.9549999497831","./Stimuli/SelectedImages/SM/SM184.bmp","76","","","","test","true","N + M","76","repetition","SM","SM184.bmp","forget","","65","3","prime1","right","","","",""
"html-keyboard-response","167","411177","0.0-4.0-1.0-3.16","g5gefw6uklt3v49","prime","5c791b51eaf40f0001c8f338","5f60e3c0a3b16e07647b2ff9","5f60e9cfbfaddb000828b747","false","null","<div style=""align-items: center; display: flex; color: darkorange; font-size: 90px""><b>ø</b></div>","null","","","","forget_cue","","","","","","","","","","","","","","","",""
"html-keyboard-response","168","411887","0.0-4.0-1.0-0.17","g5gefw6uklt3v49","prime","5c791b51eaf40f0001c8f338","5f60e3c0a3b16e07647b2ff9","5f60e9cfbfaddb000828b747","false","null","<span style=""color: black; font-size: 48px"">M + N</span>","null","","","","resp_prompt","","","","","","","","","","","","","","","",""
"categorize-image","169","412394","0.0-4.0-1.0-1.17","g5gefw6uklt3v49","prime","5c791b51eaf40f0001c8f338","5f60e3c0a3b16e07647b2ff9","5f60e9cfbfaddb000828b747","true","502.85999989137053","./Stimuli/SelectedImages/SN/SN240.bmp","76","","","","test","true","M + N","76","repetition","SN","SN240.bmp","forget","","66","3","prime1","right","","","",""
"html-keyboard-response","170","414409","0.0-4.0-1.0-3.17","g5gefw6uklt3v49","prime","5c791b51eaf40f0001c8f338","5f60e3c0a3b16e07647b2ff9","5f60e9cfbfaddb000828b747","false","null","<div style=""align-items: center; display: flex; color: darkorange; font-size: 90px""><b>ø</b></div>","null","","","","forget_cue","","","","","","","","","","","","","","","",""
"html-keyboard-response","171","415110","0.0-4.0-1.0-0.18","g5gefw6uklt3v49","prime","5c791b51eaf40f0001c8f338","5f60e3c0a3b16e07647b2ff9","5f60e9cfbfaddb000828b747","false","null","<span style=""color: black; font-size: 48px"">N + M</span>","null","","","","resp_prompt","","","","","","","","","","","","","","","",""
"categorize-image","172","415764","0.0-4.0-1.0-1.18","g5gefw6uklt3v49","prime","5c791b51eaf40f0001c8f338","5f60e3c0a3b16e07647b2ff9","5f60e9cfbfaddb000828b747","true","650.9899999946356","./Stimuli/SelectedImages/SM/SM205.bmp","76","","","","test","true","N + M","76","repetition","SM","SM205.bmp","remember","","67","3","prime1","right","","","",""
"html-keyboard-response","173","417772","0.0-4.0-1.0-3.18","g5gefw6uklt3v49","prime","5c791b51eaf40f0001c8f338","5f60e3c0a3b16e07647b2ff9","5f60e9cfbfaddb000828b747","false","null","<div style=""align-items: center; display: flex; color: dodgerblue; font-size: 90px""><b>o</b></div>","null","","","","forget_cue","","","","","","","","","","","","","","","",""
"html-keyboard-response","174","418488","0.0-4.0-1.0-0.19","g5gefw6uklt3v49","prime","5c791b51eaf40f0001c8f338","5f60e3c0a3b16e07647b2ff9","5f60e9cfbfaddb000828b747","false","null","<span style=""color: black; font-size: 48px"">M + N</span>","null","","","","resp_prompt","","","","","","","","","","","","","","","",""
"categorize-image","175","419135","0.0-4.0-1.0-1.19","g5gefw6uklt3v49","prime","5c791b51eaf40f0001c8f338","5f60e3c0a3b16e07647b2ff9","5f60e9cfbfaddb000828b747","true","644.3699998781085","./Stimuli/SelectedImages/SM/SM17.bmp","83","","","","test","true","M + N","83","switch","SM","SM17.bmp","forget","","68","3","prime1","left","","","",""
"html-keyboard-response","176","421151","0.0-4.0-1.0-3.19","g5gefw6uklt3v49","prime","5c791b51eaf40f0001c8f338","5f60e3c0a3b16e07647b2ff9","5f60e9cfbfaddb000828b747","false","null","<div style=""align-items: center; display: flex; color: darkorange; font-size: 90px""><b>ø</b></div>","null","","","","forget_cue","","","","","","","","","","","","","","","",""
"html-keyboard-response","177","421855","0.0-4.0-1.0-0.20","g5gefw6uklt3v49","prime","5c791b51eaf40f0001c8f338","5f60e3c0a3b16e07647b2ff9","5f60e9cfbfaddb000828b747","false","null","<span style=""color: black; font-size: 48px"">N + M</span>","null","","","","resp_prompt","","","","","","","","","","","","","","","",""
"categorize-image","178","422745","0.0-4.0-1.0-1.20","g5gefw6uklt3v49","prime","5c791b51eaf40f0001c8f338","5f60e3c0a3b16e07647b2ff9","5f60e9cfbfaddb000828b747","true","886.8599999696016","./Stimuli/SelectedImages/SM/SM74.bmp","76","","","","test","true","N + M","76","repetition","SM","SM74.bmp","forget","","69","3","prime1","right","","","",""
"html-keyboard-response","179","424751","0.0-4.0-1.0-3.20","g5gefw6uklt3v49","prime","5c791b51eaf40f0001c8f338","5f60e3c0a3b16e07647b2ff9","5f60e9cfbfaddb000828b747","false","null","<div style=""align-items: center; display: flex; color: darkorange; font-size: 90px""><b>ø</b></div>","null","","","","forget_cue","","","","","","","","","","","","","","","",""
"html-keyboard-response","180","425453","0.0-4.0-1.0-0.21","g5gefw6uklt3v49","prime","5c791b51eaf40f0001c8f338","5f60e3c0a3b16e07647b2ff9","5f60e9cfbfaddb000828b747","false","null","<span style=""color: black; font-size: 48px"">M + N</span>","null","","","","resp_prompt","","","","","","","","","","","","","","","",""
"categorize-image","181","426105","0.0-4.0-1.0-1.21","g5gefw6uklt3v49","prime","5c791b51eaf40f0001c8f338","5f60e3c0a3b16e07647b2ff9","5f60e9cfbfaddb000828b747","true","649.3449998088181","./Stimuli/SelectedImages/SN/SN111.bmp","76","","","","test","true","M + N","76","repetition","SN","SN111.bmp","remember","","70","3","prime1","right","","","",""
"html-keyboard-response","182","428120","0.0-4.0-1.0-3.21","g5gefw6uklt3v49","prime","5c791b51eaf40f0001c8f338","5f60e3c0a3b16e07647b2ff9","5f60e9cfbfaddb000828b747","false","null","<div style=""align-items: center; display: flex; color: dodgerblue; font-size: 90px""><b>o</b></div>","null","","","","forget_cue","","","","","","","","","","","","","","","",""
"html-keyboard-response","183","428833","0.0-4.0-1.0-0.22","g5gefw6uklt3v49","prime","5c791b51eaf40f0001c8f338","5f60e3c0a3b16e07647b2ff9","5f60e9cfbfaddb000828b747","false","null","<span style=""color: black; font-size: 48px"">M + N</span>","null","","","","resp_prompt","","","","","","","","","","","","","","","",""
"categorize-image","184","429462","0.0-4.0-1.0-1.22","g5gefw6uklt3v49","prime","5c791b51eaf40f0001c8f338","5f60e3c0a3b16e07647b2ff9","5f60e9cfbfaddb000828b747","true","626.2699998915195","./Stimuli/SelectedImages/SN/SN18.bmp","76","","","","test","true","M + N","76","switch","SN","SN18.bmp","remember","","71","3","prime1","right","","","",""
"html-keyboard-response","185","431478","0.0-4.0-1.0-3.22","g5gefw6uklt3v49","prime","5c791b51eaf40f0001c8f338","5f60e3c0a3b16e07647b2ff9","5f60e9cfbfaddb000828b747","false","null","<div style=""align-items: center; display: flex; color: dodgerblue; font-size: 90px""><b>o</b></div>","null","","","","forget_cue","","","","","","","","","","","","","","","",""
"html-keyboard-response","186","432190","0.0-4.0-1.0-0.23","g5gefw6uklt3v49","prime","5c791b51eaf40f0001c8f338","5f60e3c0a3b16e07647b2ff9","5f60e9cfbfaddb000828b747","false","null","<span style=""color: black; font-size: 48px"">N + M</span>","null","","","","resp_prompt","","","","","","","","","","","","","","","",""
"categorize-image","187","432718","0.0-4.0-1.0-1.23","g5gefw6uklt3v49","prime","5c791b51eaf40f0001c8f338","5f60e3c0a3b16e07647b2ff9","5f60e9cfbfaddb000828b747","true","524.585000006482","./Stimuli/SelectedImages/SN/SN60.bmp","83","","","","test","true","N + M","83","switch","SN","SN60.bmp","remember","","72","3","prime1","left","","","",""
"html-keyboard-response","188","434729","0.0-4.0-1.0-3.23","g5gefw6uklt3v49","prime","5c791b51eaf40f0001c8f338","5f60e3c0a3b16e07647b2ff9","5f60e9cfbfaddb000828b747","false","null","<div style=""align-items: center; display: flex; color: dodgerblue; font-size: 90px""><b>o</b></div>","null","","","","forget_cue","","","","","","","","","","","","","","","",""
"html-keyboard-response","189","435438","0.0-4.0-1.0-0.24","g5gefw6uklt3v49","prime","5c791b51eaf40f0001c8f338","5f60e3c0a3b16e07647b2ff9","5f60e9cfbfaddb000828b747","false","null","<span style=""color: black; font-size: 48px"">M + N</span>","null","","","","resp_prompt","","","","","","","","","","","","","","","",""
"categorize-image","190","436138","0.0-4.0-1.0-1.24","g5gefw6uklt3v49","prime","5c791b51eaf40f0001c8f338","5f60e3c0a3b16e07647b2ff9","5f60e9cfbfaddb000828b747","true","697.2649998497218","./Stimuli/SelectedImages/LM/LM129.bmp","83","","","","test","true","M + N","83","switch","LM","LM129.bmp","forget","","73","3","prime1","left","","","",""
"html-keyboard-response","191","438152","0.0-4.0-1.0-3.24","g5gefw6uklt3v49","prime","5c791b51eaf40f0001c8f338","5f60e3c0a3b16e07647b2ff9","5f60e9cfbfaddb000828b747","false","null","<div style=""align-items: center; display: flex; color: darkorange; font-size: 90px""><b>ø</b></div>","null","","","","forget_cue","","","","","","","","","","","","","","","",""
"html-keyboard-response","192","438865","0.0-4.0-1.0-0.25","g5gefw6uklt3v49","prime","5c791b51eaf40f0001c8f338","5f60e3c0a3b16e07647b2ff9","5f60e9cfbfaddb000828b747","false","null","<span style=""color: black; font-size: 48px"">M + N</span>","null","","","","resp_prompt","","","","","","","","","","","","","","","",""
"categorize-image","193","439674","0.0-4.0-1.0-1.25","g5gefw6uklt3v49","prime","5c791b51eaf40f0001c8f338","5f60e3c0a3b16e07647b2ff9","5f60e9cfbfaddb000828b747","true","805.3699999582022","./Stimuli/SelectedImages/LM/LM235.bmp","83","","","","test","true","M + N","83","switch","LM","LM235.bmp","forget","","74","3","prime1","left","","","",""
"html-keyboard-response","194","441678","0.0-4.0-1.0-3.25","g5gefw6uklt3v49","prime","5c791b51eaf40f0001c8f338","5f60e3c0a3b16e07647b2ff9","5f60e9cfbfaddb000828b747","false","null","<div style=""align-items: center; display: flex; color: darkorange; font-size: 90px""><b>ø</b></div>","null","","","","forget_cue","","","","","","","","","","","","","","","",""
"html-keyboard-response","195","442388","0.0-4.0-1.0-0.26","g5gefw6uklt3v49","prime","5c791b51eaf40f0001c8f338","5f60e3c0a3b16e07647b2ff9","5f60e9cfbfaddb000828b747","false","null","<span style=""color: black; font-size: 48px"">M + N</span>","null","","","","resp_prompt","","","","","","","","","","","","","","","",""
"categorize-image","196","443020","0.0-4.0-1.0-1.26","g5gefw6uklt3v49","prime","5c791b51eaf40f0001c8f338","5f60e3c0a3b16e07647b2ff9","5f60e9cfbfaddb000828b747","true","628.4049998503178","./Stimuli/SelectedImages/LN/LN111.bmp","76","","","","test","true","M + N","76","repetition","LN","LN111.bmp","remember","","75","3","prime1","right","","","",""
"html-keyboard-response","197","445035","0.0-4.0-1.0-3.26","g5gefw6uklt3v49","prime","5c791b51eaf40f0001c8f338","5f60e3c0a3b16e07647b2ff9","5f60e9cfbfaddb000828b747","false","null","<div style=""align-items: center; display: flex; color: dodgerblue; font-size: 90px""><b>o</b></div>","null","","","","forget_cue","","","","","","","","","","","","","","","",""
"html-keyboard-response","198","445742","0.0-4.0-1.0-0.27","g5gefw6uklt3v49","prime","5c791b51eaf40f0001c8f338","5f60e3c0a3b16e07647b2ff9","5f60e9cfbfaddb000828b747","false","null","<span style=""color: black; font-size: 48px"">M + N</span>","null","","","","resp_prompt","","","","","","","","","","","","","","","",""
"categorize-image","199","446186","0.0-4.0-1.0-1.27","g5gefw6uklt3v49","prime","5c791b51eaf40f0001c8f338","5f60e3c0a3b16e07647b2ff9","5f60e9cfbfaddb000828b747","true","440.5999998562038","./Stimuli/SelectedImages/LM/LM179.bmp","83","","","","test","true","M + N","83","switch","LM","LM179.bmp","remember","","76","3","prime1","left","","","",""
"html-keyboard-response","200","448193","0.0-4.0-1.0-3.27","g5gefw6uklt3v49","prime","5c791b51eaf40f0001c8f338","5f60e3c0a3b16e07647b2ff9","5f60e9cfbfaddb000828b747","false","null","<div style=""align-items: center; display: flex; color: dodgerblue; font-size: 90px""><b>o</b></div>","null","","","","forget_cue","","","","","","","","","","","","","","","",""
"html-keyboard-response","201","448899","0.0-4.0-1.0-0.28","g5gefw6uklt3v49","prime","5c791b51eaf40f0001c8f338","5f60e3c0a3b16e07647b2ff9","5f60e9cfbfaddb000828b747","false","null","<span style=""color: black; font-size: 48px"">N + M</span>","null","","","","resp_prompt","","","","","","","","","","","","","","","",""
"categorize-image","202","449641","0.0-4.0-1.0-1.28","g5gefw6uklt3v49","prime","5c791b51eaf40f0001c8f338","5f60e3c0a3b16e07647b2ff9","5f60e9cfbfaddb000828b747","true","739.229999948293","./Stimuli/SelectedImages/LM/LM75.bmp","76","","","","test","true","N + M","76","switch","LM","LM75.bmp","remember","","77","3","prime1","right","","","",""
"html-keyboard-response","203","451644","0.0-4.0-1.0-3.28","g5gefw6uklt3v49","prime","5c791b51eaf40f0001c8f338","5f60e3c0a3b16e07647b2ff9","5f60e9cfbfaddb000828b747","false","null","<div style=""align-items: center; display: flex; color: dodgerblue; font-size: 90px""><b>o</b></div>","null","","","","forget_cue","","","","","","","","","","","","","","","",""
"html-keyboard-response","204","452348","0.0-4.0-1.0-0.29","g5gefw6uklt3v49","prime","5c791b51eaf40f0001c8f338","5f60e3c0a3b16e07647b2ff9","5f60e9cfbfaddb000828b747","false","null","<span style=""color: black; font-size: 48px"">M + N</span>","null","","","","resp_prompt","","","","","","","","","","","","","","","",""
"categorize-image","205","452992","0.0-4.0-1.0-1.29","g5gefw6uklt3v49","prime","5c791b51eaf40f0001c8f338","5f60e3c0a3b16e07647b2ff9","5f60e9cfbfaddb000828b747","true","640.190000180155","./Stimuli/SelectedImages/LM/LM58.bmp","83","","","","test","true","M + N","83","repetition","LM","LM58.bmp","remember","","78","3","prime1","left","","","",""
"html-keyboard-response","206","455005","0.0-4.0-1.0-3.29","g5gefw6uklt3v49","prime","5c791b51eaf40f0001c8f338","5f60e3c0a3b16e07647b2ff9","5f60e9cfbfaddb000828b747","false","null","<div style=""align-items: center; display: flex; color: dodgerblue; font-size: 90px""><b>o</b></div>","null","","","","forget_cue","","","","","","","","","","","","","","","",""
"html-keyboard-response","207","455713","0.0-4.0-1.0-0.30","g5gefw6uklt3v49","prime","5c791b51eaf40f0001c8f338","5f60e3c0a3b16e07647b2ff9","5f60e9cfbfaddb000828b747","false","null","<span style=""color: black; font-size: 48px"">M + N</span>","null","","","","resp_prompt","","","","","","","","","","","","","","","",""
"categorize-image","208","456323","0.0-4.0-1.0-1.30","g5gefw6uklt3v49","prime","5c791b51eaf40f0001c8f338","5f60e3c0a3b16e07647b2ff9","5f60e9cfbfaddb000828b747","true","606.6300000529736","./Stimuli/SelectedImages/SN/SN187.bmp","76","","","","test","true","M + N","76","repetition","SN","SN187.bmp","remember","","79","3","prime1","right","","","",""
"html-keyboard-response","209","458330","0.0-4.0-1.0-3.30","g5gefw6uklt3v49","prime","5c791b51eaf40f0001c8f338","5f60e3c0a3b16e07647b2ff9","5f60e9cfbfaddb000828b747","false","null","<div style=""align-items: center; display: flex; color: dodgerblue; font-size: 90px""><b>o</b></div>","null","","","","forget_cue","","","","","","","","","","","","","","","",""
"html-keyboard-response","210","459034","0.0-4.0-1.0-0.31","g5gefw6uklt3v49","prime","5c791b51eaf40f0001c8f338","5f60e3c0a3b16e07647b2ff9","5f60e9cfbfaddb000828b747","false","null","<span style=""color: black; font-size: 48px"">M + N</span>","null","","","","resp_prompt","","","","","","","","","","","","","","","",""
"categorize-image","211","459649","0.0-4.0-1.0-1.31","g5gefw6uklt3v49","prime","5c791b51eaf40f0001c8f338","5f60e3c0a3b16e07647b2ff9","5f60e9cfbfaddb000828b747","true","611.524999840185","./Stimuli/SelectedImages/SN/SN93.bmp","76","","","","test","true","M + N","76","switch","SN","SN93.bmp","remember","","80","3","prime1","right","","","",""
"html-keyboard-response","212","461663","0.0-4.0-1.0-3.31","g5gefw6uklt3v49","prime","5c791b51eaf40f0001c8f338","5f60e3c0a3b16e07647b2ff9","5f60e9cfbfaddb000828b747","false","null","<div style=""align-items: center; display: flex; color: dodgerblue; font-size: 90px""><b>o</b></div>","null","","","","forget_cue","","","","","","","","","","","","","","","",""
"html-keyboard-response","213","462366","0.0-4.0-1.0-0.32","g5gefw6uklt3v49","prime","5c791b51eaf40f0001c8f338","5f60e3c0a3b16e07647b2ff9","5f60e9cfbfaddb000828b747","false","null","<span style=""color: black; font-size: 48px"">N + M</span>","null","","","","resp_prompt","","","","","","","","","","","","","","","",""
"categorize-image","214","463189","0.0-4.0-1.0-1.32","g5gefw6uklt3v49","prime","5c791b51eaf40f0001c8f338","5f60e3c0a3b16e07647b2ff9","5f60e9cfbfaddb000828b747","true","818.7499998603016","./Stimuli/SelectedImages/LN/LN59.bmp","83","","","","test","true","N + M","83","repetition","LN","LN59.bmp","remember","","81","3","prime1","left","","","",""
"html-keyboard-response","215","465194","0.0-4.0-1.0-3.32","g5gefw6uklt3v49","prime","5c791b51eaf40f0001c8f338","5f60e3c0a3b16e07647b2ff9","5f60e9cfbfaddb000828b747","false","null","<div style=""align-items: center; display: flex; color: dodgerblue; font-size: 90px""><b>o</b></div>","null","","","","forget_cue","","","","","","","","","","","","","","","",""
"html-keyboard-response","216","465910","0.0-4.0-1.0-0.33","g5gefw6uklt3v49","prime","5c791b51eaf40f0001c8f338","5f60e3c0a3b16e07647b2ff9","5f60e9cfbfaddb000828b747","false","null","<span style=""color: black; font-size: 48px"">N + M</span>","null","","","","resp_prompt","","","","","","","","","","","","","","","",""
"categorize-image","217","466600","0.0-4.0-1.0-1.33","g5gefw6uklt3v49","prime","5c791b51eaf40f0001c8f338","5f60e3c0a3b16e07647b2ff9","5f60e9cfbfaddb000828b747","true","686.1199999693781","./Stimuli/SelectedImages/LN/LN28.bmp","83","","","","test","true","N + M","83","repetition","LN","LN28.bmp","forget","","82","3","prime1","left","","","",""
"html-keyboard-response","218","468608","0.0-4.0-1.0-3.33","g5gefw6uklt3v49","prime","5c791b51eaf40f0001c8f338","5f60e3c0a3b16e07647b2ff9","5f60e9cfbfaddb000828b747","false","null","<div style=""align-items: center; display: flex; color: darkorange; font-size: 90px""><b>ø</b></div>","null","","","","forget_cue","","","","","","","","","","","","","","","",""
"html-keyboard-response","219","469310","0.0-4.0-1.0-0.34","g5gefw6uklt3v49","prime","5c791b51eaf40f0001c8f338","5f60e3c0a3b16e07647b2ff9","5f60e9cfbfaddb000828b747","false","null","<span style=""color: black; font-size: 48px"">N + M</span>","null","","","","resp_prompt","","","","","","","","","","","","","","","",""
"categorize-image","220","469910","0.0-4.0-1.0-1.34","g5gefw6uklt3v49","prime","5c791b51eaf40f0001c8f338","5f60e3c0a3b16e07647b2ff9","5f60e9cfbfaddb000828b747","true","596.699999878183","./Stimuli/SelectedImages/LM/LM216.bmp","76","","","","test","true","N + M","76","repetition","LM","LM216.bmp","remember","","83","3","prime1","right","","","",""
"html-keyboard-response","221","471913","0.0-4.0-1.0-3.34","g5gefw6uklt3v49","prime","5c791b51eaf40f0001c8f338","5f60e3c0a3b16e07647b2ff9","5f60e9cfbfaddb000828b747","false","null","<div style=""align-items: center; display: flex; color: dodgerblue; font-size: 90px""><b>o</b></div>","null","","","","forget_cue","","","","","","","","","","","","","","","",""
"html-keyboard-response","222","472625","0.0-4.0-1.0-0.35","g5gefw6uklt3v49","prime","5c791b51eaf40f0001c8f338","5f60e3c0a3b16e07647b2ff9","5f60e9cfbfaddb000828b747","false","null","<span style=""color: black; font-size: 48px"">M + N</span>","null","","","","resp_prompt","","","","","","","","","","","","","","","",""
"categorize-image","223","473241","0.0-4.0-1.0-1.35","g5gefw6uklt3v49","prime","5c791b51eaf40f0001c8f338","5f60e3c0a3b16e07647b2ff9","5f60e9cfbfaddb000828b747","true","613.1949999835342","./Stimuli/SelectedImages/SM/SM200.bmp","83","","","","test","true","M + N","83","switch","SM","SM200.bmp","forget","","84","3","prime1","left","","","",""
"html-keyboard-response","224","475245","0.0-4.0-1.0-3.35","g5gefw6uklt3v49","prime","5c791b51eaf40f0001c8f338","5f60e3c0a3b16e07647b2ff9","5f60e9cfbfaddb000828b747","false","null","<div style=""align-items: center; display: flex; color: darkorange; font-size: 90px""><b>ø</b></div>","null","","","","forget_cue","","","","","","","","","","","","","","","",""
"html-keyboard-response","225","475958","0.0-4.0-1.0-0.36","g5gefw6uklt3v49","prime","5c791b51eaf40f0001c8f338","5f60e3c0a3b16e07647b2ff9","5f60e9cfbfaddb000828b747","false","null","<span style=""color: black; font-size: 48px"">N + M</span>","null","","","","resp_prompt","","","","","","","","","","","","","","","",""
"categorize-image","226","476602","0.0-4.0-1.0-1.36","g5gefw6uklt3v49","prime","5c791b51eaf40f0001c8f338","5f60e3c0a3b16e07647b2ff9","5f60e9cfbfaddb000828b747","true","640.479999827221","./Stimuli/SelectedImages/LN/LN12.bmp","83","","","","test","true","N + M","83","switch","LN","LN12.bmp","remember","","85","3","prime1","left","","","",""
"html-keyboard-response","227","478612","0.0-4.0-1.0-3.36","g5gefw6uklt3v49","prime","5c791b51eaf40f0001c8f338","5f60e3c0a3b16e07647b2ff9","5f60e9cfbfaddb000828b747","false","null","<div style=""align-items: center; display: flex; color: dodgerblue; font-size: 90px""><b>o</b></div>","null","","","","forget_cue","","","","","","","","","","","","","","","",""
"html-keyboard-response","228","479324","0.0-4.0-1.0-0.37","g5gefw6uklt3v49","prime","5c791b51eaf40f0001c8f338","5f60e3c0a3b16e07647b2ff9","5f60e9cfbfaddb000828b747","false","null","<span style=""color: black; font-size: 48px"">M + N</span>","null","","","","resp_prompt","","","","","","","","","","","","","","","",""
"categorize-image","229","479953","0.0-4.0-1.0-1.37","g5gefw6uklt3v49","prime","5c791b51eaf40f0001c8f338","5f60e3c0a3b16e07647b2ff9","5f60e9cfbfaddb000828b747","true","626.2699998915195","./Stimuli/SelectedImages/SM/SM24.bmp","83","","","","test","true","M + N","83","repetition","SM","SM24.bmp","remember","","86","3","prime1","left","","","",""
"html-keyboard-response","230","481965","0.0-4.0-1.0-3.37","g5gefw6uklt3v49","prime","5c791b51eaf40f0001c8f338","5f60e3c0a3b16e07647b2ff9","5f60e9cfbfaddb000828b747","false","null","<div style=""align-items: center; display: flex; color: dodgerblue; font-size: 90px""><b>o</b></div>","null","","","","forget_cue","","","","","","","","","","","","","","","",""
"html-keyboard-response","231","482681","0.0-4.0-1.0-0.38","g5gefw6uklt3v49","prime","5c791b51eaf40f0001c8f338","5f60e3c0a3b16e07647b2ff9","5f60e9cfbfaddb000828b747","false","null","<span style=""color: black; font-size: 48px"">M + N</span>","null","","","","resp_prompt","","","","","","","","","","","","","","","",""
"categorize-image","232","483219","0.0-4.0-1.0-1.38","g5gefw6uklt3v49","prime","5c791b51eaf40f0001c8f338","5f60e3c0a3b16e07647b2ff9","5f60e9cfbfaddb000828b747","true","534.6450000070035","./Stimuli/SelectedImages/LN/LN13.bmp","76","","","","test","true","M + N","76","repetition","LN","LN13.bmp","forget","","87","3","prime1","right","","","",""
"html-keyboard-response","233","485232","0.0-4.0-1.0-3.38","g5gefw6uklt3v49","prime","5c791b51eaf40f0001c8f338","5f60e3c0a3b16e07647b2ff9","5f60e9cfbfaddb000828b747","false","null","<div style=""align-items: center; display: flex; color: darkorange; font-size: 90px""><b>ø</b></div>","null","","","","forget_cue","","","","","","","","","","","","","","","",""
"html-keyboard-response","234","485946","0.0-4.0-1.0-0.39","g5gefw6uklt3v49","prime","5c791b51eaf40f0001c8f338","5f60e3c0a3b16e07647b2ff9","5f60e9cfbfaddb000828b747","false","null","<span style=""color: black; font-size: 48px"">N + M</span>","null","","","","resp_prompt","","","","","","","","","","","","","","","",""
"categorize-image","235","486590","0.0-4.0-1.0-1.39","g5gefw6uklt3v49","prime","5c791b51eaf40f0001c8f338","5f60e3c0a3b16e07647b2ff9","5f60e9cfbfaddb000828b747","true","640.6449999194592","./Stimuli/SelectedImages/SM/SM207.bmp","76","","","","test","true","N + M","76","switch","SM","SM207.bmp","remember","","88","3","prime1","right","","","",""
"html-keyboard-response","236","488599","0.0-4.0-1.0-3.39","g5gefw6uklt3v49","prime","5c791b51eaf40f0001c8f338","5f60e3c0a3b16e07647b2ff9","5f60e9cfbfaddb000828b747","false","null","<div style=""align-items: center; display: flex; color: dodgerblue; font-size: 90px""><b>o</b></div>","null","","","","forget_cue","","","","","","","","","","","","","","","",""
"html-keyboard-response","237","489308","0.0-4.0-1.0-0.40","g5gefw6uklt3v49","prime","5c791b51eaf40f0001c8f338","5f60e3c0a3b16e07647b2ff9","5f60e9cfbfaddb000828b747","false","null","<span style=""color: black; font-size: 48px"">M + N</span>","null","","","","resp_prompt","","","","","","","","","","","","","","","",""
"categorize-image","238","489925","0.0-4.0-1.0-1.40","g5gefw6uklt3v49","prime","5c791b51eaf40f0001c8f338","5f60e3c0a3b16e07647b2ff9","5f60e9cfbfaddb000828b747","true","614.4799999892712","./Stimuli/SelectedImages/SM/SM76.bmp","83","","","","test","true","M + N","83","repetition","SM","SM76.bmp","remember","","89","3","prime1","left","","","",""
"html-keyboard-response","239","491936","0.0-4.0-1.0-3.40","g5gefw6uklt3v49","prime","5c791b51eaf40f0001c8f338","5f60e3c0a3b16e07647b2ff9","5f60e9cfbfaddb000828b747","false","null","<div style=""align-items: center; display: flex; color: dodgerblue; font-size: 90px""><b>o</b></div>","null","","","","forget_cue","","","","","","","","","","","","","","","",""
"html-keyboard-response","240","492653","0.0-4.0-1.0-0.41","g5gefw6uklt3v49","prime","5c791b51eaf40f0001c8f338","5f60e3c0a3b16e07647b2ff9","5f60e9cfbfaddb000828b747","false","null","<span style=""color: black; font-size: 48px"">N + M</span>","null","","","","resp_prompt","","","","","","","","","","","","","","","",""
"categorize-image","241","493526","0.0-4.0-1.0-1.41","g5gefw6uklt3v49","prime","5c791b51eaf40f0001c8f338","5f60e3c0a3b16e07647b2ff9","5f60e9cfbfaddb000828b747","true","869.2650001030415","./Stimuli/SelectedImages/LM/LM209.bmp","83","","","","test","false","N + M","76","switch","LM","LM209.bmp","remember","","90","3","prime1","left","","","",""
"html-keyboard-response","242","494036","0.0-4.0-1.0-2.41-0.41","g5gefw6uklt3v49","prime","5c791b51eaf40f0001c8f338","5f60e3c0a3b16e07647b2ff9","5f60e9cfbfaddb000828b747","false","null","<span style=""color: red; font-size: 48px"">Error!</span>","null","","","","feedback","","","","","","","","","","","","","","","",""
"html-keyboard-response","243","496044","0.0-4.0-1.0-3.41","g5gefw6uklt3v49","prime","5c791b51eaf40f0001c8f338","5f60e3c0a3b16e07647b2ff9","5f60e9cfbfaddb000828b747","false","null","<div style=""align-items: center; display: flex; color: dodgerblue; font-size: 90px""><b>o</b></div>","null","","","","forget_cue","","","","","","","","","","","","","","","",""
"html-keyboard-response","244","496758","0.0-4.0-1.0-0.42","g5gefw6uklt3v49","prime","5c791b51eaf40f0001c8f338","5f60e3c0a3b16e07647b2ff9","5f60e9cfbfaddb000828b747","false","null","<span style=""color: black; font-size: 48px"">N + M</span>","null","","","","resp_prompt","","","","","","","","","","","","","","","",""
"categorize-image","245","497419","0.0-4.0-1.0-1.42","g5gefw6uklt3v49","prime","5c791b51eaf40f0001c8f338","5f60e3c0a3b16e07647b2ff9","5f60e9cfbfaddb000828b747","true","657.6300000306219","./Stimuli/SelectedImages/LM/LM59.bmp","76","","","","test","true","N + M","76","repetition","LM","LM59.bmp","forget","","91","3","prime1","right","","","",""
"html-keyboard-response","246","499420","0.0-4.0-1.0-3.42","g5gefw6uklt3v49","prime","5c791b51eaf40f0001c8f338","5f60e3c0a3b16e07647b2ff9","5f60e9cfbfaddb000828b747","false","null","<div style=""align-items: center; display: flex; color: darkorange; font-size: 90px""><b>ø</b></div>","null","","","","forget_cue","","","","","","","","","","","","","","","",""
"html-keyboard-response","247","500136","0.0-4.0-1.0-0.43","g5gefw6uklt3v49","prime","5c791b51eaf40f0001c8f338","5f60e3c0a3b16e07647b2ff9","5f60e9cfbfaddb000828b747","false","null","<span style=""color: black; font-size: 48px"">M + N</span>","null","","","","resp_prompt","","","","","","","","","","","","","","","",""
"categorize-image","248","500830","0.0-4.0-1.0-1.43","g5gefw6uklt3v49","prime","5c791b51eaf40f0001c8f338","5f60e3c0a3b16e07647b2ff9","5f60e9cfbfaddb000828b747","true","690.595000050962","./Stimuli/SelectedImages/LM/LM167.bmp","83","","","","test","true","M + N","83","repetition","LM","LM167.bmp","forget","","92","3","prime1","left","","","",""
"html-keyboard-response","249","502835","0.0-4.0-1.0-3.43","g5gefw6uklt3v49","prime","5c791b51eaf40f0001c8f338","5f60e3c0a3b16e07647b2ff9","5f60e9cfbfaddb000828b747","false","null","<div style=""align-items: center; display: flex; color: darkorange; font-size: 90px""><b>ø</b></div>","null","","","","forget_cue","","","","","","","","","","","","","","","",""
"html-keyboard-response","250","503552","0.0-4.0-1.0-0.44","g5gefw6uklt3v49","prime","5c791b51eaf40f0001c8f338","5f60e3c0a3b16e07647b2ff9","5f60e9cfbfaddb000828b747","false","null","<span style=""color: black; font-size: 48px"">N + M</span>","null","","","","resp_prompt","","","","","","","","","","","","","","","",""
"categorize-image","251","504170","0.0-4.0-1.0-1.44","g5gefw6uklt3v49","prime","5c791b51eaf40f0001c8f338","5f60e3c0a3b16e07647b2ff9","5f60e9cfbfaddb000828b747","true","615.3150000609457","./Stimuli/SelectedImages/LN/LN177.bmp","83","","","","test","true","N + M","83","repetition","LN","LN177.bmp","forget","","93","3","prime1","left","","","",""
"html-keyboard-response","252","506184","0.0-4.0-1.0-3.44","g5gefw6uklt3v49","prime","5c791b51eaf40f0001c8f338","5f60e3c0a3b16e07647b2ff9","5f60e9cfbfaddb000828b747","false","null","<div style=""align-items: center; display: flex; color: darkorange; font-size: 90px""><b>ø</b></div>","null","","","","forget_cue","","","","","","","","","","","","","","","",""
