"trial_type","trial_index","time_elapsed","internal_node_id","subject","exp_part","prolific_PID","study_ID","session_ID","use","rt","stimulus","key_press","button_pressed","responses","question_order","trial_part","correct","resp_map","correct_resp","probe_condition","category","image","forget_condition","list","trial_num","block_num","block","response","test_part","n_span","sequence","num_spaces"
"pavlovia","0","9","0.0-0.0","fayc0sdx1arga0y","","5f52b0b2834c3f06a47824e7","5f60e3c0a3b16e07647b2ff9","5f61dbfdce94911967246913","false","","","","","","","","","","","","","","","","","","","","","","",""
"html-keyboard-response","1","9143","0.0-1.0-0.0-0.0","fayc0sdx1arga0y","welcome","5f52b0b2834c3f06a47824e7","5f60e3c0a3b16e07647b2ff9","5f61dbfdce94911967246913","false","9130.000000000002","<div align=left>Dear participant, <br> thank you for participating in an online study of the Cognition, Action, and Sustainability Unit of the University of Freiburg! <br> <br>The aim of this study is to examine our ability to remember previously learned information. <br>Our goal is to find out, whether our memory improves, when we only remember information that is relevant to us. <br>The experiment will take about 35 minutes to complete. <br> <br>Please, note that you can only participate in this study if you are using a device with a keyboard (PC, Laptop etc.) <br>and not if you are using a mobile device such as a tablet or smartphone.<br> <br>Press 'SPACE' to proceed to the experiment. </div>","32","","","","","","","","","","","","","","","","","","","",""
"html-keyboard-response","2","18654","0.0-1.0-0.0-1.0","fayc0sdx1arga0y","welcome","5f52b0b2834c3f06a47824e7","5f60e3c0a3b16e07647b2ff9","5f61dbfdce94911967246913","false","9510","<div align=left><strong> Time Course of this experiment: </strong> <br><br> <strong> 1.</strong>  First, please fill in some information regarding your demographic data. <br><br> <strong> 2.</strong>  Next, your task will be to classify everyday objects. <br>In addition, you will be asked to remember certain objects and recall them later. <br>Working on these tasks requires your undivided attention and concentration.<br>It is therefore essential that you eliminate any sources of distraction in your  <br>environment and ensure that you will not be disturbed. <br><br><strong> 3.</strong>  At the end of the experiment, you will be asked to answer a few additional questions. <br> <br><strong> Important:</strong> After finishing the experiment, only close the browser window <br> by clicking on the 'end the experiment'-button when you are asked to do so. <br>Closing the browser window prematurely will make the allocation of your participation credit impossible. <br><br> Press 'SPACE' to start the experiment. </div>","32","","","","","","","","","","","","","","","","","","","",""
"html-button-response","3","21452","0.0-1.0-0.0-2.0","fayc0sdx1arga0y","welcome","5f52b0b2834c3f06a47824e7","5f60e3c0a3b16e07647b2ff9","5f61dbfdce94911967246913","true","2794.0000000000036","<div align=left><strong> Informed consent </strong>  <br>The aim of our research is to better understand human behavior and mental processes. <br>In the following study your behavior (e.g. choices, reaction times) will be studied. <br> <br><strong> Voluntariness and Anonymity </strong> <br>Your participation in this study is  <strong> voluntary</strong>.<br>You may withdraw your consent to participate at any time without providing a reason for doing so and without fear of prejudice. <br><br>As no personal data will be collected, <strong>your data and your person cannot be connected after data collection</strong> – the data-set is anonymous. <br>Respectively, deletion of your data will not be possible after data collection has been completed, as we cannot retrace your data-set.<br>The results and anonymized data collected in this study will be published as a scientific publication. <br>This will happen in an <strong>anonymized format</strong>, so that no data can be traced back to a specific person. <br> <br>The anonymized data of this study will be made available to other researchers and/or in a data archive on the Internet as a means of transparency and to enable subsequent re-use. By doing so, this study follows the recommendations of the Deutsche Forschungsgemeinschaft (DFG, German Research Foundation) and Deutsche Gesellschaft für Psychologie (DGPS, German Psychological Society) regarding quality assurance in research.<br>If you have any questions now or after the experiment, please contact our team (experiments@cs.uni-freiburg.de).<br><br><br>I hereby declare, that I understand the above described conditions of participation and I agree to participate under these conditions. <br><br> </div>","","0","","","","","","","","","","","","","","","","","","",""
"html-keyboard-response","4","24882","0.0-1.0-0.0-3.0","fayc0sdx1arga0y","welcome","5f52b0b2834c3f06a47824e7","5f60e3c0a3b16e07647b2ff9","5f61dbfdce94911967246913","false","3425","<div align=left><strong> General information concerning the experiment </strong>  <br> <br>Please follow the instructions:<ol> <li><strong> Do not leave this tab (your browser window) during the experiment and do not reload this tab! </strong>  <br>If you do switch tabs/windows during the experiment (to check your mail or visit another website, for example), <br>the experiment will end automatically and you will <strong>not receive credit</strong> for your participation. <br>Repeated participation or resumption of the experiment is impossible.</li> <br><li>Please close all other programs for the duration of your participation. </li> <br><li>Please mute or turn off your phone and put it out of your reach. </li> <br><li>Please also take off any disturbing accessories (such as wristwatches, bracelets, etc.). </li> <br><li>If you have music playing in the background, please turn it off now. </li> <br></ol>Thank you! <br>Press 'SPACE' to continue. </div>","32","","","","","","","","","","","","","","","","","","","",""
"survey-text","5","28330","0.0-1.0-1.0-0.0","fayc0sdx1arga0y","demographics","5f52b0b2834c3f06a47824e7","5f60e3c0a3b16e07647b2ff9","5f61dbfdce94911967246913","true","3417","","","","{""age"":""29""}","","","","","","","","","","","","","","","","","",""
"survey-multi-choice","6","39523","0.0-1.0-1.0-1.0","fayc0sdx1arga0y","demographics","5f52b0b2834c3f06a47824e7","5f60e3c0a3b16e07647b2ff9","5f61dbfdce94911967246913","true","11189","","","","{""gender"":""female"",""school"":""others"",""education"":""Completed university degree or equivalent""}","[0,1,2]","","","","","","","","","","","","","","","","",""
"html-keyboard-response","7","40818","0.0-1.0-2.0","fayc0sdx1arga0y","instructions","5f52b0b2834c3f06a47824e7","5f60e3c0a3b16e07647b2ff9","5f61dbfdce94911967246913","false","1293","<div align=left> The experiment is now about to start: <br> <br>In the following part, you will be presented pictures of everyday objects. <br>Your first task is to <strong>classify these objects. </strong> <br> <br> You will classify them either as mechanical or non-mechanical objects. <br> <br>Objects that include any kind of technical mechanism (for example, wheels, switches, levers, <br> electronic components) fall under the category of <strong>mechanical</strong> objects. <br>Only objects without any kind of technical mechanism should be classified as <strong>non-mechanical</strong>. <br><br>Press 'SPACE' to continue. </div>","32","","","","","","","","","","","","","","","","","","","",""
"html-keyboard-response","8","154550","0.0-2.0-0.0","fayc0sdx1arga0y","instructions","5f52b0b2834c3f06a47824e7","5f60e3c0a3b16e07647b2ff9","5f61dbfdce94911967246913","false","113731","<div align=justify>You will classify the objects using the <strong>'S'</strong> and the <strong>'L'</strong> keys on your keyboard.<br>For doing so, please place your <strong>left index finger</strong> on the <strong>'S'</strong> key and place your <strong>right index finger</strong> on the <strong>'L'</strong> key. <br><br> Each trial starts with an instruction, indicating which key ('S'/'L') you need to press to classify <br>the object as mechanical (letter M) or non-mechanical (letter N).<br>The instruction <strong>M + N</strong> indicates that, in the current trial, by pressing the left key ('S') you classify the displayed object as mechanical (M) <br> and by pressing the right key ('L') you classify the object as non-mechanical (N). <br>The instruction <strong>N + M</strong> on the other hand indicates that by pressing the left key ('S') you classify the displayed object as non-mechanical (N) <br> and by pressing the right key ('L') you classify the object as mechanical (M). <br><br>Please press the key corresponding to the correct classification as fast as possible as soon as the object is displayed and try to avoid making mistakes.<br>If you do not respond within a 2 second window, a corresponding feedback will be displayed and the next trial will start.<br> The experiment is divided into multiple blocks to give you the opportunity to take a break after each block. <br>First, you can now practice this task. <br><br>Please place your <strong>LEFT INDEX FINGER</strong> on the 'S' key and your <strong>RIGHT INDEX FINGER</strong> on the 'L' key now. <br><br>Press SPACE to continue.</div>","32","","","","","","","","","","","","","","","","","","","",""
"html-keyboard-response","9","156695","0.0-2.0-1.0","fayc0sdx1arga0y","instructions","5f52b0b2834c3f06a47824e7","5f60e3c0a3b16e07647b2ff9","5f61dbfdce94911967246913","false","2144","<div align=left> You will now have time to practice this task.<br><br>Remember: <br> <br><li>Please place your index fingers on the <strong>'S'</strong> and <strong>'L'</strong> keys <br>to respond as fast and accurately as possible.</li><li>Every picture can be classified as either mechanical or non-mechanical.</li><li>If you do not respond in time or commit an error, you will receive a corresponding feedback. </li><li> Please try to respond as <strong> fast </strong> and as <strong> accurately as possible </strong> .<br><li>To ensure optimal results, please minimize distractions and stay focused. </li><br><br>Press SPACE to continue.</div>","32","","","","","","","","","","","","","","","","","","","",""
"html-keyboard-response","10","157399","0.0-2.0-2.0-0.0","fayc0sdx1arga0y","practice_no_cue","5f52b0b2834c3f06a47824e7","5f60e3c0a3b16e07647b2ff9","5f61dbfdce94911967246913","false","null","<span style=""color: black; font-size: 48px"">M + N</span>","null","","","","resp_prompt","","","","","","","","","","","","","","","",""
"categorize-image","11","159903","0.0-2.0-2.0-1.0","fayc0sdx1arga0y","practice_no_cue","5f52b0b2834c3f06a47824e7","5f60e3c0a3b16e07647b2ff9","5f61dbfdce94911967246913","true","null","./Stimuli/ImagesPractice/SM37.jpg","null","","","","test","false","M + N","83","","SM","SM37.jpg","forget","old","1","1","start","too_slow","","","",""
"html-keyboard-response","12","160605","0.0-2.0-2.0-0.1","fayc0sdx1arga0y","practice_no_cue","5f52b0b2834c3f06a47824e7","5f60e3c0a3b16e07647b2ff9","5f61dbfdce94911967246913","false","null","<span style=""color: black; font-size: 48px"">M + N</span>","null","","","","resp_prompt","","","","","","","","","","","","","","","",""
"categorize-image","13","162198","0.0-2.0-2.0-1.1","fayc0sdx1arga0y","practice_no_cue","5f52b0b2834c3f06a47824e7","5f60e3c0a3b16e07647b2ff9","5f61dbfdce94911967246913","true","1091","./Stimuli/ImagesPractice/SN75.jpg","83","","","","test","false","M + N","76","","SN","SN75.jpg","remember","old","2","1","start","left","","","",""
"html-keyboard-response","14","162901","0.0-2.0-2.0-0.2","fayc0sdx1arga0y","practice_no_cue","5f52b0b2834c3f06a47824e7","5f60e3c0a3b16e07647b2ff9","5f61dbfdce94911967246913","false","null","<span style=""color: black; font-size: 48px"">N + M</span>","null","","","","resp_prompt","","","","","","","","","","","","","","","",""
"categorize-image","15","164742","0.0-2.0-2.0-1.2","fayc0sdx1arga0y","practice_no_cue","5f52b0b2834c3f06a47824e7","5f60e3c0a3b16e07647b2ff9","5f61dbfdce94911967246913","true","1338","./Stimuli/ImagesPractice/LN72.jpg","76","","","","test","false","N + M","83","","LN","LN72.jpg","forget","old","3","1","start","right","","","",""
"html-keyboard-response","16","165445","0.0-2.0-2.0-0.3","fayc0sdx1arga0y","practice_no_cue","5f52b0b2834c3f06a47824e7","5f60e3c0a3b16e07647b2ff9","5f61dbfdce94911967246913","false","null","<span style=""color: black; font-size: 48px"">N + M</span>","null","","","","resp_prompt","","","","","","","","","","","","","","","",""
"categorize-image","17","166751","0.0-2.0-2.0-1.3","fayc0sdx1arga0y","practice_no_cue","5f52b0b2834c3f06a47824e7","5f60e3c0a3b16e07647b2ff9","5f61dbfdce94911967246913","true","802","./Stimuli/ImagesPractice/LN4.jpg","83","","","","test","true","N + M","83","","LN","LN4.jpg","forget","old","4","1","start","left","","","",""
"html-keyboard-response","18","167453","0.0-2.0-2.0-0.4","fayc0sdx1arga0y","practice_no_cue","5f52b0b2834c3f06a47824e7","5f60e3c0a3b16e07647b2ff9","5f61dbfdce94911967246913","false","null","<span style=""color: black; font-size: 48px"">M + N</span>","null","","","","resp_prompt","","","","","","","","","","","","","","","",""
"categorize-image","19","168610","0.0-2.0-2.0-1.4","fayc0sdx1arga0y","practice_no_cue","5f52b0b2834c3f06a47824e7","5f60e3c0a3b16e07647b2ff9","5f61dbfdce94911967246913","true","653","./Stimuli/ImagesPractice/SN222.jpg","83","","","","test","false","M + N","76","","SN","SN222.jpg","remember","old","5","1","start","left","","","",""
"html-keyboard-response","20","169312","0.0-2.0-2.0-0.5","fayc0sdx1arga0y","practice_no_cue","5f52b0b2834c3f06a47824e7","5f60e3c0a3b16e07647b2ff9","5f61dbfdce94911967246913","false","null","<span style=""color: black; font-size: 48px"">N + M</span>","null","","","","resp_prompt","","","","","","","","","","","","","","","",""
"categorize-image","21","170695","0.0-2.0-2.0-1.5","fayc0sdx1arga0y","practice_no_cue","5f52b0b2834c3f06a47824e7","5f60e3c0a3b16e07647b2ff9","5f61dbfdce94911967246913","true","879","./Stimuli/ImagesPractice/LM55.jpg","83","","","","test","false","N + M","76","","LM","LM55.jpg","remember","old","6","1","start","left","","","",""
"html-keyboard-response","22","171396","0.0-2.0-2.0-0.6","fayc0sdx1arga0y","practice_no_cue","5f52b0b2834c3f06a47824e7","5f60e3c0a3b16e07647b2ff9","5f61dbfdce94911967246913","false","null","<span style=""color: black; font-size: 48px"">N + M</span>","null","","","","resp_prompt","","","","","","","","","","","","","","","",""
"categorize-image","23","172706","0.0-2.0-2.0-1.6","fayc0sdx1arga0y","practice_no_cue","5f52b0b2834c3f06a47824e7","5f60e3c0a3b16e07647b2ff9","5f61dbfdce94911967246913","true","807","./Stimuli/ImagesPractice/SN76.jpg","83","","","","test","true","N + M","83","","SN","SN76.jpg","remember","old","7","1","start","left","","","",""
"html-keyboard-response","24","173408","0.0-2.0-2.0-0.7","fayc0sdx1arga0y","practice_no_cue","5f52b0b2834c3f06a47824e7","5f60e3c0a3b16e07647b2ff9","5f61dbfdce94911967246913","false","null","<span style=""color: black; font-size: 48px"">M + N</span>","null","","","","resp_prompt","","","","","","","","","","","","","","","",""
"categorize-image","25","174767","0.0-2.0-2.0-1.7","fayc0sdx1arga0y","practice_no_cue","5f52b0b2834c3f06a47824e7","5f60e3c0a3b16e07647b2ff9","5f61dbfdce94911967246913","true","857","./Stimuli/ImagesPractice/SM62.jpg","76","","","","test","false","M + N","83","","SM","SM62.jpg","forget","old","8","1","start","right","","","",""
"html-keyboard-response","26","175469","0.0-2.0-2.0-0.8","fayc0sdx1arga0y","practice_no_cue","5f52b0b2834c3f06a47824e7","5f60e3c0a3b16e07647b2ff9","5f61dbfdce94911967246913","false","null","<span style=""color: black; font-size: 48px"">N + M</span>","null","","","","resp_prompt","","","","","","","","","","","","","","","",""
"categorize-image","27","176558","0.0-2.0-2.0-1.8","fayc0sdx1arga0y","practice_no_cue","5f52b0b2834c3f06a47824e7","5f60e3c0a3b16e07647b2ff9","5f61dbfdce94911967246913","true","586.9999999999709","./Stimuli/ImagesPractice/SN220.jpg","83","","","","test","true","N + M","83","","SN","SN220.jpg","remember","old","9","1","start","left","","","",""
"html-keyboard-response","28","177261","0.0-2.0-2.0-0.9","fayc0sdx1arga0y","practice_no_cue","5f52b0b2834c3f06a47824e7","5f60e3c0a3b16e07647b2ff9","5f61dbfdce94911967246913","false","null","<span style=""color: black; font-size: 48px"">N + M</span>","null","","","","resp_prompt","","","","","","","","","","","","","","","",""
"categorize-image","29","178806","0.0-2.0-2.0-1.9","fayc0sdx1arga0y","practice_no_cue","5f52b0b2834c3f06a47824e7","5f60e3c0a3b16e07647b2ff9","5f61dbfdce94911967246913","true","1042.999999999971","./Stimuli/ImagesPractice/SM61.jpg","76","","","","test","true","N + M","76","","SM","SM61.jpg","forget","old","10","1","start","right","","","",""
"html-keyboard-response","30","179508","0.0-2.0-2.0-0.10","fayc0sdx1arga0y","practice_no_cue","5f52b0b2834c3f06a47824e7","5f60e3c0a3b16e07647b2ff9","5f61dbfdce94911967246913","false","null","<span style=""color: black; font-size: 48px"">M + N</span>","null","","","","resp_prompt","","","","","","","","","","","","","","","",""
"categorize-image","31","180798","0.0-2.0-2.0-1.10","fayc0sdx1arga0y","practice_no_cue","5f52b0b2834c3f06a47824e7","5f60e3c0a3b16e07647b2ff9","5f61dbfdce94911967246913","true","786","./Stimuli/ImagesPractice/SN221.jpg","83","","","","test","false","M + N","76","","SN","SN221.jpg","remember","old","11","1","start","left","","","",""
"html-keyboard-response","32","181499","0.0-2.0-2.0-0.11","fayc0sdx1arga0y","practice_no_cue","5f52b0b2834c3f06a47824e7","5f60e3c0a3b16e07647b2ff9","5f61dbfdce94911967246913","false","null","<span style=""color: black; font-size: 48px"">N + M</span>","null","","","","resp_prompt","","","","","","","","","","","","","","","",""
"categorize-image","33","182726","0.0-2.0-2.0-1.11","fayc0sdx1arga0y","practice_no_cue","5f52b0b2834c3f06a47824e7","5f60e3c0a3b16e07647b2ff9","5f61dbfdce94911967246913","true","724","./Stimuli/ImagesPractice/LM143.jpg","76","","","","test","true","N + M","76","","LM","LM143.jpg","remember","old","12","1","start","right","","","",""
"html-keyboard-response","34","183428","0.0-2.0-2.0-0.12","fayc0sdx1arga0y","practice_no_cue","5f52b0b2834c3f06a47824e7","5f60e3c0a3b16e07647b2ff9","5f61dbfdce94911967246913","false","null","<span style=""color: black; font-size: 48px"">M + N</span>","null","","","","resp_prompt","","","","","","","","","","","","","","","",""
"categorize-image","35","184614","0.0-2.0-2.0-1.12","fayc0sdx1arga0y","practice_no_cue","5f52b0b2834c3f06a47824e7","5f60e3c0a3b16e07647b2ff9","5f61dbfdce94911967246913","true","683.0000000000291","./Stimuli/ImagesPractice/LM224.jpg","83","","","","test","true","M + N","83","","LM","LM224.jpg","forget","old","13","1","start","left","","","",""
"html-keyboard-response","36","185317","0.0-2.0-2.0-0.13","fayc0sdx1arga0y","practice_no_cue","5f52b0b2834c3f06a47824e7","5f60e3c0a3b16e07647b2ff9","5f61dbfdce94911967246913","false","null","<span style=""color: black; font-size: 48px"">N + M</span>","null","","","","resp_prompt","","","","","","","","","","","","","","","",""
"categorize-image","37","186542","0.0-2.0-2.0-1.13","fayc0sdx1arga0y","practice_no_cue","5f52b0b2834c3f06a47824e7","5f60e3c0a3b16e07647b2ff9","5f61dbfdce94911967246913","true","723","./Stimuli/ImagesPractice/SM98.jpg","76","","","","test","true","N + M","76","","SM","SM98.jpg","forget","old","14","1","start","right","","","",""
"html-keyboard-response","38","187245","0.0-2.0-2.0-0.14","fayc0sdx1arga0y","practice_no_cue","5f52b0b2834c3f06a47824e7","5f60e3c0a3b16e07647b2ff9","5f61dbfdce94911967246913","false","null","<span style=""color: black; font-size: 48px"">M + N</span>","null","","","","resp_prompt","","","","","","","","","","","","","","","",""
"categorize-image","39","188446","0.0-2.0-2.0-1.14","fayc0sdx1arga0y","practice_no_cue","5f52b0b2834c3f06a47824e7","5f60e3c0a3b16e07647b2ff9","5f61dbfdce94911967246913","true","698","./Stimuli/ImagesPractice/LN15.jpg","83","","","","test","false","M + N","76","","LN","LN15.jpg","forget","old","15","1","start","left","","","",""
"html-keyboard-response","40","189147","0.0-2.0-2.0-0.15","fayc0sdx1arga0y","practice_no_cue","5f52b0b2834c3f06a47824e7","5f60e3c0a3b16e07647b2ff9","5f61dbfdce94911967246913","false","null","<span style=""color: black; font-size: 48px"">M + N</span>","null","","","","resp_prompt","","","","","","","","","","","","","","","",""
"categorize-image","41","191650","0.0-2.0-2.0-1.15","fayc0sdx1arga0y","practice_no_cue","5f52b0b2834c3f06a47824e7","5f60e3c0a3b16e07647b2ff9","5f61dbfdce94911967246913","true","null","./Stimuli/ImagesPractice/LN2.jpg","null","","","","test","false","M + N","76","","LN","LN2.jpg","remember","old","16","1","start","too_slow","","","",""
"html-keyboard-response","42","198804","0.0-2.0-3.0","fayc0sdx1arga0y","break","5f52b0b2834c3f06a47824e7","5f60e3c0a3b16e07647b2ff9","5f61dbfdce94911967246913","false","7152","<p style='font-size: 32px;'>Break</><br><br><br><br><br><p style='font-size: 24px;'>In the last block, you committed 7 errors and did not respond in time on 2 trials.
</p><p style='font-size: 24px;'>Try to respond as fast and accurately as possible in the next block as well! </p><p style='font-size: 24px;'>Press SPACE to continue.</p>","32","","","","","","","","","","","","","","","","","","","",""
"html-keyboard-response","43","203047","0.0-2.0-4.0","fayc0sdx1arga0y","instructions","5f52b0b2834c3f06a47824e7","5f60e3c0a3b16e07647b2ff9","5f61dbfdce94911967246913","false","4242","<div align=left> Great!<br><br>Are you ready to continue?<br><br>If you want to reread the instructions and redo the practice trials, <br>please press „Z“. <br><br>Press SPACE to CONTINUE with the experiment when you are ready. </div>","32","","","","","","","","","","","","","","","","","","","",""
"html-keyboard-response","44","207690","0.0-3.0-0.0","fayc0sdx1arga0y","instructions","5f52b0b2834c3f06a47824e7","5f60e3c0a3b16e07647b2ff9","5f61dbfdce94911967246913","false","4642","<div align=left>Great!<br> <strong>Attention</strong>! You will now receive a second, additional task! <br><br>To this point it was you <strong>first task</strong> to correctly <strong>classify objects</strong>. <br><br>As mentioned in the beginning, we aim to examine how well humans can remember previously learned information.<br>We would like to find out whether our memory improves if we only remember information that is relevant to us. <br><br>Therefore, your <strong>second task</strong> will be to <strong>remember</strong> the pictures you are to categorize. <br> After the learning phase, there will be a memory test phase, in which you will be asked to indicate whether you have seen a picture before or not. <br>Some, but not all pictures shown in the learning phase will appear in the memory test phase.<br>After classifying a picture, you will be told whether you should remember it for the memory test phase or not. <br>Thus, some pictures can be forgotten, whereas others have to be remembered. <br><br>Note: From now on, feedback will only be displayed if you responded incorrectly or not in time.<br><br>Press SPACE to continue.</div>","32","","","","","","","","","","","","","","","","","","","",""
"html-keyboard-response","45","212972","0.0-3.0-1.0","fayc0sdx1arga0y","instructions","5f52b0b2834c3f06a47824e7","5f60e3c0a3b16e07647b2ff9","5f61dbfdce94911967246913","false","5282","<div align=left>In the following part, you will thus have to remember only some pictures. <br>Immediately after seeing and classifying the picture, a symbol will be displayed, indicating whether you should remember or forget the previous picture. <br><br>A <span style='color: dodgerblue; font-size: 28px'>O</span> indicates REMEMBER. That means, you have to remember this picture, because it will be tested later. <br><br>A <span style='color: darkorange; font-size:28px'>Ø</span> indicates FORGET. You do not have to remember this picture. <br><br> As you will have to remember a lot of pictures, it will be hard for you to remember all of them. <br>It will put you at an advantage if you instantly forget the pictures you are not asked to remember. <br> This will make it easier for you to remember the pictures that will be tested afterwards. <br><br>Press SPACE to continue.</div>","32","","","","","","","","","","","","","","","","","","","",""
"html-keyboard-response","46","214944","0.0-3.0-2.0","fayc0sdx1arga0y","instructions","5f52b0b2834c3f06a47824e7","5f60e3c0a3b16e07647b2ff9","5f61dbfdce94911967246913","false","1971.000000000029","<div align=left> Now you have the chance to practice both tasks together.<br><br>Remember: <br> <br><li>Please place your index fingers on the <strong>'S'</strong> and <strong>'L'</strong> keys <br>to respond as fast and accurately as possible.</li><li>Every picture can be classified as either mechanical or non-mechanical.</li><li>If you do not respond in time or commit an error, you will receive a corresponding feedback. <br>Please try to respond as <strong> fast </strong> and as <strong> accurately as possible </strong>.</li><li> Please remember only the to-be-remembered <span style='color: dodgerblue; font-size: 28px'>O</span> pictures. <br></li><li> Please minimize distractions and stay focused. </li><br><br>Press SPACE to START</div>","32","","","","","","","","","","","","","","","","","","","",""
"html-keyboard-response","47","215647","0.0-3.0-3.0-0.0","fayc0sdx1arga0y","practice_cue","5f52b0b2834c3f06a47824e7","5f60e3c0a3b16e07647b2ff9","5f61dbfdce94911967246913","false","null","<span style=""color: black; font-size: 48px"">M + N</span>","null","","","","resp_prompt","","","","","","","","","","","","","","","",""
"categorize-image","48","217651","0.0-3.0-3.0-1.0","fayc0sdx1arga0y","practice_cue","5f52b0b2834c3f06a47824e7","5f60e3c0a3b16e07647b2ff9","5f61dbfdce94911967246913","true","null","./Stimuli/ImagesPractice/LN2.jpg","null","","","","test","false","M + N","76","","LN","LN2.jpg","remember","old","17","2","practice_forget","too_slow","","","",""
"html-keyboard-response","49","218153","0.0-3.0-3.0-2.0-0.0","fayc0sdx1arga0y","practice_cue","5f52b0b2834c3f06a47824e7","5f60e3c0a3b16e07647b2ff9","5f61dbfdce94911967246913","false","null","<span style=""color: red; font-size: 48px"">Too slow!</span>","null","","","","feedback","","","","","","","","","","","","","","","",""
"html-keyboard-response","50","220155","0.0-3.0-3.0-3.0","fayc0sdx1arga0y","practice_cue","5f52b0b2834c3f06a47824e7","5f60e3c0a3b16e07647b2ff9","5f61dbfdce94911967246913","false","null","<div style=""align-items: center; display: flex; color: dodgerblue; font-size: 90px""><b>o</b></div>","null","","","","forget_cue","","","","","","","","","","","","","","","",""
"html-keyboard-response","51","220857","0.0-3.0-3.0-0.1","fayc0sdx1arga0y","practice_cue","5f52b0b2834c3f06a47824e7","5f60e3c0a3b16e07647b2ff9","5f61dbfdce94911967246913","false","null","<span style=""color: black; font-size: 48px"">M + N</span>","null","","","","resp_prompt","","","","","","","","","","","","","","","",""
"categorize-image","52","220873","0.0-3.0-3.0-1.1","fayc0sdx1arga0y","practice_cue","5f52b0b2834c3f06a47824e7","5f60e3c0a3b16e07647b2ff9","5f61dbfdce94911967246913","true","13","./Stimuli/ImagesPractice/SM62.jpg","83","","","","test","true","M + N","83","","SM","SM62.jpg","forget","old","18","2","practice_forget","left","","","",""
"html-keyboard-response","53","222875","0.0-3.0-3.0-3.1","fayc0sdx1arga0y","practice_cue","5f52b0b2834c3f06a47824e7","5f60e3c0a3b16e07647b2ff9","5f61dbfdce94911967246913","false","null","<div style=""align-items: center; display: flex; color: darkorange; font-size: 90px""><b>ø</b></div>","null","","","","forget_cue","","","","","","","","","","","","","","","",""
"html-keyboard-response","54","223577","0.0-3.0-3.0-0.2","fayc0sdx1arga0y","practice_cue","5f52b0b2834c3f06a47824e7","5f60e3c0a3b16e07647b2ff9","5f61dbfdce94911967246913","false","null","<span style=""color: black; font-size: 48px"">M + N</span>","null","","","","resp_prompt","","","","","","","","","","","","","","","",""
"categorize-image","55","224260","0.0-3.0-3.0-1.2","fayc0sdx1arga0y","practice_cue","5f52b0b2834c3f06a47824e7","5f60e3c0a3b16e07647b2ff9","5f61dbfdce94911967246913","true","680","./Stimuli/ImagesPractice/SN75.jpg","83","","","","test","false","M + N","76","","SN","SN75.jpg","remember","old","19","2","practice_forget","left","","","",""
"html-keyboard-response","56","224762","0.0-3.0-3.0-2.2-0.2","fayc0sdx1arga0y","practice_cue","5f52b0b2834c3f06a47824e7","5f60e3c0a3b16e07647b2ff9","5f61dbfdce94911967246913","false","null","<span style=""color: red; font-size: 48px"">Error!</span>","null","","","","feedback","","","","","","","","","","","","","","","",""
"html-keyboard-response","57","226764","0.0-3.0-3.0-3.2","fayc0sdx1arga0y","practice_cue","5f52b0b2834c3f06a47824e7","5f60e3c0a3b16e07647b2ff9","5f61dbfdce94911967246913","false","null","<div style=""align-items: center; display: flex; color: dodgerblue; font-size: 90px""><b>o</b></div>","null","","","","forget_cue","","","","","","","","","","","","","","","",""
"html-keyboard-response","58","227466","0.0-3.0-3.0-0.3","fayc0sdx1arga0y","practice_cue","5f52b0b2834c3f06a47824e7","5f60e3c0a3b16e07647b2ff9","5f61dbfdce94911967246913","false","null","<span style=""color: black; font-size: 48px"">M + N</span>","null","","","","resp_prompt","","","","","","","","","","","","","","","",""
"categorize-image","59","228147","0.0-3.0-3.0-1.3","fayc0sdx1arga0y","practice_cue","5f52b0b2834c3f06a47824e7","5f60e3c0a3b16e07647b2ff9","5f61dbfdce94911967246913","true","678","./Stimuli/ImagesPractice/LM224.jpg","76","","","","test","false","M + N","83","","LM","LM224.jpg","forget","old","20","2","practice_forget","right","","","",""
"html-keyboard-response","60","228649","0.0-3.0-3.0-2.3-0.3","fayc0sdx1arga0y","practice_cue","5f52b0b2834c3f06a47824e7","5f60e3c0a3b16e07647b2ff9","5f61dbfdce94911967246913","false","null","<span style=""color: red; font-size: 48px"">Error!</span>","null","","","","feedback","","","","","","","","","","","","","","","",""
"html-keyboard-response","61","230651","0.0-3.0-3.0-3.3","fayc0sdx1arga0y","practice_cue","5f52b0b2834c3f06a47824e7","5f60e3c0a3b16e07647b2ff9","5f61dbfdce94911967246913","false","null","<div style=""align-items: center; display: flex; color: darkorange; font-size: 90px""><b>ø</b></div>","null","","","","forget_cue","","","","","","","","","","","","","","","",""
"html-keyboard-response","62","231353","0.0-3.0-3.0-0.4","fayc0sdx1arga0y","practice_cue","5f52b0b2834c3f06a47824e7","5f60e3c0a3b16e07647b2ff9","5f61dbfdce94911967246913","false","null","<span style=""color: black; font-size: 48px"">N + M</span>","null","","","","resp_prompt","","","","","","","","","","","","","","","",""
"categorize-image","63","232269","0.0-3.0-3.0-1.4","fayc0sdx1arga0y","practice_cue","5f52b0b2834c3f06a47824e7","5f60e3c0a3b16e07647b2ff9","5f61dbfdce94911967246913","true","914","./Stimuli/ImagesPractice/SM61.jpg","76","","","","test","true","N + M","76","","SM","SM61.jpg","forget","old","21","2","practice_forget","right","","","",""
"html-keyboard-response","64","234271","0.0-3.0-3.0-3.4","fayc0sdx1arga0y","practice_cue","5f52b0b2834c3f06a47824e7","5f60e3c0a3b16e07647b2ff9","5f61dbfdce94911967246913","false","null","<div style=""align-items: center; display: flex; color: darkorange; font-size: 90px""><b>ø</b></div>","null","","","","forget_cue","","","","","","","","","","","","","","","",""
"html-keyboard-response","65","234973","0.0-3.0-3.0-0.5","fayc0sdx1arga0y","practice_cue","5f52b0b2834c3f06a47824e7","5f60e3c0a3b16e07647b2ff9","5f61dbfdce94911967246913","false","null","<span style=""color: black; font-size: 48px"">M + N</span>","null","","","","resp_prompt","","","","","","","","","","","","","","","",""
"categorize-image","66","236040","0.0-3.0-3.0-1.5","fayc0sdx1arga0y","practice_cue","5f52b0b2834c3f06a47824e7","5f60e3c0a3b16e07647b2ff9","5f61dbfdce94911967246913","true","1058.999999999971","./Stimuli/ImagesPractice/SM37.jpg","76","","","","test","false","M + N","83","","SM","SM37.jpg","forget","old","22","2","practice_forget","right","","","",""
"html-keyboard-response","67","236542","0.0-3.0-3.0-2.5-0.5","fayc0sdx1arga0y","practice_cue","5f52b0b2834c3f06a47824e7","5f60e3c0a3b16e07647b2ff9","5f61dbfdce94911967246913","false","null","<span style=""color: red; font-size: 48px"">Error!</span>","null","","","","feedback","","","","","","","","","","","","","","","",""
"html-keyboard-response","68","238544","0.0-3.0-3.0-3.5","fayc0sdx1arga0y","practice_cue","5f52b0b2834c3f06a47824e7","5f60e3c0a3b16e07647b2ff9","5f61dbfdce94911967246913","false","null","<div style=""align-items: center; display: flex; color: darkorange; font-size: 90px""><b>ø</b></div>","null","","","","forget_cue","","","","","","","","","","","","","","","",""
"html-keyboard-response","69","239246","0.0-3.0-3.0-0.6","fayc0sdx1arga0y","practice_cue","5f52b0b2834c3f06a47824e7","5f60e3c0a3b16e07647b2ff9","5f61dbfdce94911967246913","false","null","<span style=""color: black; font-size: 48px"">N + M</span>","null","","","","resp_prompt","","","","","","","","","","","","","","","",""
"categorize-image","70","239998","0.0-3.0-3.0-1.6","fayc0sdx1arga0y","practice_cue","5f52b0b2834c3f06a47824e7","5f60e3c0a3b16e07647b2ff9","5f61dbfdce94911967246913","true","750","./Stimuli/ImagesPractice/LM143.jpg","76","","","","test","true","N + M","76","","LM","LM143.jpg","remember","old","23","2","practice_forget","right","","","",""
"html-keyboard-response","71","241999","0.0-3.0-3.0-3.6","fayc0sdx1arga0y","practice_cue","5f52b0b2834c3f06a47824e7","5f60e3c0a3b16e07647b2ff9","5f61dbfdce94911967246913","false","null","<div style=""align-items: center; display: flex; color: dodgerblue; font-size: 90px""><b>o</b></div>","null","","","","forget_cue","","","","","","","","","","","","","","","",""
"html-keyboard-response","72","242701","0.0-3.0-3.0-0.7","fayc0sdx1arga0y","practice_cue","5f52b0b2834c3f06a47824e7","5f60e3c0a3b16e07647b2ff9","5f61dbfdce94911967246913","false","null","<span style=""color: black; font-size: 48px"">N + M</span>","null","","","","resp_prompt","","","","","","","","","","","","","","","",""
"categorize-image","73","243522","0.0-3.0-3.0-1.7","fayc0sdx1arga0y","practice_cue","5f52b0b2834c3f06a47824e7","5f60e3c0a3b16e07647b2ff9","5f61dbfdce94911967246913","true","818","./Stimuli/ImagesPractice/LM55.jpg","76","","","","test","true","N + M","76","","LM","LM55.jpg","remember","old","24","2","practice_forget","right","","","",""
"html-keyboard-response","74","245523","0.0-3.0-3.0-3.7","fayc0sdx1arga0y","practice_cue","5f52b0b2834c3f06a47824e7","5f60e3c0a3b16e07647b2ff9","5f61dbfdce94911967246913","false","null","<div style=""align-items: center; display: flex; color: dodgerblue; font-size: 90px""><b>o</b></div>","null","","","","forget_cue","","","","","","","","","","","","","","","",""
"html-keyboard-response","75","246226","0.0-3.0-3.0-0.8","fayc0sdx1arga0y","practice_cue","5f52b0b2834c3f06a47824e7","5f60e3c0a3b16e07647b2ff9","5f61dbfdce94911967246913","false","null","<span style=""color: black; font-size: 48px"">N + M</span>","null","","","","resp_prompt","","","","","","","","","","","","","","","",""
"categorize-image","76","247034","0.0-3.0-3.0-1.8","fayc0sdx1arga0y","practice_cue","5f52b0b2834c3f06a47824e7","5f60e3c0a3b16e07647b2ff9","5f61dbfdce94911967246913","true","806","./Stimuli/ImagesPractice/LN72.jpg","83","","","","test","true","N + M","83","","LN","LN72.jpg","forget","old","25","2","practice_forget","left","","","",""
"html-keyboard-response","77","249036","0.0-3.0-3.0-3.8","fayc0sdx1arga0y","practice_cue","5f52b0b2834c3f06a47824e7","5f60e3c0a3b16e07647b2ff9","5f61dbfdce94911967246913","false","null","<div style=""align-items: center; display: flex; color: darkorange; font-size: 90px""><b>ø</b></div>","null","","","","forget_cue","","","","","","","","","","","","","","","",""
"html-keyboard-response","78","249738","0.0-3.0-3.0-0.9","fayc0sdx1arga0y","practice_cue","5f52b0b2834c3f06a47824e7","5f60e3c0a3b16e07647b2ff9","5f61dbfdce94911967246913","false","null","<span style=""color: black; font-size: 48px"">M + N</span>","null","","","","resp_prompt","","","","","","","","","","","","","","","",""
"categorize-image","79","251742","0.0-3.0-3.0-1.9","fayc0sdx1arga0y","practice_cue","5f52b0b2834c3f06a47824e7","5f60e3c0a3b16e07647b2ff9","5f61dbfdce94911967246913","true","null","./Stimuli/ImagesPractice/SN221.jpg","null","","","","test","false","M + N","76","","SN","SN221.jpg","remember","old","26","2","practice_forget","too_slow","","","",""
"html-keyboard-response","80","252242","0.0-3.0-3.0-2.9-0.9","fayc0sdx1arga0y","practice_cue","5f52b0b2834c3f06a47824e7","5f60e3c0a3b16e07647b2ff9","5f61dbfdce94911967246913","false","null","<span style=""color: red; font-size: 48px"">Too slow!</span>","null","","","","feedback","","","","","","","","","","","","","","","",""
"html-keyboard-response","81","254244","0.0-3.0-3.0-3.9","fayc0sdx1arga0y","practice_cue","5f52b0b2834c3f06a47824e7","5f60e3c0a3b16e07647b2ff9","5f61dbfdce94911967246913","false","null","<div style=""align-items: center; display: flex; color: dodgerblue; font-size: 90px""><b>o</b></div>","null","","","","forget_cue","","","","","","","","","","","","","","","",""
"html-keyboard-response","82","254945","0.0-3.0-3.0-0.10","fayc0sdx1arga0y","practice_cue","5f52b0b2834c3f06a47824e7","5f60e3c0a3b16e07647b2ff9","5f61dbfdce94911967246913","false","null","<span style=""color: black; font-size: 48px"">N + M</span>","null","","","","resp_prompt","","","","","","","","","","","","","","","",""
"categorize-image","83","255572","0.0-3.0-3.0-1.10","fayc0sdx1arga0y","practice_cue","5f52b0b2834c3f06a47824e7","5f60e3c0a3b16e07647b2ff9","5f61dbfdce94911967246913","true","624.0000000000291","./Stimuli/ImagesPractice/SM98.jpg","76","","","","test","true","N + M","76","","SM","SM98.jpg","forget","old","27","2","practice_forget","right","","","",""
"html-keyboard-response","84","257574","0.0-3.0-3.0-3.10","fayc0sdx1arga0y","practice_cue","5f52b0b2834c3f06a47824e7","5f60e3c0a3b16e07647b2ff9","5f61dbfdce94911967246913","false","null","<div style=""align-items: center; display: flex; color: darkorange; font-size: 90px""><b>ø</b></div>","null","","","","forget_cue","","","","","","","","","","","","","","","",""
"html-keyboard-response","85","258276","0.0-3.0-3.0-0.11","fayc0sdx1arga0y","practice_cue","5f52b0b2834c3f06a47824e7","5f60e3c0a3b16e07647b2ff9","5f61dbfdce94911967246913","false","null","<span style=""color: black; font-size: 48px"">N + M</span>","null","","","","resp_prompt","","","","","","","","","","","","","","","",""
"categorize-image","86","258987","0.0-3.0-3.0-1.11","fayc0sdx1arga0y","practice_cue","5f52b0b2834c3f06a47824e7","5f60e3c0a3b16e07647b2ff9","5f61dbfdce94911967246913","true","710.0000000000582","./Stimuli/ImagesPractice/SN220.jpg","83","","","","test","true","N + M","83","","SN","SN220.jpg","remember","old","28","2","practice_forget","left","","","",""
"html-keyboard-response","87","260988","0.0-3.0-3.0-3.11","fayc0sdx1arga0y","practice_cue","5f52b0b2834c3f06a47824e7","5f60e3c0a3b16e07647b2ff9","5f61dbfdce94911967246913","false","null","<div style=""align-items: center; display: flex; color: dodgerblue; font-size: 90px""><b>o</b></div>","null","","","","forget_cue","","","","","","","","","","","","","","","",""
"html-keyboard-response","88","261690","0.0-3.0-3.0-0.12","fayc0sdx1arga0y","practice_cue","5f52b0b2834c3f06a47824e7","5f60e3c0a3b16e07647b2ff9","5f61dbfdce94911967246913","false","null","<span style=""color: black; font-size: 48px"">M + N</span>","null","","","","resp_prompt","","","","","","","","","","","","","","","",""
"categorize-image","89","262223","0.0-3.0-3.0-1.12","fayc0sdx1arga0y","practice_cue","5f52b0b2834c3f06a47824e7","5f60e3c0a3b16e07647b2ff9","5f61dbfdce94911967246913","true","530","./Stimuli/ImagesPractice/SN222.jpg","83","","","","test","false","M + N","76","","SN","SN222.jpg","remember","old","29","2","practice_forget","left","","","",""
"html-keyboard-response","90","262724","0.0-3.0-3.0-2.12-0.12","fayc0sdx1arga0y","practice_cue","5f52b0b2834c3f06a47824e7","5f60e3c0a3b16e07647b2ff9","5f61dbfdce94911967246913","false","null","<span style=""color: red; font-size: 48px"">Error!</span>","null","","","","feedback","","","","","","","","","","","","","","","",""
"html-keyboard-response","91","264725","0.0-3.0-3.0-3.12","fayc0sdx1arga0y","practice_cue","5f52b0b2834c3f06a47824e7","5f60e3c0a3b16e07647b2ff9","5f61dbfdce94911967246913","false","null","<div style=""align-items: center; display: flex; color: dodgerblue; font-size: 90px""><b>o</b></div>","null","","","","forget_cue","","","","","","","","","","","","","","","",""
"html-keyboard-response","92","265428","0.0-3.0-3.0-0.13","fayc0sdx1arga0y","practice_cue","5f52b0b2834c3f06a47824e7","5f60e3c0a3b16e07647b2ff9","5f61dbfdce94911967246913","false","null","<span style=""color: black; font-size: 48px"">M + N</span>","null","","","","resp_prompt","","","","","","","","","","","","","","","",""
"categorize-image","93","266099","0.0-3.0-3.0-1.13","fayc0sdx1arga0y","practice_cue","5f52b0b2834c3f06a47824e7","5f60e3c0a3b16e07647b2ff9","5f61dbfdce94911967246913","true","670","./Stimuli/ImagesPractice/LN15.jpg","83","","","","test","false","M + N","76","","LN","LN15.jpg","forget","old","30","2","practice_forget","left","","","",""
"html-keyboard-response","94","266601","0.0-3.0-3.0-2.13-0.13","fayc0sdx1arga0y","practice_cue","5f52b0b2834c3f06a47824e7","5f60e3c0a3b16e07647b2ff9","5f61dbfdce94911967246913","false","null","<span style=""color: red; font-size: 48px"">Error!</span>","null","","","","feedback","","","","","","","","","","","","","","","",""
"html-keyboard-response","95","268603","0.0-3.0-3.0-3.13","fayc0sdx1arga0y","practice_cue","5f52b0b2834c3f06a47824e7","5f60e3c0a3b16e07647b2ff9","5f61dbfdce94911967246913","false","null","<div style=""align-items: center; display: flex; color: darkorange; font-size: 90px""><b>ø</b></div>","null","","","","forget_cue","","","","","","","","","","","","","","","",""
"html-keyboard-response","96","269305","0.0-3.0-3.0-0.14","fayc0sdx1arga0y","practice_cue","5f52b0b2834c3f06a47824e7","5f60e3c0a3b16e07647b2ff9","5f61dbfdce94911967246913","false","null","<span style=""color: black; font-size: 48px"">N + M</span>","null","","","","resp_prompt","","","","","","","","","","","","","","","",""
"categorize-image","97","270079","0.0-3.0-3.0-1.14","fayc0sdx1arga0y","practice_cue","5f52b0b2834c3f06a47824e7","5f60e3c0a3b16e07647b2ff9","5f61dbfdce94911967246913","true","772","./Stimuli/ImagesPractice/LN4.jpg","83","","","","test","true","N + M","83","","LN","LN4.jpg","forget","old","31","2","practice_forget","left","","","",""
"html-keyboard-response","98","272080","0.0-3.0-3.0-3.14","fayc0sdx1arga0y","practice_cue","5f52b0b2834c3f06a47824e7","5f60e3c0a3b16e07647b2ff9","5f61dbfdce94911967246913","false","null","<div style=""align-items: center; display: flex; color: darkorange; font-size: 90px""><b>ø</b></div>","null","","","","forget_cue","","","","","","","","","","","","","","","",""
"html-keyboard-response","99","272782","0.0-3.0-3.0-0.15","fayc0sdx1arga0y","practice_cue","5f52b0b2834c3f06a47824e7","5f60e3c0a3b16e07647b2ff9","5f61dbfdce94911967246913","false","null","<span style=""color: black; font-size: 48px"">N + M</span>","null","","","","resp_prompt","","","","","","","","","","","","","","","",""
"categorize-image","100","273459","0.0-3.0-3.0-1.15","fayc0sdx1arga0y","practice_cue","5f52b0b2834c3f06a47824e7","5f60e3c0a3b16e07647b2ff9","5f61dbfdce94911967246913","true","674","./Stimuli/ImagesPractice/SN76.jpg","83","","","","test","true","N + M","83","","SN","SN76.jpg","remember","old","32","2","practice_forget","left","","","",""
"html-keyboard-response","101","275464","0.0-3.0-3.0-3.15","fayc0sdx1arga0y","practice_cue","5f52b0b2834c3f06a47824e7","5f60e3c0a3b16e07647b2ff9","5f61dbfdce94911967246913","false","null","<div style=""align-items: center; display: flex; color: dodgerblue; font-size: 90px""><b>o</b></div>","null","","","","forget_cue","","","","","","","","","","","","","","","",""
"html-keyboard-response","102","280070","0.0-3.0-4.0","fayc0sdx1arga0y","break","5f52b0b2834c3f06a47824e7","5f60e3c0a3b16e07647b2ff9","5f61dbfdce94911967246913","false","4605","<p style='font-size: 32px;'>Break</><br><br><br><br><br><p style='font-size: 24px;'>In the last block, you committed 5 errors and did not respond in time on 2 trials.
</p><p style='font-size: 24px;'>Try to respond as fast and accurately as possible in the next block as well! </p><p style='font-size: 24px;'>Press SPACE to continue.</p>","32","","","","","","","","","","","","","","","","","","","",""
"html-keyboard-response","103","286380","0.0-3.0-5.0","fayc0sdx1arga0y","instructions","5f52b0b2834c3f06a47824e7","5f60e3c0a3b16e07647b2ff9","5f61dbfdce94911967246913","false","6310","<div align=left> Now, to practice, we kindly ask you to remember as many of the to-be-remembered pictures<br>of the previous learning phase as possible.<br><br>The pictures you were instructed to remember were the pictures followed by a <span style='color: dodgerblue; font-size: 28px'>O</span>.<br><br>In this memory test phase, you will also see some new pictures.<br>It is your task to remember whether you were presented with this specific picture in this study so far or not.<br>If you recognize an object (you have already seen it in this study), it is an OLD object. <br>If you do not recognize an object (you have NOT seen it in this study), it is a NEW object. <br><strong> Attention</strong>: As already mentioned, <span style='color: darkorange; font-size:28px'>Ø</span>-pictures will <strong>never</strong> appear in this memory test (neither as new objects). <br><br>Press SPACE to continue. </div>","32","","","","","","","","","","","","","","","","","","","",""
"html-keyboard-response","104","287312","0.0-3.0-6.0","fayc0sdx1arga0y","instructions","5f52b0b2834c3f06a47824e7","5f60e3c0a3b16e07647b2ff9","5f61dbfdce94911967246913","false","922","<div align=left> M and N no longer will appear on the left/right of the fixation cross. <br>Instead there will be a note at the bottom of the left or right side  <br>indicating which key you should press for an old or new object:  <br> <br>Press the <strong>right</strong> key to classify an object as <strong>old</strong> and press the <strong>left</strong>, to classify an object as <strong>new</strong>.<br>Please classify the objects as new/old by again placing your index finger on the 'S' and 'L' keys <br>and press them accordingly.<br><br><strong>Old:</strong> This object has been presented before. <br><strong>New:</strong> This object has <strong>not</strong> been presented.<br><br>Now please put your right and left index fingers on the 'S' and 'L' keys of your keyboard. <br>Please respond as fast and as accurately as possible!<br><br>Press SPACE to continue. </div>","32","","","","","","","","","","","","","","","","","","","",""
"categorize-image","105","297009","0.0-3.0-7.0-0.0","fayc0sdx1arga0y","practice_recog","5f52b0b2834c3f06a47824e7","5f60e3c0a3b16e07647b2ff9","5f61dbfdce94911967246913","true","9195","./Stimuli/ImagesPractice/SN75.jpg","83","","","","test","false","","76","","SN","SN75.jpg","","old","33","3","practice_recog","left","","","",""
"categorize-image","106","299717","0.0-3.0-7.0-0.1","fayc0sdx1arga0y","practice_recog","5f52b0b2834c3f06a47824e7","5f60e3c0a3b16e07647b2ff9","5f61dbfdce94911967246913","true","2205","./Stimuli/ImagesPractice/LN17.jpg","83","","","","test","true","","83","","LN","LN17.jpg","","new","34","3","practice_recog","left","","","",""
"categorize-image","107","301185","0.0-3.0-7.0-0.2","fayc0sdx1arga0y","practice_recog","5f52b0b2834c3f06a47824e7","5f60e3c0a3b16e07647b2ff9","5f61dbfdce94911967246913","true","965","./Stimuli/ImagesPractice/LN2.jpg","76","","","","test","true","","76","","LN","LN2.jpg","","old","35","3","practice_recog","right","","","",""
"categorize-image","108","303080","0.0-3.0-7.0-0.3","fayc0sdx1arga0y","practice_recog","5f52b0b2834c3f06a47824e7","5f60e3c0a3b16e07647b2ff9","5f61dbfdce94911967246913","true","1394","./Stimuli/ImagesPractice/SN205.jpg","83","","","","test","true","","83","","SN","SN205.jpg","","new","36","3","practice_recog","left","","","",""
"categorize-image","109","305545","0.0-3.0-7.0-0.4","fayc0sdx1arga0y","practice_recog","5f52b0b2834c3f06a47824e7","5f60e3c0a3b16e07647b2ff9","5f61dbfdce94911967246913","true","1962","./Stimuli/ImagesPractice/LM143.jpg","76","","","","test","true","","76","","LM","LM143.jpg","","old","37","3","practice_recog","right","","","",""
"categorize-image","110","307009","0.0-3.0-7.0-0.5","fayc0sdx1arga0y","practice_recog","5f52b0b2834c3f06a47824e7","5f60e3c0a3b16e07647b2ff9","5f61dbfdce94911967246913","true","960.9999999999418","./Stimuli/ImagesPractice/LM147.jpg","83","","","","test","true","","83","","LM","LM147.jpg","","new","38","3","practice_recog","left","","","",""
"categorize-image","111","308433","0.0-3.0-7.0-0.6","fayc0sdx1arga0y","practice_recog","5f52b0b2834c3f06a47824e7","5f60e3c0a3b16e07647b2ff9","5f61dbfdce94911967246913","true","922","./Stimuli/ImagesPractice/SN222.jpg","76","","","","test","true","","76","","SN","SN222.jpg","","old","39","3","practice_recog","right","","","",""
"categorize-image","112","310001","0.0-3.0-7.0-0.7","fayc0sdx1arga0y","practice_recog","5f52b0b2834c3f06a47824e7","5f60e3c0a3b16e07647b2ff9","5f61dbfdce94911967246913","true","1065.9999999999418","./Stimuli/ImagesPractice/SM35.jpg","83","","","","test","true","","83","","SM","SM35.jpg","","new","40","3","practice_recog","left","","","",""
"categorize-image","113","311387","0.0-3.0-7.0-0.8","fayc0sdx1arga0y","practice_recog","5f52b0b2834c3f06a47824e7","5f60e3c0a3b16e07647b2ff9","5f61dbfdce94911967246913","true","884","./Stimuli/ImagesPractice/LM239.jpg","83","","","","test","true","","83","","LM","LM239.jpg","","new","41","3","practice_recog","left","","","",""
"categorize-image","114","312817","0.0-3.0-7.0-0.9","fayc0sdx1arga0y","practice_recog","5f52b0b2834c3f06a47824e7","5f60e3c0a3b16e07647b2ff9","5f61dbfdce94911967246913","true","927","./Stimuli/ImagesPractice/SN76.jpg","76","","","","test","true","","76","","SN","SN76.jpg","","old","42","3","practice_recog","right","","","",""
"categorize-image","115","314308","0.0-3.0-7.0-0.10","fayc0sdx1arga0y","practice_recog","5f52b0b2834c3f06a47824e7","5f60e3c0a3b16e07647b2ff9","5f61dbfdce94911967246913","true","989","./Stimuli/ImagesPractice/SN220.jpg","76","","","","test","true","","76","","SN","SN220.jpg","","old","43","3","practice_recog","right","","","",""
"categorize-image","116","315817","0.0-3.0-7.0-0.11","fayc0sdx1arga0y","practice_recog","5f52b0b2834c3f06a47824e7","5f60e3c0a3b16e07647b2ff9","5f61dbfdce94911967246913","true","1006","./Stimuli/ImagesPractice/SN221.jpg","76","","","","test","true","","76","","SN","SN221.jpg","","old","44","3","practice_recog","right","","","",""
"categorize-image","117","322256","0.0-3.0-7.0-0.12","fayc0sdx1arga0y","practice_recog","5f52b0b2834c3f06a47824e7","5f60e3c0a3b16e07647b2ff9","5f61dbfdce94911967246913","true","5936","./Stimuli/ImagesPractice/SM97.jpg","83","","","","test","true","","83","","SM","SM97.jpg","","new","45","3","practice_recog","left","","","",""
"categorize-image","118","323955","0.0-3.0-7.0-0.13","fayc0sdx1arga0y","practice_recog","5f52b0b2834c3f06a47824e7","5f60e3c0a3b16e07647b2ff9","5f61dbfdce94911967246913","true","1197","./Stimuli/ImagesPractice/LM230.jpg","83","","","","test","true","","83","","LM","LM230.jpg","","new","46","3","practice_recog","left","","","",""
"categorize-image","119","325784","0.0-3.0-7.0-0.14","fayc0sdx1arga0y","practice_recog","5f52b0b2834c3f06a47824e7","5f60e3c0a3b16e07647b2ff9","5f61dbfdce94911967246913","true","1327","./Stimuli/ImagesPractice/LN109.jpg","83","","","","test","true","","83","","LN","LN109.jpg","","new","47","3","practice_recog","left","","","",""
"categorize-image","120","327232","0.0-3.0-7.0-0.15","fayc0sdx1arga0y","practice_recog","5f52b0b2834c3f06a47824e7","5f60e3c0a3b16e07647b2ff9","5f61dbfdce94911967246913","true","945","./Stimuli/ImagesPractice/LM55.jpg","76","","","","test","true","","76","","LM","LM55.jpg","","old","48","3","practice_recog","right","","","",""
"html-keyboard-response","121","336567","0.0-3.0-8.0","fayc0sdx1arga0y","instructions","5f52b0b2834c3f06a47824e7","5f60e3c0a3b16e07647b2ff9","5f61dbfdce94911967246913","false","9334","<div align=left> Great!<br><br>Are you ready to continue?<br>If you want to reread the instructions and redo the practice trials, please <br>press „Z“.<br><br>You can proceed when you are ready.<br><br>After the presentation of each object, you will receive an instruction whether to <br>remember or to forget the object.<br>We will test your memory of the following pictures only at the very end of <br>the experiment after all learning blocks are completed. <br><br>Press SPACE to CONTINUE when you are ready. </div>","32","","","","","","","","","","","","","","","","","","","",""
"html-keyboard-response","122","338234","0.0-4.0-0.0","fayc0sdx1arga0y","instructions","5f52b0b2834c3f06a47824e7","5f60e3c0a3b16e07647b2ff9","5f61dbfdce94911967246913","false","1666","<div align=left> The actual experiment is about to start.<br>The practice trials are over!<br><br>Please always respond both fast and accurately!<br><br>Remember: <br> <br><li> Please place your index fingers on the <strong>'S'</strong> and <strong>'L'</strong> keys <br>to respond as fast and accurately as possible.</li><li> Every picture can be classified as either mechanical or non-mechanical.</li><li> If you do not respond in time or commit an error, you will receive a corresponding feedback.<br> Please try to respond as <strong> fast </strong> and as <strong> accurately as possible </strong>.</li><li> Remember the <span style='color: dodgerblue; font-size: 28px'>O</span> pictures. <br></li><li> Please minimize distractions and stay focused. </li><br><br>Press SPACE to START.</div>","32","","","","","","","","","","","","","","","","","","","",""
"html-keyboard-response","123","338937","0.0-4.0-1.0-0.0","fayc0sdx1arga0y","prime","5f52b0b2834c3f06a47824e7","5f60e3c0a3b16e07647b2ff9","5f61dbfdce94911967246913","false","null","<span style=""color: black; font-size: 48px"">M + N</span>","null","","","","resp_prompt","","","","","","","","","","","","","","","",""
"categorize-image","124","340544","0.0-4.0-1.0-1.0","fayc0sdx1arga0y","prime","5f52b0b2834c3f06a47824e7","5f60e3c0a3b16e07647b2ff9","5f61dbfdce94911967246913","true","1605","./Stimuli/SelectedImages/SN/SN155.bmp","83","","","","test","false","M + N","76","switch","SN","SN155.bmp","remember","","49","3","prime1","left","","","",""
"html-keyboard-response","125","341045","0.0-4.0-1.0-2.0-0.0","fayc0sdx1arga0y","prime","5f52b0b2834c3f06a47824e7","5f60e3c0a3b16e07647b2ff9","5f61dbfdce94911967246913","false","null","<span style=""color: red; font-size: 48px"">Error!</span>","null","","","","feedback","","","","","","","","","","","","","","","",""
"html-keyboard-response","126","343047","0.0-4.0-1.0-3.0","fayc0sdx1arga0y","prime","5f52b0b2834c3f06a47824e7","5f60e3c0a3b16e07647b2ff9","5f61dbfdce94911967246913","false","null","<div style=""align-items: center; display: flex; color: dodgerblue; font-size: 90px""><b>o</b></div>","null","","","","forget_cue","","","","","","","","","","","","","","","",""
"html-keyboard-response","127","343750","0.0-4.0-1.0-0.1","fayc0sdx1arga0y","prime","5f52b0b2834c3f06a47824e7","5f60e3c0a3b16e07647b2ff9","5f61dbfdce94911967246913","false","null","<span style=""color: black; font-size: 48px"">M + N</span>","null","","","","resp_prompt","","","","","","","","","","","","","","","",""
"categorize-image","128","344955","0.0-4.0-1.0-1.1","fayc0sdx1arga0y","prime","5f52b0b2834c3f06a47824e7","5f60e3c0a3b16e07647b2ff9","5f61dbfdce94911967246913","true","1203","./Stimuli/SelectedImages/LN/LN82.bmp","83","","","","test","false","M + N","76","repetition","LN","LN82.bmp","forget","","50","3","prime1","left","","","",""
"html-keyboard-response","129","345457","0.0-4.0-1.0-2.1-0.1","fayc0sdx1arga0y","prime","5f52b0b2834c3f06a47824e7","5f60e3c0a3b16e07647b2ff9","5f61dbfdce94911967246913","false","null","<span style=""color: red; font-size: 48px"">Error!</span>","null","","","","feedback","","","","","","","","","","","","","","","",""
"html-keyboard-response","130","347459","0.0-4.0-1.0-3.1","fayc0sdx1arga0y","prime","5f52b0b2834c3f06a47824e7","5f60e3c0a3b16e07647b2ff9","5f61dbfdce94911967246913","false","null","<div style=""align-items: center; display: flex; color: darkorange; font-size: 90px""><b>ø</b></div>","null","","","","forget_cue","","","","","","","","","","","","","","","",""
"html-keyboard-response","131","348161","0.0-4.0-1.0-0.2","fayc0sdx1arga0y","prime","5f52b0b2834c3f06a47824e7","5f60e3c0a3b16e07647b2ff9","5f61dbfdce94911967246913","false","null","<span style=""color: black; font-size: 48px"">N + M</span>","null","","","","resp_prompt","","","","","","","","","","","","","","","",""
"categorize-image","132","348789","0.0-4.0-1.0-1.2","fayc0sdx1arga0y","prime","5f52b0b2834c3f06a47824e7","5f60e3c0a3b16e07647b2ff9","5f61dbfdce94911967246913","true","623","./Stimuli/SelectedImages/LM/LM167.bmp","76","","","","test","true","N + M","76","switch","LM","LM167.bmp","forget","","51","3","prime1","right","","","",""
"html-keyboard-response","133","350791","0.0-4.0-1.0-3.2","fayc0sdx1arga0y","prime","5f52b0b2834c3f06a47824e7","5f60e3c0a3b16e07647b2ff9","5f61dbfdce94911967246913","false","null","<div style=""align-items: center; display: flex; color: darkorange; font-size: 90px""><b>ø</b></div>","null","","","","forget_cue","","","","","","","","","","","","","","","",""
"html-keyboard-response","134","351493","0.0-4.0-1.0-0.3","fayc0sdx1arga0y","prime","5f52b0b2834c3f06a47824e7","5f60e3c0a3b16e07647b2ff9","5f61dbfdce94911967246913","false","null","<span style=""color: black; font-size: 48px"">N + M</span>","null","","","","resp_prompt","","","","","","","","","","","","","","","",""
"categorize-image","135","353226","0.0-4.0-1.0-1.3","fayc0sdx1arga0y","prime","5f52b0b2834c3f06a47824e7","5f60e3c0a3b16e07647b2ff9","5f61dbfdce94911967246913","true","1730","./Stimuli/SelectedImages/SM/SM205.bmp","83","","","","test","false","N + M","76","repetition","SM","SM205.bmp","forget","","52","3","prime1","left","","","",""
"html-keyboard-response","136","353727","0.0-4.0-1.0-2.3-0.3","fayc0sdx1arga0y","prime","5f52b0b2834c3f06a47824e7","5f60e3c0a3b16e07647b2ff9","5f61dbfdce94911967246913","false","null","<span style=""color: red; font-size: 48px"">Error!</span>","null","","","","feedback","","","","","","","","","","","","","","","",""
"html-keyboard-response","137","355729","0.0-4.0-1.0-3.3","fayc0sdx1arga0y","prime","5f52b0b2834c3f06a47824e7","5f60e3c0a3b16e07647b2ff9","5f61dbfdce94911967246913","false","null","<div style=""align-items: center; display: flex; color: darkorange; font-size: 90px""><b>ø</b></div>","null","","","","forget_cue","","","","","","","","","","","","","","","",""
"html-keyboard-response","138","356431","0.0-4.0-1.0-0.4","fayc0sdx1arga0y","prime","5f52b0b2834c3f06a47824e7","5f60e3c0a3b16e07647b2ff9","5f61dbfdce94911967246913","false","null","<span style=""color: black; font-size: 48px"">N + M</span>","null","","","","resp_prompt","","","","","","","","","","","","","","","",""
"categorize-image","139","356827","0.0-4.0-1.0-1.4","fayc0sdx1arga0y","prime","5f52b0b2834c3f06a47824e7","5f60e3c0a3b16e07647b2ff9","5f61dbfdce94911967246913","true","392.9999999999418","./Stimuli/SelectedImages/SM/SM78.bmp","76","","","","test","true","N + M","76","repetition","SM","SM78.bmp","remember","","53","3","prime1","right","","","",""
"html-keyboard-response","140","358829","0.0-4.0-1.0-3.4","fayc0sdx1arga0y","prime","5f52b0b2834c3f06a47824e7","5f60e3c0a3b16e07647b2ff9","5f61dbfdce94911967246913","false","null","<div style=""align-items: center; display: flex; color: dodgerblue; font-size: 90px""><b>o</b></div>","null","","","","forget_cue","","","","","","","","","","","","","","","",""
"html-keyboard-response","141","359531","0.0-4.0-1.0-0.5","fayc0sdx1arga0y","prime","5f52b0b2834c3f06a47824e7","5f60e3c0a3b16e07647b2ff9","5f61dbfdce94911967246913","false","null","<span style=""color: black; font-size: 48px"">M + N</span>","null","","","","resp_prompt","","","","","","","","","","","","","","","",""
"categorize-image","142","360238","0.0-4.0-1.0-1.5","fayc0sdx1arga0y","prime","5f52b0b2834c3f06a47824e7","5f60e3c0a3b16e07647b2ff9","5f61dbfdce94911967246913","true","705","./Stimuli/SelectedImages/SM/SM207.bmp","76","","","","test","false","M + N","83","switch","SM","SM207.bmp","remember","","54","3","prime1","right","","","",""
"html-keyboard-response","143","360740","0.0-4.0-1.0-2.5-0.5","fayc0sdx1arga0y","prime","5f52b0b2834c3f06a47824e7","5f60e3c0a3b16e07647b2ff9","5f61dbfdce94911967246913","false","null","<span style=""color: red; font-size: 48px"">Error!</span>","null","","","","feedback","","","","","","","","","","","","","","","",""
"html-keyboard-response","144","362742","0.0-4.0-1.0-3.5","fayc0sdx1arga0y","prime","5f52b0b2834c3f06a47824e7","5f60e3c0a3b16e07647b2ff9","5f61dbfdce94911967246913","false","null","<div style=""align-items: center; display: flex; color: dodgerblue; font-size: 90px""><b>o</b></div>","null","","","","forget_cue","","","","","","","","","","","","","","","",""
"html-keyboard-response","145","363444","0.0-4.0-1.0-0.6","fayc0sdx1arga0y","prime","5f52b0b2834c3f06a47824e7","5f60e3c0a3b16e07647b2ff9","5f61dbfdce94911967246913","false","null","<span style=""color: black; font-size: 48px"">N + M</span>","null","","","","resp_prompt","","","","","","","","","","","","","","","",""
"categorize-image","146","365450","0.0-4.0-1.0-1.6","fayc0sdx1arga0y","prime","5f52b0b2834c3f06a47824e7","5f60e3c0a3b16e07647b2ff9","5f61dbfdce94911967246913","true","null","./Stimuli/SelectedImages/SM/SM108.bmp","null","","","","test","false","N + M","76","switch","SM","SM108.bmp","forget","","55","3","prime1","too_slow","","","",""
"html-keyboard-response","147","365952","0.0-4.0-1.0-2.6-0.6","fayc0sdx1arga0y","prime","5f52b0b2834c3f06a47824e7","5f60e3c0a3b16e07647b2ff9","5f61dbfdce94911967246913","false","null","<span style=""color: red; font-size: 48px"">Too slow!</span>","null","","","","feedback","","","","","","","","","","","","","","","",""
"html-keyboard-response","148","367953","0.0-4.0-1.0-3.6","fayc0sdx1arga0y","prime","5f52b0b2834c3f06a47824e7","5f60e3c0a3b16e07647b2ff9","5f61dbfdce94911967246913","false","null","<div style=""align-items: center; display: flex; color: darkorange; font-size: 90px""><b>ø</b></div>","null","","","","forget_cue","","","","","","","","","","","","","","","",""
"html-keyboard-response","149","368655","0.0-4.0-1.0-0.7","fayc0sdx1arga0y","prime","5f52b0b2834c3f06a47824e7","5f60e3c0a3b16e07647b2ff9","5f61dbfdce94911967246913","false","null","<span style=""color: black; font-size: 48px"">N + M</span>","null","","","","resp_prompt","","","","","","","","","","","","","","","",""
"categorize-image","150","369610","0.0-4.0-1.0-1.7","fayc0sdx1arga0y","prime","5f52b0b2834c3f06a47824e7","5f60e3c0a3b16e07647b2ff9","5f61dbfdce94911967246913","true","953","./Stimuli/SelectedImages/LN/LN42.bmp","83","","","","test","true","N + M","83","repetition","LN","LN42.bmp","remember","","56","3","prime1","left","","","",""
"html-keyboard-response","151","371612","0.0-4.0-1.0-3.7","fayc0sdx1arga0y","prime","5f52b0b2834c3f06a47824e7","5f60e3c0a3b16e07647b2ff9","5f61dbfdce94911967246913","false","null","<div style=""align-items: center; display: flex; color: dodgerblue; font-size: 90px""><b>o</b></div>","null","","","","forget_cue","","","","","","","","","","","","","","","",""
"html-keyboard-response","152","372314","0.0-4.0-1.0-0.8","fayc0sdx1arga0y","prime","5f52b0b2834c3f06a47824e7","5f60e3c0a3b16e07647b2ff9","5f61dbfdce94911967246913","false","null","<span style=""color: black; font-size: 48px"">M + N</span>","null","","","","resp_prompt","","","","","","","","","","","","","","","",""
"categorize-image","153","373542","0.0-4.0-1.0-1.8","fayc0sdx1arga0y","prime","5f52b0b2834c3f06a47824e7","5f60e3c0a3b16e07647b2ff9","5f61dbfdce94911967246913","true","1226","./Stimuli/SelectedImages/SN/SN52.bmp","83","","","","test","false","M + N","76","repetition","SN","SN52.bmp","remember","","57","3","prime1","left","","","",""
"html-keyboard-response","154","374044","0.0-4.0-1.0-2.8-0.8","fayc0sdx1arga0y","prime","5f52b0b2834c3f06a47824e7","5f60e3c0a3b16e07647b2ff9","5f61dbfdce94911967246913","false","null","<span style=""color: red; font-size: 48px"">Error!</span>","null","","","","feedback","","","","","","","","","","","","","","","",""
"html-keyboard-response","155","376046","0.0-4.0-1.0-3.8","fayc0sdx1arga0y","prime","5f52b0b2834c3f06a47824e7","5f60e3c0a3b16e07647b2ff9","5f61dbfdce94911967246913","false","null","<div style=""align-items: center; display: flex; color: dodgerblue; font-size: 90px""><b>o</b></div>","null","","","","forget_cue","","","","","","","","","","","","","","","",""
"html-keyboard-response","156","376748","0.0-4.0-1.0-0.9","fayc0sdx1arga0y","prime","5f52b0b2834c3f06a47824e7","5f60e3c0a3b16e07647b2ff9","5f61dbfdce94911967246913","false","null","<span style=""color: black; font-size: 48px"">N + M</span>","null","","","","resp_prompt","","","","","","","","","","","","","","","",""
"categorize-image","157","377074","0.0-4.0-1.0-1.9","fayc0sdx1arga0y","prime","5f52b0b2834c3f06a47824e7","5f60e3c0a3b16e07647b2ff9","5f61dbfdce94911967246913","true","324","./Stimuli/SelectedImages/SM/SM200.bmp","76","","","","test","true","N + M","76","repetition","SM","SM200.bmp","forget","","58","3","prime1","right","","","",""
"html-keyboard-response","158","379076","0.0-4.0-1.0-3.9","fayc0sdx1arga0y","prime","5f52b0b2834c3f06a47824e7","5f60e3c0a3b16e07647b2ff9","5f61dbfdce94911967246913","false","null","<div style=""align-items: center; display: flex; color: darkorange; font-size: 90px""><b>ø</b></div>","null","","","","forget_cue","","","","","","","","","","","","","","","",""
"html-keyboard-response","159","379778","0.0-4.0-1.0-0.10","fayc0sdx1arga0y","prime","5f52b0b2834c3f06a47824e7","5f60e3c0a3b16e07647b2ff9","5f61dbfdce94911967246913","false","null","<span style=""color: black; font-size: 48px"">M + N</span>","null","","","","resp_prompt","","","","","","","","","","","","","","","",""
"categorize-image","160","380250","0.0-4.0-1.0-1.10","fayc0sdx1arga0y","prime","5f52b0b2834c3f06a47824e7","5f60e3c0a3b16e07647b2ff9","5f61dbfdce94911967246913","true","470","./Stimuli/SelectedImages/LN/LN9.bmp","83","","","","test","false","M + N","76","switch","LN","LN9.bmp","forget","","59","3","prime1","left","","","",""
"html-keyboard-response","161","380752","0.0-4.0-1.0-2.10-0.10","fayc0sdx1arga0y","prime","5f52b0b2834c3f06a47824e7","5f60e3c0a3b16e07647b2ff9","5f61dbfdce94911967246913","false","null","<span style=""color: red; font-size: 48px"">Error!</span>","null","","","","feedback","","","","","","","","","","","","","","","",""
"html-keyboard-response","162","382753","0.0-4.0-1.0-3.10","fayc0sdx1arga0y","prime","5f52b0b2834c3f06a47824e7","5f60e3c0a3b16e07647b2ff9","5f61dbfdce94911967246913","false","null","<div style=""align-items: center; display: flex; color: darkorange; font-size: 90px""><b>ø</b></div>","null","","","","forget_cue","","","","","","","","","","","","","","","",""
"html-keyboard-response","163","383455","0.0-4.0-1.0-0.11","fayc0sdx1arga0y","prime","5f52b0b2834c3f06a47824e7","5f60e3c0a3b16e07647b2ff9","5f61dbfdce94911967246913","false","null","<span style=""color: black; font-size: 48px"">N + M</span>","null","","","","resp_prompt","","","","","","","","","","","","","","","",""
"categorize-image","164","385462","0.0-4.0-1.0-1.11","fayc0sdx1arga0y","prime","5f52b0b2834c3f06a47824e7","5f60e3c0a3b16e07647b2ff9","5f61dbfdce94911967246913","true","null","./Stimuli/SelectedImages/LN/LN101.bmp","null","","","","test","false","N + M","83","repetition","LN","LN101.bmp","remember","","60","3","prime1","too_slow","","","",""
"html-keyboard-response","165","385964","0.0-4.0-1.0-2.11-0.11","fayc0sdx1arga0y","prime","5f52b0b2834c3f06a47824e7","5f60e3c0a3b16e07647b2ff9","5f61dbfdce94911967246913","false","null","<span style=""color: red; font-size: 48px"">Too slow!</span>","null","","","","feedback","","","","","","","","","","","","","","","",""
"html-keyboard-response","166","387966","0.0-4.0-1.0-3.11","fayc0sdx1arga0y","prime","5f52b0b2834c3f06a47824e7","5f60e3c0a3b16e07647b2ff9","5f61dbfdce94911967246913","false","null","<div style=""align-items: center; display: flex; color: dodgerblue; font-size: 90px""><b>o</b></div>","null","","","","forget_cue","","","","","","","","","","","","","","","",""
"html-keyboard-response","167","388668","0.0-4.0-1.0-0.12","fayc0sdx1arga0y","prime","5f52b0b2834c3f06a47824e7","5f60e3c0a3b16e07647b2ff9","5f61dbfdce94911967246913","false","null","<span style=""color: black; font-size: 48px"">M + N</span>","null","","","","resp_prompt","","","","","","","","","","","","","","","",""
"categorize-image","168","389042","0.0-4.0-1.0-1.12","fayc0sdx1arga0y","prime","5f52b0b2834c3f06a47824e7","5f60e3c0a3b16e07647b2ff9","5f61dbfdce94911967246913","true","372","./Stimuli/SelectedImages/LM/LM51.bmp","76","","","","test","false","M + N","83","switch","LM","LM51.bmp","remember","","61","3","prime1","right","","","",""
"html-keyboard-response","169","389543","0.0-4.0-1.0-2.12-0.12","fayc0sdx1arga0y","prime","5f52b0b2834c3f06a47824e7","5f60e3c0a3b16e07647b2ff9","5f61dbfdce94911967246913","false","null","<span style=""color: red; font-size: 48px"">Error!</span>","null","","","","feedback","","","","","","","","","","","","","","","",""
"html-keyboard-response","170","391545","0.0-4.0-1.0-3.12","fayc0sdx1arga0y","prime","5f52b0b2834c3f06a47824e7","5f60e3c0a3b16e07647b2ff9","5f61dbfdce94911967246913","false","null","<div style=""align-items: center; display: flex; color: dodgerblue; font-size: 90px""><b>o</b></div>","null","","","","forget_cue","","","","","","","","","","","","","","","",""
"html-keyboard-response","171","392246","0.0-4.0-1.0-0.13","fayc0sdx1arga0y","prime","5f52b0b2834c3f06a47824e7","5f60e3c0a3b16e07647b2ff9","5f61dbfdce94911967246913","false","null","<span style=""color: black; font-size: 48px"">M + N</span>","null","","","","resp_prompt","","","","","","","","","","","","","","","",""
"categorize-image","172","392905","0.0-4.0-1.0-1.13","fayc0sdx1arga0y","prime","5f52b0b2834c3f06a47824e7","5f60e3c0a3b16e07647b2ff9","5f61dbfdce94911967246913","true","657","./Stimuli/SelectedImages/SM/SM17.bmp","83","","","","test","true","M + N","83","repetition","SM","SM17.bmp","remember","","62","3","prime1","left","","","",""
"html-keyboard-response","173","394906","0.0-4.0-1.0-3.13","fayc0sdx1arga0y","prime","5f52b0b2834c3f06a47824e7","5f60e3c0a3b16e07647b2ff9","5f61dbfdce94911967246913","false","null","<div style=""align-items: center; display: flex; color: dodgerblue; font-size: 90px""><b>o</b></div>","null","","","","forget_cue","","","","","","","","","","","","","","","",""
"html-keyboard-response","174","395607","0.0-4.0-1.0-0.14","fayc0sdx1arga0y","prime","5f52b0b2834c3f06a47824e7","5f60e3c0a3b16e07647b2ff9","5f61dbfdce94911967246913","false","null","<span style=""color: black; font-size: 48px"">N + M</span>","null","","","","resp_prompt","","","","","","","","","","","","","","","",""
"categorize-image","175","396137","0.0-4.0-1.0-1.14","fayc0sdx1arga0y","prime","5f52b0b2834c3f06a47824e7","5f60e3c0a3b16e07647b2ff9","5f61dbfdce94911967246913","true","524","./Stimuli/SelectedImages/LN/LN166.bmp","83","","","","test","true","N + M","83","switch","LN","LN166.bmp","forget","","63","3","prime1","left","","","",""
"html-keyboard-response","176","398138","0.0-4.0-1.0-3.14","fayc0sdx1arga0y","prime","5f52b0b2834c3f06a47824e7","5f60e3c0a3b16e07647b2ff9","5f61dbfdce94911967246913","false","null","<div style=""align-items: center; display: flex; color: darkorange; font-size: 90px""><b>ø</b></div>","null","","","","forget_cue","","","","","","","","","","","","","","","",""
"html-keyboard-response","177","398840","0.0-4.0-1.0-0.15","fayc0sdx1arga0y","prime","5f52b0b2834c3f06a47824e7","5f60e3c0a3b16e07647b2ff9","5f61dbfdce94911967246913","false","null","<span style=""color: black; font-size: 48px"">N + M</span>","null","","","","resp_prompt","","","","","","","","","","","","","","","",""
"categorize-image","178","399298","0.0-4.0-1.0-1.15","fayc0sdx1arga0y","prime","5f52b0b2834c3f06a47824e7","5f60e3c0a3b16e07647b2ff9","5f61dbfdce94911967246913","true","455","./Stimuli/SelectedImages/SN/SN140.bmp","76","","","","test","false","N + M","83","switch","SN","SN140.bmp","remember","","64","3","prime1","right","","","",""
"html-keyboard-response","179","399800","0.0-4.0-1.0-2.15-0.15","fayc0sdx1arga0y","prime","5f52b0b2834c3f06a47824e7","5f60e3c0a3b16e07647b2ff9","5f61dbfdce94911967246913","false","null","<span style=""color: red; font-size: 48px"">Error!</span>","null","","","","feedback","","","","","","","","","","","","","","","",""
"html-keyboard-response","180","401801","0.0-4.0-1.0-3.15","fayc0sdx1arga0y","prime","5f52b0b2834c3f06a47824e7","5f60e3c0a3b16e07647b2ff9","5f61dbfdce94911967246913","false","null","<div style=""align-items: center; display: flex; color: dodgerblue; font-size: 90px""><b>o</b></div>","null","","","","forget_cue","","","","","","","","","","","","","","","",""
"html-keyboard-response","181","402503","0.0-4.0-1.0-0.16","fayc0sdx1arga0y","prime","5f52b0b2834c3f06a47824e7","5f60e3c0a3b16e07647b2ff9","5f61dbfdce94911967246913","false","null","<span style=""color: black; font-size: 48px"">N + M</span>","null","","","","resp_prompt","","","","","","","","","","","","","","","",""
"categorize-image","182","403713","0.0-4.0-1.0-1.16","fayc0sdx1arga0y","prime","5f52b0b2834c3f06a47824e7","5f60e3c0a3b16e07647b2ff9","5f61dbfdce94911967246913","true","1207","./Stimuli/SelectedImages/SN/SN27.bmp","83","","","","test","true","N + M","83","repetition","SN","SN27.bmp","remember","","65","3","prime1","left","","","",""
"html-keyboard-response","183","405715","0.0-4.0-1.0-3.16","fayc0sdx1arga0y","prime","5f52b0b2834c3f06a47824e7","5f60e3c0a3b16e07647b2ff9","5f61dbfdce94911967246913","false","null","<div style=""align-items: center; display: flex; color: dodgerblue; font-size: 90px""><b>o</b></div>","null","","","","forget_cue","","","","","","","","","","","","","","","",""
"html-keyboard-response","184","406417","0.0-4.0-1.0-0.17","fayc0sdx1arga0y","prime","5f52b0b2834c3f06a47824e7","5f60e3c0a3b16e07647b2ff9","5f61dbfdce94911967246913","false","null","<span style=""color: black; font-size: 48px"">M + N</span>","null","","","","resp_prompt","","","","","","","","","","","","","","","",""
"categorize-image","185","406933","0.0-4.0-1.0-1.17","fayc0sdx1arga0y","prime","5f52b0b2834c3f06a47824e7","5f60e3c0a3b16e07647b2ff9","5f61dbfdce94911967246913","true","513.0000000000582","./Stimuli/SelectedImages/SM/SM184.bmp","83","","","","test","true","M + N","83","switch","SM","SM184.bmp","forget","","66","3","prime1","left","","","",""
"html-keyboard-response","186","408935","0.0-4.0-1.0-3.17","fayc0sdx1arga0y","prime","5f52b0b2834c3f06a47824e7","5f60e3c0a3b16e07647b2ff9","5f61dbfdce94911967246913","false","null","<div style=""align-items: center; display: flex; color: darkorange; font-size: 90px""><b>ø</b></div>","null","","","","forget_cue","","","","","","","","","","","","","","","",""
"html-keyboard-response","187","409637","0.0-4.0-1.0-0.18","fayc0sdx1arga0y","prime","5f52b0b2834c3f06a47824e7","5f60e3c0a3b16e07647b2ff9","5f61dbfdce94911967246913","false","null","<span style=""color: black; font-size: 48px"">M + N</span>","null","","","","resp_prompt","","","","","","","","","","","","","","","",""
"categorize-image","188","410597","0.0-4.0-1.0-1.18","fayc0sdx1arga0y","prime","5f52b0b2834c3f06a47824e7","5f60e3c0a3b16e07647b2ff9","5f61dbfdce94911967246913","true","958","./Stimuli/SelectedImages/LM/LM179.bmp","83","","","","test","true","M + N","83","repetition","LM","LM179.bmp","remember","","67","3","prime1","left","","","",""
"html-keyboard-response","189","412598","0.0-4.0-1.0-3.18","fayc0sdx1arga0y","prime","5f52b0b2834c3f06a47824e7","5f60e3c0a3b16e07647b2ff9","5f61dbfdce94911967246913","false","null","<div style=""align-items: center; display: flex; color: dodgerblue; font-size: 90px""><b>o</b></div>","null","","","","forget_cue","","","","","","","","","","","","","","","",""
"html-keyboard-response","190","413300","0.0-4.0-1.0-0.19","fayc0sdx1arga0y","prime","5f52b0b2834c3f06a47824e7","5f60e3c0a3b16e07647b2ff9","5f61dbfdce94911967246913","false","null","<span style=""color: black; font-size: 48px"">M + N</span>","null","","","","resp_prompt","","","","","","","","","","","","","","","",""
"categorize-image","191","413833","0.0-4.0-1.0-1.19","fayc0sdx1arga0y","prime","5f52b0b2834c3f06a47824e7","5f60e3c0a3b16e07647b2ff9","5f61dbfdce94911967246913","true","530","./Stimuli/SelectedImages/SN/SN179.bmp","83","","","","test","false","M + N","76","switch","SN","SN179.bmp","remember","","68","3","prime1","left","","","",""
"html-keyboard-response","192","414335","0.0-4.0-1.0-2.19-0.19","fayc0sdx1arga0y","prime","5f52b0b2834c3f06a47824e7","5f60e3c0a3b16e07647b2ff9","5f61dbfdce94911967246913","false","null","<span style=""color: red; font-size: 48px"">Error!</span>","null","","","","feedback","","","","","","","","","","","","","","","",""
"html-keyboard-response","193","416337","0.0-4.0-1.0-3.19","fayc0sdx1arga0y","prime","5f52b0b2834c3f06a47824e7","5f60e3c0a3b16e07647b2ff9","5f61dbfdce94911967246913","false","null","<div style=""align-items: center; display: flex; color: dodgerblue; font-size: 90px""><b>o</b></div>","null","","","","forget_cue","","","","","","","","","","","","","","","",""
"html-keyboard-response","194","417039","0.0-4.0-1.0-0.20","fayc0sdx1arga0y","prime","5f52b0b2834c3f06a47824e7","5f60e3c0a3b16e07647b2ff9","5f61dbfdce94911967246913","false","null","<span style=""color: black; font-size: 48px"">M + N</span>","null","","","","resp_prompt","","","","","","","","","","","","","","","",""
"categorize-image","195","418346","0.0-4.0-1.0-1.20","fayc0sdx1arga0y","prime","5f52b0b2834c3f06a47824e7","5f60e3c0a3b16e07647b2ff9","5f61dbfdce94911967246913","true","1304","./Stimuli/SelectedImages/SM/SM148.bmp","83","","","","test","true","M + N","83","repetition","SM","SM148.bmp","remember","","69","3","prime1","left","","","",""
"html-keyboard-response","196","420348","0.0-4.0-1.0-3.20","fayc0sdx1arga0y","prime","5f52b0b2834c3f06a47824e7","5f60e3c0a3b16e07647b2ff9","5f61dbfdce94911967246913","false","null","<div style=""align-items: center; display: flex; color: dodgerblue; font-size: 90px""><b>o</b></div>","null","","","","forget_cue","","","","","","","","","","","","","","","",""
"html-keyboard-response","197","421050","0.0-4.0-1.0-0.21","fayc0sdx1arga0y","prime","5f52b0b2834c3f06a47824e7","5f60e3c0a3b16e07647b2ff9","5f61dbfdce94911967246913","false","null","<span style=""color: black; font-size: 48px"">M + N</span>","null","","","","resp_prompt","","","","","","","","","","","","","","","",""
"categorize-image","198","422618","0.0-4.0-1.0-1.21","fayc0sdx1arga0y","prime","5f52b0b2834c3f06a47824e7","5f60e3c0a3b16e07647b2ff9","5f61dbfdce94911967246913","true","1565","./Stimuli/SelectedImages/SM/SM213.bmp","76","","","","test","false","M + N","83","switch","SM","SM213.bmp","forget","","70","3","prime1","right","","","",""
"html-keyboard-response","199","423120","0.0-4.0-1.0-2.21-0.21","fayc0sdx1arga0y","prime","5f52b0b2834c3f06a47824e7","5f60e3c0a3b16e07647b2ff9","5f61dbfdce94911967246913","false","null","<span style=""color: red; font-size: 48px"">Error!</span>","null","","","","feedback","","","","","","","","","","","","","","","",""
"html-keyboard-response","200","425122","0.0-4.0-1.0-3.21","fayc0sdx1arga0y","prime","5f52b0b2834c3f06a47824e7","5f60e3c0a3b16e07647b2ff9","5f61dbfdce94911967246913","false","null","<div style=""align-items: center; display: flex; color: darkorange; font-size: 90px""><b>ø</b></div>","null","","","","forget_cue","","","","","","","","","","","","","","","",""
"html-keyboard-response","201","425824","0.0-4.0-1.0-0.22","fayc0sdx1arga0y","prime","5f52b0b2834c3f06a47824e7","5f60e3c0a3b16e07647b2ff9","5f61dbfdce94911967246913","false","null","<span style=""color: black; font-size: 48px"">M + N</span>","null","","","","resp_prompt","","","","","","","","","","","","","","","",""
"categorize-image","202","425906","0.0-4.0-1.0-1.22","fayc0sdx1arga0y","prime","5f52b0b2834c3f06a47824e7","5f60e3c0a3b16e07647b2ff9","5f61dbfdce94911967246913","true","79","./Stimuli/SelectedImages/LM/LM103.bmp","83","","","","test","true","M + N","83","switch","LM","LM103.bmp","remember","","71","3","prime1","left","","","",""
"html-keyboard-response","203","427908","0.0-4.0-1.0-3.22","fayc0sdx1arga0y","prime","5f52b0b2834c3f06a47824e7","5f60e3c0a3b16e07647b2ff9","5f61dbfdce94911967246913","false","null","<div style=""align-items: center; display: flex; color: dodgerblue; font-size: 90px""><b>o</b></div>","null","","","","forget_cue","","","","","","","","","","","","","","","",""
"html-keyboard-response","204","428610","0.0-4.0-1.0-0.23","fayc0sdx1arga0y","prime","5f52b0b2834c3f06a47824e7","5f60e3c0a3b16e07647b2ff9","5f61dbfdce94911967246913","false","null","<span style=""color: black; font-size: 48px"">M + N</span>","null","","","","resp_prompt","","","","","","","","","","","","","","","",""
"categorize-image","205","429050","0.0-4.0-1.0-1.23","fayc0sdx1arga0y","prime","5f52b0b2834c3f06a47824e7","5f60e3c0a3b16e07647b2ff9","5f61dbfdce94911967246913","true","437","./Stimuli/SelectedImages/SN/SN240.bmp","76","","","","test","true","M + N","76","switch","SN","SN240.bmp","forget","","72","3","prime1","right","","","",""
"html-keyboard-response","206","431052","0.0-4.0-1.0-3.23","fayc0sdx1arga0y","prime","5f52b0b2834c3f06a47824e7","5f60e3c0a3b16e07647b2ff9","5f61dbfdce94911967246913","false","null","<div style=""align-items: center; display: flex; color: darkorange; font-size: 90px""><b>ø</b></div>","null","","","","forget_cue","","","","","","","","","","","","","","","",""
"html-keyboard-response","207","431754","0.0-4.0-1.0-0.24","fayc0sdx1arga0y","prime","5f52b0b2834c3f06a47824e7","5f60e3c0a3b16e07647b2ff9","5f61dbfdce94911967246913","false","null","<span style=""color: black; font-size: 48px"">N + M</span>","null","","","","resp_prompt","","","","","","","","","","","","","","","",""
"categorize-image","208","432053","0.0-4.0-1.0-1.24","fayc0sdx1arga0y","prime","5f52b0b2834c3f06a47824e7","5f60e3c0a3b16e07647b2ff9","5f61dbfdce94911967246913","true","296","./Stimuli/SelectedImages/LN/LN177.bmp","76","","","","test","false","N + M","83","repetition","LN","LN177.bmp","forget","","73","3","prime1","right","","","",""
"html-keyboard-response","209","432555","0.0-4.0-1.0-2.24-0.24","fayc0sdx1arga0y","prime","5f52b0b2834c3f06a47824e7","5f60e3c0a3b16e07647b2ff9","5f61dbfdce94911967246913","false","null","<span style=""color: red; font-size: 48px"">Error!</span>","null","","","","feedback","","","","","","","","","","","","","","","",""
"html-keyboard-response","210","434557","0.0-4.0-1.0-3.24","fayc0sdx1arga0y","prime","5f52b0b2834c3f06a47824e7","5f60e3c0a3b16e07647b2ff9","5f61dbfdce94911967246913","false","null","<div style=""align-items: center; display: flex; color: darkorange; font-size: 90px""><b>ø</b></div>","null","","","","forget_cue","","","","","","","","","","","","","","","",""
"html-keyboard-response","211","435259","0.0-4.0-1.0-0.25","fayc0sdx1arga0y","prime","5f52b0b2834c3f06a47824e7","5f60e3c0a3b16e07647b2ff9","5f61dbfdce94911967246913","false","null","<span style=""color: black; font-size: 48px"">N + M</span>","null","","","","resp_prompt","","","","","","","","","","","","","","","",""
"categorize-image","212","435570","0.0-4.0-1.0-1.25","fayc0sdx1arga0y","prime","5f52b0b2834c3f06a47824e7","5f60e3c0a3b16e07647b2ff9","5f61dbfdce94911967246913","true","308","./Stimuli/SelectedImages/SM/SM106.bmp","83","","","","test","false","N + M","76","switch","SM","SM106.bmp","remember","","74","3","prime1","left","","","",""
"html-keyboard-response","213","436071","0.0-4.0-1.0-2.25-0.25","fayc0sdx1arga0y","prime","5f52b0b2834c3f06a47824e7","5f60e3c0a3b16e07647b2ff9","5f61dbfdce94911967246913","false","null","<span style=""color: red; font-size: 48px"">Error!</span>","null","","","","feedback","","","","","","","","","","","","","","","",""
"html-keyboard-response","214","438073","0.0-4.0-1.0-3.25","fayc0sdx1arga0y","prime","5f52b0b2834c3f06a47824e7","5f60e3c0a3b16e07647b2ff9","5f61dbfdce94911967246913","false","null","<div style=""align-items: center; display: flex; color: dodgerblue; font-size: 90px""><b>o</b></div>","null","","","","forget_cue","","","","","","","","","","","","","","","",""
"html-keyboard-response","215","438775","0.0-4.0-1.0-0.26","fayc0sdx1arga0y","prime","5f52b0b2834c3f06a47824e7","5f60e3c0a3b16e07647b2ff9","5f61dbfdce94911967246913","false","null","<span style=""color: black; font-size: 48px"">N + M</span>","null","","","","resp_prompt","","","","","","","","","","","","","","","",""
"categorize-image","216","439953","0.0-4.0-1.0-1.26","fayc0sdx1arga0y","prime","5f52b0b2834c3f06a47824e7","5f60e3c0a3b16e07647b2ff9","5f61dbfdce94911967246913","true","1175","./Stimuli/SelectedImages/SM/SM73.bmp","76","","","","test","true","N + M","76","repetition","SM","SM73.bmp","remember","","75","3","prime1","right","","","",""
"html-keyboard-response","217","441955","0.0-4.0-1.0-3.26","fayc0sdx1arga0y","prime","5f52b0b2834c3f06a47824e7","5f60e3c0a3b16e07647b2ff9","5f61dbfdce94911967246913","false","null","<div style=""align-items: center; display: flex; color: dodgerblue; font-size: 90px""><b>o</b></div>","null","","","","forget_cue","","","","","","","","","","","","","","","",""
"html-keyboard-response","218","442657","0.0-4.0-1.0-0.27","fayc0sdx1arga0y","prime","5f52b0b2834c3f06a47824e7","5f60e3c0a3b16e07647b2ff9","5f61dbfdce94911967246913","false","null","<span style=""color: black; font-size: 48px"">M + N</span>","null","","","","resp_prompt","","","","","","","","","","","","","","","",""
"categorize-image","219","443357","0.0-4.0-1.0-1.27","fayc0sdx1arga0y","prime","5f52b0b2834c3f06a47824e7","5f60e3c0a3b16e07647b2ff9","5f61dbfdce94911967246913","true","698","./Stimuli/SelectedImages/LM/LM75.bmp","76","","","","test","false","M + N","83","repetition","LM","LM75.bmp","remember","","76","3","prime1","right","","","",""
"html-keyboard-response","220","443859","0.0-4.0-1.0-2.27-0.27","fayc0sdx1arga0y","prime","5f52b0b2834c3f06a47824e7","5f60e3c0a3b16e07647b2ff9","5f61dbfdce94911967246913","false","null","<span style=""color: red; font-size: 48px"">Error!</span>","null","","","","feedback","","","","","","","","","","","","","","","",""
"html-keyboard-response","221","445861","0.0-4.0-1.0-3.27","fayc0sdx1arga0y","prime","5f52b0b2834c3f06a47824e7","5f60e3c0a3b16e07647b2ff9","5f61dbfdce94911967246913","false","null","<div style=""align-items: center; display: flex; color: dodgerblue; font-size: 90px""><b>o</b></div>","null","","","","forget_cue","","","","","","","","","","","","","","","",""
"html-keyboard-response","222","446563","0.0-4.0-1.0-0.28","fayc0sdx1arga0y","prime","5f52b0b2834c3f06a47824e7","5f60e3c0a3b16e07647b2ff9","5f61dbfdce94911967246913","false","null","<span style=""color: black; font-size: 48px"">N + M</span>","null","","","","resp_prompt","","","","","","","","","","","","","","","",""
"categorize-image","223","447105","0.0-4.0-1.0-1.28","fayc0sdx1arga0y","prime","5f52b0b2834c3f06a47824e7","5f60e3c0a3b16e07647b2ff9","5f61dbfdce94911967246913","true","541","./Stimuli/SelectedImages/LM/LM100.bmp","83","","","","test","false","N + M","76","switch","LM","LM100.bmp","forget","","77","3","prime1","left","","","",""
"html-keyboard-response","224","447607","0.0-4.0-1.0-2.28-0.28","fayc0sdx1arga0y","prime","5f52b0b2834c3f06a47824e7","5f60e3c0a3b16e07647b2ff9","5f61dbfdce94911967246913","false","null","<span style=""color: red; font-size: 48px"">Error!</span>","null","","","","feedback","","","","","","","","","","","","","","","",""
"html-keyboard-response","225","449609","0.0-4.0-1.0-3.28","fayc0sdx1arga0y","prime","5f52b0b2834c3f06a47824e7","5f60e3c0a3b16e07647b2ff9","5f61dbfdce94911967246913","false","null","<div style=""align-items: center; display: flex; color: darkorange; font-size: 90px""><b>ø</b></div>","null","","","","forget_cue","","","","","","","","","","","","","","","",""
"html-keyboard-response","226","450311","0.0-4.0-1.0-0.29","fayc0sdx1arga0y","prime","5f52b0b2834c3f06a47824e7","5f60e3c0a3b16e07647b2ff9","5f61dbfdce94911967246913","false","null","<span style=""color: black; font-size: 48px"">M + N</span>","null","","","","resp_prompt","","","","","","","","","","","","","","","",""
"categorize-image","227","450697","0.0-4.0-1.0-1.29","fayc0sdx1arga0y","prime","5f52b0b2834c3f06a47824e7","5f60e3c0a3b16e07647b2ff9","5f61dbfdce94911967246913","true","383","./Stimuli/SelectedImages/SM/SM24.bmp","76","","","","test","false","M + N","83","repetition","SM","SM24.bmp","forget","","78","3","prime1","right","","","",""
"html-keyboard-response","228","451199","0.0-4.0-1.0-2.29-0.29","fayc0sdx1arga0y","prime","5f52b0b2834c3f06a47824e7","5f60e3c0a3b16e07647b2ff9","5f61dbfdce94911967246913","false","null","<span style=""color: red; font-size: 48px"">Error!</span>","null","","","","feedback","","","","","","","","","","","","","","","",""
"html-keyboard-response","229","453201","0.0-4.0-1.0-3.29","fayc0sdx1arga0y","prime","5f52b0b2834c3f06a47824e7","5f60e3c0a3b16e07647b2ff9","5f61dbfdce94911967246913","false","null","<div style=""align-items: center; display: flex; color: darkorange; font-size: 90px""><b>ø</b></div>","null","","","","forget_cue","","","","","","","","","","","","","","","",""
"html-keyboard-response","230","453903","0.0-4.0-1.0-0.30","fayc0sdx1arga0y","prime","5f52b0b2834c3f06a47824e7","5f60e3c0a3b16e07647b2ff9","5f61dbfdce94911967246913","false","null","<span style=""color: black; font-size: 48px"">M + N</span>","null","","","","resp_prompt","","","","","","","","","","","","","","","",""
"categorize-image","231","455910","0.0-4.0-1.0-1.30","fayc0sdx1arga0y","prime","5f52b0b2834c3f06a47824e7","5f60e3c0a3b16e07647b2ff9","5f61dbfdce94911967246913","true","null","./Stimuli/SelectedImages/LN/LN59.bmp","null","","","","test","false","M + N","76","switch","LN","LN59.bmp","remember","","79","3","prime1","too_slow","","","",""
"html-keyboard-response","232","456412","0.0-4.0-1.0-2.30-0.30","fayc0sdx1arga0y","prime","5f52b0b2834c3f06a47824e7","5f60e3c0a3b16e07647b2ff9","5f61dbfdce94911967246913","false","null","<span style=""color: red; font-size: 48px"">Too slow!</span>","null","","","","feedback","","","","","","","","","","","","","","","",""
"html-keyboard-response","233","458414","0.0-4.0-1.0-3.30","fayc0sdx1arga0y","prime","5f52b0b2834c3f06a47824e7","5f60e3c0a3b16e07647b2ff9","5f61dbfdce94911967246913","false","null","<div style=""align-items: center; display: flex; color: dodgerblue; font-size: 90px""><b>o</b></div>","null","","","","forget_cue","","","","","","","","","","","","","","","",""
"html-keyboard-response","234","459116","0.0-4.0-1.0-0.31","fayc0sdx1arga0y","prime","5f52b0b2834c3f06a47824e7","5f60e3c0a3b16e07647b2ff9","5f61dbfdce94911967246913","false","null","<span style=""color: black; font-size: 48px"">N + M</span>","null","","","","resp_prompt","","","","","","","","","","","","","","","",""
"categorize-image","235","459807","0.0-4.0-1.0-1.31","fayc0sdx1arga0y","prime","5f52b0b2834c3f06a47824e7","5f60e3c0a3b16e07647b2ff9","5f61dbfdce94911967246913","true","688","./Stimuli/SelectedImages/SN/SN93.bmp","83","","","","test","true","N + M","83","switch","SN","SN93.bmp","forget","","80","3","prime1","left","","","",""
"html-keyboard-response","236","461809","0.0-4.0-1.0-3.31","fayc0sdx1arga0y","prime","5f52b0b2834c3f06a47824e7","5f60e3c0a3b16e07647b2ff9","5f61dbfdce94911967246913","false","null","<div style=""align-items: center; display: flex; color: darkorange; font-size: 90px""><b>ø</b></div>","null","","","","forget_cue","","","","","","","","","","","","","","","",""
"html-keyboard-response","237","462510","0.0-4.0-1.0-0.32","fayc0sdx1arga0y","prime","5f52b0b2834c3f06a47824e7","5f60e3c0a3b16e07647b2ff9","5f61dbfdce94911967246913","false","null","<span style=""color: black; font-size: 48px"">M + N</span>","null","","","","resp_prompt","","","","","","","","","","","","","","","",""
"categorize-image","238","463209","0.0-4.0-1.0-1.32","fayc0sdx1arga0y","prime","5f52b0b2834c3f06a47824e7","5f60e3c0a3b16e07647b2ff9","5f61dbfdce94911967246913","true","696","./Stimuli/SelectedImages/LN/LN128.bmp","83","","","","test","false","M + N","76","repetition","LN","LN128.bmp","forget","","81","3","prime1","left","","","",""
"html-keyboard-response","239","463711","0.0-4.0-1.0-2.32-0.32","fayc0sdx1arga0y","prime","5f52b0b2834c3f06a47824e7","5f60e3c0a3b16e07647b2ff9","5f61dbfdce94911967246913","false","null","<span style=""color: red; font-size: 48px"">Error!</span>","null","","","","feedback","","","","","","","","","","","","","","","",""
"html-keyboard-response","240","465712","0.0-4.0-1.0-3.32","fayc0sdx1arga0y","prime","5f52b0b2834c3f06a47824e7","5f60e3c0a3b16e07647b2ff9","5f61dbfdce94911967246913","false","null","<div style=""align-items: center; display: flex; color: darkorange; font-size: 90px""><b>ø</b></div>","null","","","","forget_cue","","","","","","","","","","","","","","","",""
"html-keyboard-response","241","466414","0.0-4.0-1.0-0.33","fayc0sdx1arga0y","prime","5f52b0b2834c3f06a47824e7","5f60e3c0a3b16e07647b2ff9","5f61dbfdce94911967246913","false","null","<span style=""color: black; font-size: 48px"">N + M</span>","null","","","","resp_prompt","","","","","","","","","","","","","","","",""
"categorize-image","242","468421","0.0-4.0-1.0-1.33","fayc0sdx1arga0y","prime","5f52b0b2834c3f06a47824e7","5f60e3c0a3b16e07647b2ff9","5f61dbfdce94911967246913","true","null","./Stimuli/SelectedImages/LM/LM157.bmp","null","","","","test","false","N + M","76","switch","LM","LM157.bmp","remember","","82","3","prime1","too_slow","","","",""
"html-keyboard-response","243","468924","0.0-4.0-1.0-2.33-0.33","fayc0sdx1arga0y","prime","5f52b0b2834c3f06a47824e7","5f60e3c0a3b16e07647b2ff9","5f61dbfdce94911967246913","false","null","<span style=""color: red; font-size: 48px"">Too slow!</span>","null","","","","feedback","","","","","","","","","","","","","","","",""
"html-keyboard-response","244","470925","0.0-4.0-1.0-3.33","fayc0sdx1arga0y","prime","5f52b0b2834c3f06a47824e7","5f60e3c0a3b16e07647b2ff9","5f61dbfdce94911967246913","false","null","<div style=""align-items: center; display: flex; color: dodgerblue; font-size: 90px""><b>o</b></div>","null","","","","forget_cue","","","","","","","","","","","","","","","",""
"html-keyboard-response","245","471627","0.0-4.0-1.0-0.34","fayc0sdx1arga0y","prime","5f52b0b2834c3f06a47824e7","5f60e3c0a3b16e07647b2ff9","5f61dbfdce94911967246913","false","null","<span style=""color: black; font-size: 48px"">N + M</span>","null","","","","resp_prompt","","","","","","","","","","","","","","","",""
"categorize-image","246","472511","0.0-4.0-1.0-1.34","fayc0sdx1arga0y","prime","5f52b0b2834c3f06a47824e7","5f60e3c0a3b16e07647b2ff9","5f61dbfdce94911967246913","true","881","./Stimuli/SelectedImages/SN/SN187.bmp","83","","","","test","true","N + M","83","repetition","SN","SN187.bmp","forget","","83","3","prime1","left","","","",""
"html-keyboard-response","247","474512","0.0-4.0-1.0-3.34","fayc0sdx1arga0y","prime","5f52b0b2834c3f06a47824e7","5f60e3c0a3b16e07647b2ff9","5f61dbfdce94911967246913","false","null","<div style=""align-items: center; display: flex; color: darkorange; font-size: 90px""><b>ø</b></div>","null","","","","forget_cue","","","","","","","","","","","","","","","",""
"html-keyboard-response","248","475214","0.0-4.0-1.0-0.35","fayc0sdx1arga0y","prime","5f52b0b2834c3f06a47824e7","5f60e3c0a3b16e07647b2ff9","5f61dbfdce94911967246913","false","null","<span style=""color: black; font-size: 48px"">M + N</span>","null","","","","resp_prompt","","","","","","","","","","","","","","","",""
"categorize-image","249","477217","0.0-4.0-1.0-1.35","fayc0sdx1arga0y","prime","5f52b0b2834c3f06a47824e7","5f60e3c0a3b16e07647b2ff9","5f61dbfdce94911967246913","true","null","./Stimuli/SelectedImages/LM/LM216.bmp","null","","","","test","false","M + N","83","switch","LM","LM216.bmp","forget","","84","3","prime1","too_slow","","","",""
"html-keyboard-response","250","477719","0.0-4.0-1.0-2.35-0.35","fayc0sdx1arga0y","prime","5f52b0b2834c3f06a47824e7","5f60e3c0a3b16e07647b2ff9","5f61dbfdce94911967246913","false","null","<span style=""color: red; font-size: 48px"">Too slow!</span>","null","","","","feedback","","","","","","","","","","","","","","","",""
"html-keyboard-response","251","479721","0.0-4.0-1.0-3.35","fayc0sdx1arga0y","prime","5f52b0b2834c3f06a47824e7","5f60e3c0a3b16e07647b2ff9","5f61dbfdce94911967246913","false","null","<div style=""align-items: center; display: flex; color: darkorange; font-size: 90px""><b>ø</b></div>","null","","","","forget_cue","","","","","","","","","","","","","","","",""
"html-keyboard-response","252","480423","0.0-4.0-1.0-0.36","fayc0sdx1arga0y","prime","5f52b0b2834c3f06a47824e7","5f60e3c0a3b16e07647b2ff9","5f61dbfdce94911967246913","false","null","<span style=""color: black; font-size: 48px"">M + N</span>","null","","","","resp_prompt","","","","","","","","","","","","","","","",""
"categorize-image","253","482430","0.0-4.0-1.0-1.36","fayc0sdx1arga0y","prime","5f52b0b2834c3f06a47824e7","5f60e3c0a3b16e07647b2ff9","5f61dbfdce94911967246913","true","null","./Stimuli/SelectedImages/SN/SN111.bmp","null","","","","test","false","M + N","76","repetition","SN","SN111.bmp","forget","","85","3","prime1","too_slow","","","",""
"html-keyboard-response","254","482931","0.0-4.0-1.0-2.36-0.36","fayc0sdx1arga0y","prime","5f52b0b2834c3f06a47824e7","5f60e3c0a3b16e07647b2ff9","5f61dbfdce94911967246913","false","null","<span style=""color: red; font-size: 48px"">Too slow!</span>","null","","","","feedback","","","","","","","","","","","","","","","",""
"html-keyboard-response","255","484933","0.0-4.0-1.0-3.36","fayc0sdx1arga0y","prime","5f52b0b2834c3f06a47824e7","5f60e3c0a3b16e07647b2ff9","5f61dbfdce94911967246913","false","null","<div style=""align-items: center; display: flex; color: darkorange; font-size: 90px""><b>ø</b></div>","null","","","","forget_cue","","","","","","","","","","","","","","","",""
"html-keyboard-response","256","485635","0.0-4.0-1.0-0.37","fayc0sdx1arga0y","prime","5f52b0b2834c3f06a47824e7","5f60e3c0a3b16e07647b2ff9","5f61dbfdce94911967246913","false","null","<span style=""color: black; font-size: 48px"">N + M</span>","null","","","","resp_prompt","","","","","","","","","","","","","","","",""
"categorize-image","257","487642","0.0-4.0-1.0-1.37","fayc0sdx1arga0y","prime","5f52b0b2834c3f06a47824e7","5f60e3c0a3b16e07647b2ff9","5f61dbfdce94911967246913","true","null","./Stimuli/SelectedImages/LM/LM48.bmp","null","","","","test","false","N + M","76","repetition","LM","LM48.bmp","remember","","86","3","prime1","too_slow","","","",""
