"trial_type","trial_index","time_elapsed","internal_node_id","subject","exp_part","prolific_PID","study_ID","session_ID","use","rt","stimulus","key_press","button_pressed","responses","question_order","trial_part","correct","resp_map","correct_resp","probe_condition","category","image","forget_condition","list","trial_num","block_num","block","response","test_part","n_span","sequence","num_spaces"
"pavlovia","0","3","0.0-0.0","yww0dhrho7pr0wv","","5edba672293f3b028b70eb25","5f60e3c0a3b16e07647b2ff9","5f647ecfb8a76e212778ac23","false","","","","","","","","","","","","","","","","","","","","","","",""
"html-keyboard-response","1","23479","0.0-1.0-0.0-0.0","yww0dhrho7pr0wv","welcome","5edba672293f3b028b70eb25","5f60e3c0a3b16e07647b2ff9","5f647ecfb8a76e212778ac23","false","23473.669999977574","<div align=left>Dear participant, <br> thank you for participating in an online study of the Cognition, Action, and Sustainability Unit of the University of Freiburg! <br> <br>The aim of this study is to examine our ability to remember previously learned information. <br>Our goal is to find out, whether our memory improves, when we only remember information that is relevant to us. <br>The experiment will take about 35 minutes to complete. <br> <br>Please, note that you can only participate in this study if you are using a device with a keyboard (PC, Laptop etc.) <br>and not if you are using a mobile device such as a tablet or smartphone.<br> <br>Press 'SPACE' to proceed to the experiment. </div>","32","","","","","","","","","","","","","","","","","","","",""
"html-keyboard-response","2","138276","0.0-1.0-0.0-1.0","yww0dhrho7pr0wv","welcome","5edba672293f3b028b70eb25","5f60e3c0a3b16e07647b2ff9","5f647ecfb8a76e212778ac23","false","114795.16500001773","<div align=left><strong> Time Course of this experiment: </strong> <br><br> <strong> 1.</strong>  First, please fill in some information regarding your demographic data. <br><br> <strong> 2.</strong>  Next, your task will be to classify everyday objects. <br>In addition, you will be asked to remember certain objects and recall them later. <br>Working on these tasks requires your undivided attention and concentration.<br>It is therefore essential that you eliminate any sources of distraction in your  <br>environment and ensure that you will not be disturbed. <br><br><strong> 3.</strong>  At the end of the experiment, you will be asked to answer a few additional questions. <br> <br><strong> Important:</strong> After finishing the experiment, only close the browser window <br> by clicking on the 'end the experiment'-button when you are asked to do so. <br>Closing the browser window prematurely will make the allocation of your participation credit impossible. <br><br> Press 'SPACE' to start the experiment. </div>","32","","","","","","","","","","","","","","","","","","","",""
"html-button-response","3","143088","0.0-1.0-0.0-2.0","yww0dhrho7pr0wv","welcome","5edba672293f3b028b70eb25","5f60e3c0a3b16e07647b2ff9","5f647ecfb8a76e212778ac23","true","4809.284999966621","<div align=left><strong> Informed consent </strong>  <br>The aim of our research is to better understand human behavior and mental processes. <br>In the following study your behavior (e.g. choices, reaction times) will be studied. <br> <br><strong> Voluntariness and Anonymity </strong> <br>Your participation in this study is  <strong> voluntary</strong>.<br>You may withdraw your consent to participate at any time without providing a reason for doing so and without fear of prejudice. <br><br>As no personal data will be collected, <strong>your data and your person cannot be connected after data collection</strong> – the data-set is anonymous. <br>Respectively, deletion of your data will not be possible after data collection has been completed, as we cannot retrace your data-set.<br>The results and anonymized data collected in this study will be published as a scientific publication. <br>This will happen in an <strong>anonymized format</strong>, so that no data can be traced back to a specific person. <br> <br>The anonymized data of this study will be made available to other researchers and/or in a data archive on the Internet as a means of transparency and to enable subsequent re-use. By doing so, this study follows the recommendations of the Deutsche Forschungsgemeinschaft (DFG, German Research Foundation) and Deutsche Gesellschaft für Psychologie (DGPS, German Psychological Society) regarding quality assurance in research.<br>If you have any questions now or after the experiment, please contact our team (experiments@cs.uni-freiburg.de).<br><br><br>I hereby declare, that I understand the above described conditions of participation and I agree to participate under these conditions. <br><br> </div>","","0","","","","","","","","","","","","","","","","","","",""
"html-keyboard-response","4","168540","0.0-1.0-0.0-3.0","yww0dhrho7pr0wv","welcome","5edba672293f3b028b70eb25","5f60e3c0a3b16e07647b2ff9","5f647ecfb8a76e212778ac23","false","25448.889999999665","<div align=left><strong> General information concerning the experiment </strong>  <br> <br>Please follow the instructions:<ol> <li><strong> Do not leave this tab (your browser window) during the experiment and do not reload this tab! </strong>  <br>If you do switch tabs/windows during the experiment (to check your mail or visit another website, for example), <br>the experiment will end automatically and you will <strong>not receive credit</strong> for your participation. <br>Repeated participation or resumption of the experiment is impossible.</li> <br><li>Please close all other programs for the duration of your participation. </li> <br><li>Please mute or turn off your phone and put it out of your reach. </li> <br><li>Please also take off any disturbing accessories (such as wristwatches, bracelets, etc.). </li> <br><li>If you have music playing in the background, please turn it off now. </li> <br></ol>Thank you! <br>Press 'SPACE' to continue. </div>","32","","","","","","","","","","","","","","","","","","","",""
"survey-text","5","172082","0.0-1.0-1.0-0.0","yww0dhrho7pr0wv","demographics","5edba672293f3b028b70eb25","5f60e3c0a3b16e07647b2ff9","5f647ecfb8a76e212778ac23","true","3536.629999987781","","","","{""age"":""34""}","","","","","","","","","","","","","","","","","",""
"survey-multi-choice","6","195881","0.0-1.0-1.0-1.0","yww0dhrho7pr0wv","demographics","5edba672293f3b028b70eb25","5f60e3c0a3b16e07647b2ff9","5f647ecfb8a76e212778ac23","true","23795.01999996137","","","","{""gender"":""male"",""school"":""others"",""education"":""Completed university degree or equivalent""}","[0,1,2]","","","","","","","","","","","","","","","","",""
"html-keyboard-response","7","331884","0.0-1.0-2.0","yww0dhrho7pr0wv","instructions","5edba672293f3b028b70eb25","5f60e3c0a3b16e07647b2ff9","5f647ecfb8a76e212778ac23","false","136000.54999999702","<div align=left> The experiment is now about to start: <br> <br>In the following part, you will be presented pictures of everyday objects. <br>Your first task is to <strong>classify these objects. </strong> <br> <br> You will classify them either as mechanical or non-mechanical objects. <br> <br>Objects that include any kind of technical mechanism (for example, wheels, switches, levers, <br> electronic components) fall under the category of <strong>mechanical</strong> objects. <br>Only objects without any kind of technical mechanism should be classified as <strong>non-mechanical</strong>. <br><br>Press 'SPACE' to continue. </div>","32","","","","","","","","","","","","","","","","","","","",""
"html-keyboard-response","8","367288","0.0-2.0-0.0","yww0dhrho7pr0wv","instructions","5edba672293f3b028b70eb25","5f60e3c0a3b16e07647b2ff9","5f647ecfb8a76e212778ac23","false","35402.44500001427","<div align=justify>You will classify the objects using the <strong>'S'</strong> and the <strong>'L'</strong> keys on your keyboard.<br>For doing so, please place your <strong>left index finger</strong> on the <strong>'S'</strong> key and place your <strong>right index finger</strong> on the <strong>'L'</strong> key. <br><br> Each trial starts with an instruction, indicating which key ('S'/'L') you need to press to classify <br>the object as mechanical (letter M) or non-mechanical (letter N).<br>The instruction <strong>M + N</strong> indicates that, in the current trial, by pressing the left key ('S') you classify the displayed object as mechanical (M) <br> and by pressing the right key ('L') you classify the object as non-mechanical (N). <br>The instruction <strong>N + M</strong> on the other hand indicates that by pressing the left key ('S') you classify the displayed object as non-mechanical (N) <br> and by pressing the right key ('L') you classify the object as mechanical (M). <br><br>Please press the key corresponding to the correct classification as fast as possible as soon as the object is displayed and try to avoid making mistakes.<br>If you do not respond within a 2 second window, a corresponding feedback will be displayed and the next trial will start.<br> The experiment is divided into multiple blocks to give you the opportunity to take a break after each block. <br>First, you can now practice this task. <br><br>Please place your <strong>LEFT INDEX FINGER</strong> on the 'S' key and your <strong>RIGHT INDEX FINGER</strong> on the 'L' key now. <br><br>Press SPACE to continue.</div>","32","","","","","","","","","","","","","","","","","","","",""
"html-keyboard-response","9","379320","0.0-2.0-1.0","yww0dhrho7pr0wv","instructions","5edba672293f3b028b70eb25","5f60e3c0a3b16e07647b2ff9","5f647ecfb8a76e212778ac23","false","12030.14000004623","<div align=left> You will now have time to practice this task.<br><br>Remember: <br> <br><li>Please place your index fingers on the <strong>'S'</strong> and <strong>'L'</strong> keys <br>to respond as fast and accurately as possible.</li><li>Every picture can be classified as either mechanical or non-mechanical.</li><li>If you do not respond in time or commit an error, you will receive a corresponding feedback. </li><li> Please try to respond as <strong> fast </strong> and as <strong> accurately as possible </strong> .<br><li>To ensure optimal results, please minimize distractions and stay focused. </li><br><br>Press SPACE to continue.</div>","32","","","","","","","","","","","","","","","","","","","",""
"html-keyboard-response","10","380024","0.0-2.0-2.0-0.0","yww0dhrho7pr0wv","practice_no_cue","5edba672293f3b028b70eb25","5f60e3c0a3b16e07647b2ff9","5f647ecfb8a76e212778ac23","false","null","<span style=""color: black; font-size: 48px"">N + M</span>","null","","","","resp_prompt","","","","","","","","","","","","","","","",""
"categorize-image","11","381178","0.0-2.0-2.0-1.0","yww0dhrho7pr0wv","practice_no_cue","5edba672293f3b028b70eb25","5f60e3c0a3b16e07647b2ff9","5f647ecfb8a76e212778ac23","true","650.1550000393763","./Stimuli/ImagesPractice/LN17.jpg","76","","","","test","false","N + M","83","","LN","LN17.jpg","remember","old","1","1","start","right","","","",""
"html-keyboard-response","12","381881","0.0-2.0-2.0-0.1","yww0dhrho7pr0wv","practice_no_cue","5edba672293f3b028b70eb25","5f60e3c0a3b16e07647b2ff9","5f647ecfb8a76e212778ac23","false","null","<span style=""color: black; font-size: 48px"">N + M</span>","null","","","","resp_prompt","","","","","","","","","","","","","","","",""
"categorize-image","13","384385","0.0-2.0-2.0-1.1","yww0dhrho7pr0wv","practice_no_cue","5edba672293f3b028b70eb25","5f60e3c0a3b16e07647b2ff9","5f647ecfb8a76e212778ac23","true","null","./Stimuli/ImagesPractice/SM98.jpg","null","","","","test","false","N + M","76","","SM","SM98.jpg","remember","old","2","1","start","too_slow","","","",""
"html-keyboard-response","14","385087","0.0-2.0-2.0-0.2","yww0dhrho7pr0wv","practice_no_cue","5edba672293f3b028b70eb25","5f60e3c0a3b16e07647b2ff9","5f647ecfb8a76e212778ac23","false","null","<span style=""color: black; font-size: 48px"">N + M</span>","null","","","","resp_prompt","","","","","","","","","","","","","","","",""
"categorize-image","15","387591","0.0-2.0-2.0-1.2","yww0dhrho7pr0wv","practice_no_cue","5edba672293f3b028b70eb25","5f60e3c0a3b16e07647b2ff9","5f647ecfb8a76e212778ac23","true","null","./Stimuli/ImagesPractice/SN75.jpg","null","","","","test","false","N + M","83","","SN","SN75.jpg","forget","old","3","1","start","too_slow","","","",""
"html-keyboard-response","16","388294","0.0-2.0-2.0-0.3","yww0dhrho7pr0wv","practice_no_cue","5edba672293f3b028b70eb25","5f60e3c0a3b16e07647b2ff9","5f647ecfb8a76e212778ac23","false","null","<span style=""color: black; font-size: 48px"">M + N</span>","null","","","","resp_prompt","","","","","","","","","","","","","","","",""
"categorize-image","17","389522","0.0-2.0-2.0-1.3","yww0dhrho7pr0wv","practice_no_cue","5edba672293f3b028b70eb25","5f60e3c0a3b16e07647b2ff9","5f647ecfb8a76e212778ac23","true","725.194999948144","./Stimuli/ImagesPractice/LM230.jpg","83","","","","test","true","M + N","83","","LM","LM230.jpg","forget","old","4","1","start","left","","","",""
"html-keyboard-response","18","390224","0.0-2.0-2.0-0.4","yww0dhrho7pr0wv","practice_no_cue","5edba672293f3b028b70eb25","5f60e3c0a3b16e07647b2ff9","5f647ecfb8a76e212778ac23","false","null","<span style=""color: black; font-size: 48px"">M + N</span>","null","","","","resp_prompt","","","","","","","","","","","","","","","",""
"categorize-image","19","391820","0.0-2.0-2.0-1.4","yww0dhrho7pr0wv","practice_no_cue","5edba672293f3b028b70eb25","5f60e3c0a3b16e07647b2ff9","5f647ecfb8a76e212778ac23","true","1093.3950000908226","./Stimuli/ImagesPractice/SN220.jpg","76","","","","test","true","M + N","76","","SN","SN220.jpg","forget","old","5","1","start","right","","","",""
"html-keyboard-response","20","392522","0.0-2.0-2.0-0.5","yww0dhrho7pr0wv","practice_no_cue","5edba672293f3b028b70eb25","5f60e3c0a3b16e07647b2ff9","5f647ecfb8a76e212778ac23","false","null","<span style=""color: black; font-size: 48px"">M + N</span>","null","","","","resp_prompt","","","","","","","","","","","","","","","",""
"categorize-image","21","393799","0.0-2.0-2.0-1.5","yww0dhrho7pr0wv","practice_no_cue","5edba672293f3b028b70eb25","5f60e3c0a3b16e07647b2ff9","5f647ecfb8a76e212778ac23","true","773.9350000629202","./Stimuli/ImagesPractice/LM55.jpg","83","","","","test","true","M + N","83","","LM","LM55.jpg","remember","old","6","1","start","left","","","",""
"html-keyboard-response","22","394501","0.0-2.0-2.0-0.6","yww0dhrho7pr0wv","practice_no_cue","5edba672293f3b028b70eb25","5f60e3c0a3b16e07647b2ff9","5f647ecfb8a76e212778ac23","false","null","<span style=""color: black; font-size: 48px"">N + M</span>","null","","","","resp_prompt","","","","","","","","","","","","","","","",""
"categorize-image","23","396128","0.0-2.0-2.0-1.6","yww0dhrho7pr0wv","practice_no_cue","5edba672293f3b028b70eb25","5f60e3c0a3b16e07647b2ff9","5f647ecfb8a76e212778ac23","true","1124.4350000051782","./Stimuli/ImagesPractice/LM239.jpg","76","","","","test","true","N + M","76","","LM","LM239.jpg","forget","old","7","1","start","right","","","",""
"html-keyboard-response","24","396831","0.0-2.0-2.0-0.7","yww0dhrho7pr0wv","practice_no_cue","5edba672293f3b028b70eb25","5f60e3c0a3b16e07647b2ff9","5f647ecfb8a76e212778ac23","false","null","<span style=""color: black; font-size: 48px"">M + N</span>","null","","","","resp_prompt","","","","","","","","","","","","","","","",""
"categorize-image","25","398487","0.0-2.0-2.0-1.7","yww0dhrho7pr0wv","practice_no_cue","5edba672293f3b028b70eb25","5f60e3c0a3b16e07647b2ff9","5f647ecfb8a76e212778ac23","true","1153.2099999021739","./Stimuli/ImagesPractice/SN222.jpg","83","","","","test","false","M + N","76","","SN","SN222.jpg","forget","old","8","1","start","left","","","",""
"html-keyboard-response","26","399190","0.0-2.0-2.0-0.8","yww0dhrho7pr0wv","practice_no_cue","5edba672293f3b028b70eb25","5f60e3c0a3b16e07647b2ff9","5f647ecfb8a76e212778ac23","false","null","<span style=""color: black; font-size: 48px"">N + M</span>","null","","","","resp_prompt","","","","","","","","","","","","","","","",""
"categorize-image","27","400445","0.0-2.0-2.0-1.8","yww0dhrho7pr0wv","practice_no_cue","5edba672293f3b028b70eb25","5f60e3c0a3b16e07647b2ff9","5f647ecfb8a76e212778ac23","true","752.4350000312552","./Stimuli/ImagesPractice/LM147.jpg","83","","","","test","false","N + M","76","","LM","LM147.jpg","remember","old","9","1","start","left","","","",""
"html-keyboard-response","28","401147","0.0-2.0-2.0-0.9","yww0dhrho7pr0wv","practice_no_cue","5edba672293f3b028b70eb25","5f60e3c0a3b16e07647b2ff9","5f647ecfb8a76e212778ac23","false","null","<span style=""color: black; font-size: 48px"">M + N</span>","null","","","","resp_prompt","","","","","","","","","","","","","","","",""
"categorize-image","29","402788","0.0-2.0-2.0-1.9","yww0dhrho7pr0wv","practice_no_cue","5edba672293f3b028b70eb25","5f60e3c0a3b16e07647b2ff9","5f647ecfb8a76e212778ac23","true","1139.1800000565127","./Stimuli/ImagesPractice/LM224.jpg","83","","","","test","true","M + N","83","","LM","LM224.jpg","remember","old","10","1","start","left","","","",""
"html-keyboard-response","30","403491","0.0-2.0-2.0-0.10","yww0dhrho7pr0wv","practice_no_cue","5edba672293f3b028b70eb25","5f60e3c0a3b16e07647b2ff9","5f647ecfb8a76e212778ac23","false","null","<span style=""color: black; font-size: 48px"">M + N</span>","null","","","","resp_prompt","","","","","","","","","","","","","","","",""
"categorize-image","31","404584","0.0-2.0-2.0-1.10","yww0dhrho7pr0wv","practice_no_cue","5edba672293f3b028b70eb25","5f60e3c0a3b16e07647b2ff9","5f647ecfb8a76e212778ac23","true","589.3449999857694","./Stimuli/ImagesPractice/SN205.jpg","76","","","","test","true","M + N","76","","SN","SN205.jpg","remember","old","11","1","start","right","","","",""
"html-keyboard-response","32","405285","0.0-2.0-2.0-0.11","yww0dhrho7pr0wv","practice_no_cue","5edba672293f3b028b70eb25","5f60e3c0a3b16e07647b2ff9","5f647ecfb8a76e212778ac23","false","null","<span style=""color: black; font-size: 48px"">N + M</span>","null","","","","resp_prompt","","","","","","","","","","","","","","","",""
"categorize-image","33","406654","0.0-2.0-2.0-1.11","yww0dhrho7pr0wv","practice_no_cue","5edba672293f3b028b70eb25","5f60e3c0a3b16e07647b2ff9","5f647ecfb8a76e212778ac23","true","865.9950000001118","./Stimuli/ImagesPractice/LN15.jpg","76","","","","test","false","N + M","83","","LN","LN15.jpg","forget","old","12","1","start","right","","","",""
"html-keyboard-response","34","407355","0.0-2.0-2.0-0.12","yww0dhrho7pr0wv","practice_no_cue","5edba672293f3b028b70eb25","5f60e3c0a3b16e07647b2ff9","5f647ecfb8a76e212778ac23","false","null","<span style=""color: black; font-size: 48px"">M + N</span>","null","","","","resp_prompt","","","","","","","","","","","","","","","",""
"categorize-image","35","408617","0.0-2.0-2.0-1.12","yww0dhrho7pr0wv","practice_no_cue","5edba672293f3b028b70eb25","5f60e3c0a3b16e07647b2ff9","5f647ecfb8a76e212778ac23","true","758.0350000644103","./Stimuli/ImagesPractice/LN4.jpg","83","","","","test","false","M + N","76","","LN","LN4.jpg","remember","old","13","1","start","left","","","",""
"html-keyboard-response","36","409319","0.0-2.0-2.0-0.13","yww0dhrho7pr0wv","practice_no_cue","5edba672293f3b028b70eb25","5f60e3c0a3b16e07647b2ff9","5f647ecfb8a76e212778ac23","false","null","<span style=""color: black; font-size: 48px"">N + M</span>","null","","","","resp_prompt","","","","","","","","","","","","","","","",""
"categorize-image","37","410547","0.0-2.0-2.0-1.13","yww0dhrho7pr0wv","practice_no_cue","5edba672293f3b028b70eb25","5f60e3c0a3b16e07647b2ff9","5f647ecfb8a76e212778ac23","true","725.6700000725687","./Stimuli/ImagesPractice/LM143.jpg","83","","","","test","false","N + M","76","","LM","LM143.jpg","remember","old","14","1","start","left","","","",""
"html-keyboard-response","38","411250","0.0-2.0-2.0-0.14","yww0dhrho7pr0wv","practice_no_cue","5edba672293f3b028b70eb25","5f60e3c0a3b16e07647b2ff9","5f647ecfb8a76e212778ac23","false","null","<span style=""color: black; font-size: 48px"">N + M</span>","null","","","","resp_prompt","","","","","","","","","","","","","","","",""
"categorize-image","39","412942","0.0-2.0-2.0-1.14","yww0dhrho7pr0wv","practice_no_cue","5edba672293f3b028b70eb25","5f60e3c0a3b16e07647b2ff9","5f647ecfb8a76e212778ac23","true","1189.2949999310076","./Stimuli/ImagesPractice/SM62.jpg","76","","","","test","true","N + M","76","","SM","SM62.jpg","forget","old","15","1","start","right","","","",""
"html-keyboard-response","40","413644","0.0-2.0-2.0-0.15","yww0dhrho7pr0wv","practice_no_cue","5edba672293f3b028b70eb25","5f60e3c0a3b16e07647b2ff9","5f647ecfb8a76e212778ac23","false","null","<span style=""color: black; font-size: 48px"">M + N</span>","null","","","","resp_prompt","","","","","","","","","","","","","","","",""
"categorize-image","41","415673","0.0-2.0-2.0-1.15","yww0dhrho7pr0wv","practice_no_cue","5edba672293f3b028b70eb25","5f60e3c0a3b16e07647b2ff9","5f647ecfb8a76e212778ac23","true","1524.849999928847","./Stimuli/ImagesPractice/LN2.jpg","83","","","","test","false","M + N","76","","LN","LN2.jpg","forget","old","16","1","start","left","","","",""
"html-keyboard-response","42","459441","0.0-2.0-3.0","yww0dhrho7pr0wv","break","5edba672293f3b028b70eb25","5f60e3c0a3b16e07647b2ff9","5f647ecfb8a76e212778ac23","false","43764.39999998547","<p style='font-size: 32px;'>Break</><br><br><br><br><br><p style='font-size: 24px;'>In the last block, you committed 7 errors and did not respond in time on 2 trials.
</p><p style='font-size: 24px;'>Try to respond as fast and accurately as possible in the next block as well! </p><p style='font-size: 24px;'>Press SPACE to continue.</p>","32","","","","","","","","","","","","","","","","","","","",""
"html-keyboard-response","43","463059","0.0-2.0-4.0","yww0dhrho7pr0wv","instructions","5edba672293f3b028b70eb25","5f60e3c0a3b16e07647b2ff9","5f647ecfb8a76e212778ac23","false","3616.2550000008196","<div align=left> Great!<br><br>Are you ready to continue?<br><br>If you want to reread the instructions and redo the practice trials, <br>please press „Z“. <br><br>Press SPACE to CONTINUE with the experiment when you are ready. </div>","32","","","","","","","","","","","","","","","","","","","",""
"html-keyboard-response","44","468657","0.0-3.0-0.0","yww0dhrho7pr0wv","instructions","5edba672293f3b028b70eb25","5f60e3c0a3b16e07647b2ff9","5f647ecfb8a76e212778ac23","false","5596.539999940433","<div align=left>Great!<br> <strong>Attention</strong>! You will now receive a second, additional task! <br><br>To this point it was you <strong>first task</strong> to correctly <strong>classify objects</strong>. <br><br>As mentioned in the beginning, we aim to examine how well humans can remember previously learned information.<br>We would like to find out whether our memory improves if we only remember information that is relevant to us. <br><br>Therefore, your <strong>second task</strong> will be to <strong>remember</strong> the pictures you are to categorize. <br> After the learning phase, there will be a memory test phase, in which you will be asked to indicate whether you have seen a picture before or not. <br>Some, but not all pictures shown in the learning phase will appear in the memory test phase.<br>After classifying a picture, you will be told whether you should remember it for the memory test phase or not. <br>Thus, some pictures can be forgotten, whereas others have to be remembered. <br><br>Note: From now on, feedback will only be displayed if you responded incorrectly or not in time.<br><br>Press SPACE to continue.</div>","32","","","","","","","","","","","","","","","","","","","",""
"html-keyboard-response","45","476213","0.0-3.0-1.0","yww0dhrho7pr0wv","instructions","5edba672293f3b028b70eb25","5f60e3c0a3b16e07647b2ff9","5f647ecfb8a76e212778ac23","false","7553.964999970049","<div align=left>In the following part, you will thus have to remember only some pictures. <br>Immediately after seeing and classifying the picture, a symbol will be displayed, indicating whether you should remember or forget the previous picture. <br><br>A <span style='color: dodgerblue; font-size: 28px'>O</span> indicates REMEMBER. That means, you have to remember this picture, because it will be tested later. <br><br>A <span style='color: darkorange; font-size:28px'>Ø</span> indicates FORGET. You do not have to remember this picture. <br><br> As you will have to remember a lot of pictures, it will be hard for you to remember all of them. <br>It will put you at an advantage if you instantly forget the pictures you are not asked to remember. <br> This will make it easier for you to remember the pictures that will be tested afterwards. <br><br>Press SPACE to continue.</div>","32","","","","","","","","","","","","","","","","","","","",""
"html-keyboard-response","46","484791","0.0-3.0-2.0","yww0dhrho7pr0wv","instructions","5edba672293f3b028b70eb25","5f60e3c0a3b16e07647b2ff9","5f647ecfb8a76e212778ac23","false","8576.96999993641","<div align=left> Now you have the chance to practice both tasks together.<br><br>Remember: <br> <br><li>Please place your index fingers on the <strong>'S'</strong> and <strong>'L'</strong> keys <br>to respond as fast and accurately as possible.</li><li>Every picture can be classified as either mechanical or non-mechanical.</li><li>If you do not respond in time or commit an error, you will receive a corresponding feedback. <br>Please try to respond as <strong> fast </strong> and as <strong> accurately as possible </strong>.</li><li> Please remember only the to-be-remembered <span style='color: dodgerblue; font-size: 28px'>O</span> pictures. <br></li><li> Please minimize distractions and stay focused. </li><br><br>Press SPACE to START</div>","32","","","","","","","","","","","","","","","","","","","",""
"html-keyboard-response","47","485494","0.0-3.0-3.0-0.0","yww0dhrho7pr0wv","practice_cue","5edba672293f3b028b70eb25","5f60e3c0a3b16e07647b2ff9","5f647ecfb8a76e212778ac23","false","null","<span style=""color: black; font-size: 48px"">N + M</span>","null","","","","resp_prompt","","","","","","","","","","","","","","","",""
"categorize-image","48","486549","0.0-3.0-3.0-1.0","yww0dhrho7pr0wv","practice_cue","5edba672293f3b028b70eb25","5f60e3c0a3b16e07647b2ff9","5f647ecfb8a76e212778ac23","true","1049.5799999916926","./Stimuli/ImagesPractice/LN15.jpg","83","","","","test","true","N + M","83","","LN","LN15.jpg","forget","old","17","2","practice_forget","left","","","",""
"html-keyboard-response","49","488551","0.0-3.0-3.0-3.0","yww0dhrho7pr0wv","practice_cue","5edba672293f3b028b70eb25","5f60e3c0a3b16e07647b2ff9","5f647ecfb8a76e212778ac23","false","null","<div style=""align-items: center; display: flex; color: darkorange; font-size: 90px""><b>ø</b></div>","null","","","","forget_cue","","","","","","","","","","","","","","","",""
"html-keyboard-response","50","489253","0.0-3.0-3.0-0.1","yww0dhrho7pr0wv","practice_cue","5edba672293f3b028b70eb25","5f60e3c0a3b16e07647b2ff9","5f647ecfb8a76e212778ac23","false","null","<span style=""color: black; font-size: 48px"">M + N</span>","null","","","","resp_prompt","","","","","","","","","","","","","","","",""
"categorize-image","51","490163","0.0-3.0-3.0-1.1","yww0dhrho7pr0wv","practice_cue","5edba672293f3b028b70eb25","5f60e3c0a3b16e07647b2ff9","5f647ecfb8a76e212778ac23","true","905.4049999685958","./Stimuli/ImagesPractice/SN222.jpg","76","","","","test","true","M + N","76","","SN","SN222.jpg","forget","old","18","2","practice_forget","right","","","",""
"html-keyboard-response","52","492164","0.0-3.0-3.0-3.1","yww0dhrho7pr0wv","practice_cue","5edba672293f3b028b70eb25","5f60e3c0a3b16e07647b2ff9","5f647ecfb8a76e212778ac23","false","null","<div style=""align-items: center; display: flex; color: darkorange; font-size: 90px""><b>ø</b></div>","null","","","","forget_cue","","","","","","","","","","","","","","","",""
"html-keyboard-response","53","492866","0.0-3.0-3.0-0.2","yww0dhrho7pr0wv","practice_cue","5edba672293f3b028b70eb25","5f60e3c0a3b16e07647b2ff9","5f647ecfb8a76e212778ac23","false","null","<span style=""color: black; font-size: 48px"">M + N</span>","null","","","","resp_prompt","","","","","","","","","","","","","","","",""
"categorize-image","54","493825","0.0-3.0-3.0-1.2","yww0dhrho7pr0wv","practice_cue","5edba672293f3b028b70eb25","5f60e3c0a3b16e07647b2ff9","5f647ecfb8a76e212778ac23","true","954.7849999507889","./Stimuli/ImagesPractice/LM224.jpg","83","","","","test","true","M + N","83","","LM","LM224.jpg","remember","old","19","2","practice_forget","left","","","",""
"html-keyboard-response","55","495827","0.0-3.0-3.0-3.2","yww0dhrho7pr0wv","practice_cue","5edba672293f3b028b70eb25","5f60e3c0a3b16e07647b2ff9","5f647ecfb8a76e212778ac23","false","null","<div style=""align-items: center; display: flex; color: dodgerblue; font-size: 90px""><b>o</b></div>","null","","","","forget_cue","","","","","","","","","","","","","","","",""
"html-keyboard-response","56","496529","0.0-3.0-3.0-0.3","yww0dhrho7pr0wv","practice_cue","5edba672293f3b028b70eb25","5f60e3c0a3b16e07647b2ff9","5f647ecfb8a76e212778ac23","false","null","<span style=""color: black; font-size: 48px"">M + N</span>","null","","","","resp_prompt","","","","","","","","","","","","","","","",""
"categorize-image","57","497632","0.0-3.0-3.0-1.3","yww0dhrho7pr0wv","practice_cue","5edba672293f3b028b70eb25","5f60e3c0a3b16e07647b2ff9","5f647ecfb8a76e212778ac23","true","1099.519999930635","./Stimuli/ImagesPractice/LN2.jpg","76","","","","test","true","M + N","76","","LN","LN2.jpg","forget","old","20","2","practice_forget","right","","","",""
"html-keyboard-response","58","499635","0.0-3.0-3.0-3.3","yww0dhrho7pr0wv","practice_cue","5edba672293f3b028b70eb25","5f60e3c0a3b16e07647b2ff9","5f647ecfb8a76e212778ac23","false","null","<div style=""align-items: center; display: flex; color: darkorange; font-size: 90px""><b>ø</b></div>","null","","","","forget_cue","","","","","","","","","","","","","","","",""
"html-keyboard-response","59","500337","0.0-3.0-3.0-0.4","yww0dhrho7pr0wv","practice_cue","5edba672293f3b028b70eb25","5f60e3c0a3b16e07647b2ff9","5f647ecfb8a76e212778ac23","false","null","<span style=""color: black; font-size: 48px"">N + M</span>","null","","","","resp_prompt","","","","","","","","","","","","","","","",""
"categorize-image","60","501901","0.0-3.0-3.0-1.4","yww0dhrho7pr0wv","practice_cue","5edba672293f3b028b70eb25","5f60e3c0a3b16e07647b2ff9","5f647ecfb8a76e212778ac23","true","1559.114999952726","./Stimuli/ImagesPractice/LM143.jpg","76","","","","test","true","N + M","76","","LM","LM143.jpg","remember","old","21","2","practice_forget","right","","","",""
"html-keyboard-response","61","503903","0.0-3.0-3.0-3.4","yww0dhrho7pr0wv","practice_cue","5edba672293f3b028b70eb25","5f60e3c0a3b16e07647b2ff9","5f647ecfb8a76e212778ac23","false","null","<div style=""align-items: center; display: flex; color: dodgerblue; font-size: 90px""><b>o</b></div>","null","","","","forget_cue","","","","","","","","","","","","","","","",""
"html-keyboard-response","62","504604","0.0-3.0-3.0-0.5","yww0dhrho7pr0wv","practice_cue","5edba672293f3b028b70eb25","5f60e3c0a3b16e07647b2ff9","5f647ecfb8a76e212778ac23","false","null","<span style=""color: black; font-size: 48px"">N + M</span>","null","","","","resp_prompt","","","","","","","","","","","","","","","",""
"categorize-image","63","506026","0.0-3.0-3.0-1.5","yww0dhrho7pr0wv","practice_cue","5edba672293f3b028b70eb25","5f60e3c0a3b16e07647b2ff9","5f647ecfb8a76e212778ac23","true","1418.5450000222772","./Stimuli/ImagesPractice/LN17.jpg","83","","","","test","true","N + M","83","","LN","LN17.jpg","remember","old","22","2","practice_forget","left","","","",""
"html-keyboard-response","64","508028","0.0-3.0-3.0-3.5","yww0dhrho7pr0wv","practice_cue","5edba672293f3b028b70eb25","5f60e3c0a3b16e07647b2ff9","5f647ecfb8a76e212778ac23","false","null","<div style=""align-items: center; display: flex; color: dodgerblue; font-size: 90px""><b>o</b></div>","null","","","","forget_cue","","","","","","","","","","","","","","","",""
"html-keyboard-response","65","508729","0.0-3.0-3.0-0.6","yww0dhrho7pr0wv","practice_cue","5edba672293f3b028b70eb25","5f60e3c0a3b16e07647b2ff9","5f647ecfb8a76e212778ac23","false","null","<span style=""color: black; font-size: 48px"">M + N</span>","null","","","","resp_prompt","","","","","","","","","","","","","","","",""
"categorize-image","66","509543","0.0-3.0-3.0-1.6","yww0dhrho7pr0wv","practice_cue","5edba672293f3b028b70eb25","5f60e3c0a3b16e07647b2ff9","5f647ecfb8a76e212778ac23","true","809.7399999387562","./Stimuli/ImagesPractice/SN220.jpg","76","","","","test","true","M + N","76","","SN","SN220.jpg","forget","old","23","2","practice_forget","right","","","",""
"html-keyboard-response","67","511546","0.0-3.0-3.0-3.6","yww0dhrho7pr0wv","practice_cue","5edba672293f3b028b70eb25","5f60e3c0a3b16e07647b2ff9","5f647ecfb8a76e212778ac23","false","null","<div style=""align-items: center; display: flex; color: darkorange; font-size: 90px""><b>ø</b></div>","null","","","","forget_cue","","","","","","","","","","","","","","","",""
"html-keyboard-response","68","512249","0.0-3.0-3.0-0.7","yww0dhrho7pr0wv","practice_cue","5edba672293f3b028b70eb25","5f60e3c0a3b16e07647b2ff9","5f647ecfb8a76e212778ac23","false","null","<span style=""color: black; font-size: 48px"">N + M</span>","null","","","","resp_prompt","","","","","","","","","","","","","","","",""
"categorize-image","69","513295","0.0-3.0-3.0-1.7","yww0dhrho7pr0wv","practice_cue","5edba672293f3b028b70eb25","5f60e3c0a3b16e07647b2ff9","5f647ecfb8a76e212778ac23","true","1041.7349999770522","./Stimuli/ImagesPractice/SM98.jpg","76","","","","test","true","N + M","76","","SM","SM98.jpg","remember","old","24","2","practice_forget","right","","","",""
"html-keyboard-response","70","515296","0.0-3.0-3.0-3.7","yww0dhrho7pr0wv","practice_cue","5edba672293f3b028b70eb25","5f60e3c0a3b16e07647b2ff9","5f647ecfb8a76e212778ac23","false","null","<div style=""align-items: center; display: flex; color: dodgerblue; font-size: 90px""><b>o</b></div>","null","","","","forget_cue","","","","","","","","","","","","","","","",""
"html-keyboard-response","71","515998","0.0-3.0-3.0-0.8","yww0dhrho7pr0wv","practice_cue","5edba672293f3b028b70eb25","5f60e3c0a3b16e07647b2ff9","5f647ecfb8a76e212778ac23","false","null","<span style=""color: black; font-size: 48px"">N + M</span>","null","","","","resp_prompt","","","","","","","","","","","","","","","",""
"categorize-image","72","517107","0.0-3.0-3.0-1.8","yww0dhrho7pr0wv","practice_cue","5edba672293f3b028b70eb25","5f60e3c0a3b16e07647b2ff9","5f647ecfb8a76e212778ac23","true","1105.280000017956","./Stimuli/ImagesPractice/SN75.jpg","76","","","","test","false","N + M","83","","SN","SN75.jpg","forget","old","25","2","practice_forget","right","","","",""
"html-keyboard-response","73","517609","0.0-3.0-3.0-2.8-0.8","yww0dhrho7pr0wv","practice_cue","5edba672293f3b028b70eb25","5f60e3c0a3b16e07647b2ff9","5f647ecfb8a76e212778ac23","false","null","<span style=""color: red; font-size: 48px"">Error!</span>","null","","","","feedback","","","","","","","","","","","","","","","",""
"html-keyboard-response","74","519611","0.0-3.0-3.0-3.8","yww0dhrho7pr0wv","practice_cue","5edba672293f3b028b70eb25","5f60e3c0a3b16e07647b2ff9","5f647ecfb8a76e212778ac23","false","null","<div style=""align-items: center; display: flex; color: darkorange; font-size: 90px""><b>ø</b></div>","null","","","","forget_cue","","","","","","","","","","","","","","","",""
"html-keyboard-response","75","520312","0.0-3.0-3.0-0.9","yww0dhrho7pr0wv","practice_cue","5edba672293f3b028b70eb25","5f60e3c0a3b16e07647b2ff9","5f647ecfb8a76e212778ac23","false","null","<span style=""color: black; font-size: 48px"">M + N</span>","null","","","","resp_prompt","","","","","","","","","","","","","","","",""
"categorize-image","76","520987","0.0-3.0-3.0-1.9","yww0dhrho7pr0wv","practice_cue","5edba672293f3b028b70eb25","5f60e3c0a3b16e07647b2ff9","5f647ecfb8a76e212778ac23","true","671.1249999934807","./Stimuli/ImagesPractice/SN205.jpg","76","","","","test","true","M + N","76","","SN","SN205.jpg","remember","old","26","2","practice_forget","right","","","",""
"html-keyboard-response","77","522990","0.0-3.0-3.0-3.9","yww0dhrho7pr0wv","practice_cue","5edba672293f3b028b70eb25","5f60e3c0a3b16e07647b2ff9","5f647ecfb8a76e212778ac23","false","null","<div style=""align-items: center; display: flex; color: dodgerblue; font-size: 90px""><b>o</b></div>","null","","","","forget_cue","","","","","","","","","","","","","","","",""
"html-keyboard-response","78","523696","0.0-3.0-3.0-0.10","yww0dhrho7pr0wv","practice_cue","5edba672293f3b028b70eb25","5f60e3c0a3b16e07647b2ff9","5f647ecfb8a76e212778ac23","false","null","<span style=""color: black; font-size: 48px"">N + M</span>","null","","","","resp_prompt","","","","","","","","","","","","","","","",""
"categorize-image","79","524581","0.0-3.0-3.0-1.10","yww0dhrho7pr0wv","practice_cue","5edba672293f3b028b70eb25","5f60e3c0a3b16e07647b2ff9","5f647ecfb8a76e212778ac23","true","880.5400000419468","./Stimuli/ImagesPractice/LM147.jpg","76","","","","test","true","N + M","76","","LM","LM147.jpg","remember","old","27","2","practice_forget","right","","","",""
"html-keyboard-response","80","526582","0.0-3.0-3.0-3.10","yww0dhrho7pr0wv","practice_cue","5edba672293f3b028b70eb25","5f60e3c0a3b16e07647b2ff9","5f647ecfb8a76e212778ac23","false","null","<div style=""align-items: center; display: flex; color: dodgerblue; font-size: 90px""><b>o</b></div>","null","","","","forget_cue","","","","","","","","","","","","","","","",""
"html-keyboard-response","81","527284","0.0-3.0-3.0-0.11","yww0dhrho7pr0wv","practice_cue","5edba672293f3b028b70eb25","5f60e3c0a3b16e07647b2ff9","5f647ecfb8a76e212778ac23","false","null","<span style=""color: black; font-size: 48px"">N + M</span>","null","","","","resp_prompt","","","","","","","","","","","","","","","",""
"categorize-image","82","528625","0.0-3.0-3.0-1.11","yww0dhrho7pr0wv","practice_cue","5edba672293f3b028b70eb25","5f60e3c0a3b16e07647b2ff9","5f647ecfb8a76e212778ac23","true","1337.1899999910966","./Stimuli/ImagesPractice/LM239.jpg","83","","","","test","false","N + M","76","","LM","LM239.jpg","forget","old","28","2","practice_forget","left","","","",""
"html-keyboard-response","83","529127","0.0-3.0-3.0-2.11-0.11","yww0dhrho7pr0wv","practice_cue","5edba672293f3b028b70eb25","5f60e3c0a3b16e07647b2ff9","5f647ecfb8a76e212778ac23","false","null","<span style=""color: red; font-size: 48px"">Error!</span>","null","","","","feedback","","","","","","","","","","","","","","","",""
"html-keyboard-response","84","531129","0.0-3.0-3.0-3.11","yww0dhrho7pr0wv","practice_cue","5edba672293f3b028b70eb25","5f60e3c0a3b16e07647b2ff9","5f647ecfb8a76e212778ac23","false","null","<div style=""align-items: center; display: flex; color: darkorange; font-size: 90px""><b>ø</b></div>","null","","","","forget_cue","","","","","","","","","","","","","","","",""
"html-keyboard-response","85","531831","0.0-3.0-3.0-0.12","yww0dhrho7pr0wv","practice_cue","5edba672293f3b028b70eb25","5f60e3c0a3b16e07647b2ff9","5f647ecfb8a76e212778ac23","false","null","<span style=""color: black; font-size: 48px"">N + M</span>","null","","","","resp_prompt","","","","","","","","","","","","","","","",""
"categorize-image","86","532698","0.0-3.0-3.0-1.12","yww0dhrho7pr0wv","practice_cue","5edba672293f3b028b70eb25","5f60e3c0a3b16e07647b2ff9","5f647ecfb8a76e212778ac23","true","862.2049998957664","./Stimuli/ImagesPractice/SM62.jpg","83","","","","test","false","N + M","76","","SM","SM62.jpg","forget","old","29","2","practice_forget","left","","","",""
"html-keyboard-response","87","533200","0.0-3.0-3.0-2.12-0.12","yww0dhrho7pr0wv","practice_cue","5edba672293f3b028b70eb25","5f60e3c0a3b16e07647b2ff9","5f647ecfb8a76e212778ac23","false","null","<span style=""color: red; font-size: 48px"">Error!</span>","null","","","","feedback","","","","","","","","","","","","","","","",""
"html-keyboard-response","88","535202","0.0-3.0-3.0-3.12","yww0dhrho7pr0wv","practice_cue","5edba672293f3b028b70eb25","5f60e3c0a3b16e07647b2ff9","5f647ecfb8a76e212778ac23","false","null","<div style=""align-items: center; display: flex; color: darkorange; font-size: 90px""><b>ø</b></div>","null","","","","forget_cue","","","","","","","","","","","","","","","",""
"html-keyboard-response","89","535904","0.0-3.0-3.0-0.13","yww0dhrho7pr0wv","practice_cue","5edba672293f3b028b70eb25","5f60e3c0a3b16e07647b2ff9","5f647ecfb8a76e212778ac23","false","null","<span style=""color: black; font-size: 48px"">M + N</span>","null","","","","resp_prompt","","","","","","","","","","","","","","","",""
"categorize-image","90","536685","0.0-3.0-3.0-1.13","yww0dhrho7pr0wv","practice_cue","5edba672293f3b028b70eb25","5f60e3c0a3b16e07647b2ff9","5f647ecfb8a76e212778ac23","true","776.4899999601766","./Stimuli/ImagesPractice/LN4.jpg","76","","","","test","true","M + N","76","","LN","LN4.jpg","remember","old","30","2","practice_forget","right","","","",""
"html-keyboard-response","91","538688","0.0-3.0-3.0-3.13","yww0dhrho7pr0wv","practice_cue","5edba672293f3b028b70eb25","5f60e3c0a3b16e07647b2ff9","5f647ecfb8a76e212778ac23","false","null","<div style=""align-items: center; display: flex; color: dodgerblue; font-size: 90px""><b>o</b></div>","null","","","","forget_cue","","","","","","","","","","","","","","","",""
"html-keyboard-response","92","539391","0.0-3.0-3.0-0.14","yww0dhrho7pr0wv","practice_cue","5edba672293f3b028b70eb25","5f60e3c0a3b16e07647b2ff9","5f647ecfb8a76e212778ac23","false","null","<span style=""color: black; font-size: 48px"">M + N</span>","null","","","","resp_prompt","","","","","","","","","","","","","","","",""
"categorize-image","93","540722","0.0-3.0-3.0-1.14","yww0dhrho7pr0wv","practice_cue","5edba672293f3b028b70eb25","5f60e3c0a3b16e07647b2ff9","5f647ecfb8a76e212778ac23","true","1327.265000087209","./Stimuli/ImagesPractice/LM230.jpg","76","","","","test","false","M + N","83","","LM","LM230.jpg","forget","old","31","2","practice_forget","right","","","",""
"html-keyboard-response","94","541224","0.0-3.0-3.0-2.14-0.14","yww0dhrho7pr0wv","practice_cue","5edba672293f3b028b70eb25","5f60e3c0a3b16e07647b2ff9","5f647ecfb8a76e212778ac23","false","null","<span style=""color: red; font-size: 48px"">Error!</span>","null","","","","feedback","","","","","","","","","","","","","","","",""
"html-keyboard-response","95","543226","0.0-3.0-3.0-3.14","yww0dhrho7pr0wv","practice_cue","5edba672293f3b028b70eb25","5f60e3c0a3b16e07647b2ff9","5f647ecfb8a76e212778ac23","false","null","<div style=""align-items: center; display: flex; color: darkorange; font-size: 90px""><b>ø</b></div>","null","","","","forget_cue","","","","","","","","","","","","","","","",""
"html-keyboard-response","96","543928","0.0-3.0-3.0-0.15","yww0dhrho7pr0wv","practice_cue","5edba672293f3b028b70eb25","5f60e3c0a3b16e07647b2ff9","5f647ecfb8a76e212778ac23","false","null","<span style=""color: black; font-size: 48px"">M + N</span>","null","","","","resp_prompt","","","","","","","","","","","","","","","",""
"categorize-image","97","545034","0.0-3.0-3.0-1.15","yww0dhrho7pr0wv","practice_cue","5edba672293f3b028b70eb25","5f60e3c0a3b16e07647b2ff9","5f647ecfb8a76e212778ac23","true","1101.0800000512972","./Stimuli/ImagesPractice/LM55.jpg","83","","","","test","true","M + N","83","","LM","LM55.jpg","remember","old","32","2","practice_forget","left","","","",""
"html-keyboard-response","98","547036","0.0-3.0-3.0-3.15","yww0dhrho7pr0wv","practice_cue","5edba672293f3b028b70eb25","5f60e3c0a3b16e07647b2ff9","5f647ecfb8a76e212778ac23","false","null","<div style=""align-items: center; display: flex; color: dodgerblue; font-size: 90px""><b>o</b></div>","null","","","","forget_cue","","","","","","","","","","","","","","","",""
"html-keyboard-response","99","550603","0.0-3.0-4.0","yww0dhrho7pr0wv","break","5edba672293f3b028b70eb25","5f60e3c0a3b16e07647b2ff9","5f647ecfb8a76e212778ac23","false","3563.5650000767782","<p style='font-size: 32px;'>Break</><br><br><br><br><br><p style='font-size: 24px;'>In the last block, you committed 4 errors and did not respond in time on 0 trials.
</p><p style='font-size: 24px;'>Try to respond as fast and accurately as possible in the next block as well! </p><p style='font-size: 24px;'>Press SPACE to continue.</p>","32","","","","","","","","","","","","","","","","","","","",""
"html-keyboard-response","100","562826","0.0-3.0-5.0","yww0dhrho7pr0wv","instructions","5edba672293f3b028b70eb25","5f60e3c0a3b16e07647b2ff9","5f647ecfb8a76e212778ac23","false","12221.84000001289","<div align=left> Now, to practice, we kindly ask you to remember as many of the to-be-remembered pictures<br>of the previous learning phase as possible.<br><br>The pictures you were instructed to remember were the pictures followed by a <span style='color: dodgerblue; font-size: 28px'>O</span>.<br><br>In this memory test phase, you will also see some new pictures.<br>It is your task to remember whether you were presented with this specific picture in this study so far or not.<br>If you recognize an object (you have already seen it in this study), it is an OLD object. <br>If you do not recognize an object (you have NOT seen it in this study), it is a NEW object. <br><strong> Attention</strong>: As already mentioned, <span style='color: darkorange; font-size:28px'>Ø</span>-pictures will <strong>never</strong> appear in this memory test (neither as new objects). <br><br>Press SPACE to continue. </div>","32","","","","","","","","","","","","","","","","","","","",""
"html-keyboard-response","101","575915","0.0-3.0-6.0","yww0dhrho7pr0wv","instructions","5edba672293f3b028b70eb25","5f60e3c0a3b16e07647b2ff9","5f647ecfb8a76e212778ac23","false","13088.149999966845","<div align=left> M and N no longer will appear on the left/right of the fixation cross. <br>Instead there will be a note at the bottom of the left or right side  <br>indicating which key you should press for an old or new object:  <br> <br>Press the <strong>right</strong> key to classify an object as <strong>old</strong> and press the <strong>left</strong>, to classify an object as <strong>new</strong>.<br>Please classify the objects as new/old by again placing your index finger on the 'S' and 'L' keys <br>and press them accordingly.<br><br><strong>Old:</strong> This object has been presented before. <br><strong>New:</strong> This object has <strong>not</strong> been presented.<br><br>Now please put your right and left index fingers on the 'S' and 'L' keys of your keyboard. <br>Please respond as fast and as accurately as possible!<br><br>Press SPACE to continue. </div>","32","","","","","","","","","","","","","","","","","","","",""
"categorize-image","102","577680","0.0-3.0-7.0-0.0","yww0dhrho7pr0wv","practice_recog","5edba672293f3b028b70eb25","5f60e3c0a3b16e07647b2ff9","5f647ecfb8a76e212778ac23","true","1260.634999955073","./Stimuli/ImagesPractice/LN17.jpg","76","","","","test","false","","83","","LN","LN17.jpg","","old","33","3","practice_recog","right","","","",""
"categorize-image","103","580425","0.0-3.0-7.0-0.1","yww0dhrho7pr0wv","practice_recog","5edba672293f3b028b70eb25","5f60e3c0a3b16e07647b2ff9","5f647ecfb8a76e212778ac23","true","2242.0299999648705","./Stimuli/ImagesPractice/LM55.jpg","83","","","","test","true","","83","","LM","LM55.jpg","","old","34","3","practice_recog","left","","","",""
"categorize-image","104","581986","0.0-3.0-7.0-0.2","yww0dhrho7pr0wv","practice_recog","5edba672293f3b028b70eb25","5f60e3c0a3b16e07647b2ff9","5f647ecfb8a76e212778ac23","true","1057.3100000619888","./Stimuli/ImagesPractice/LN72.jpg","76","","","","test","true","","76","","LN","LN72.jpg","","new","35","3","practice_recog","right","","","",""
"categorize-image","105","583601","0.0-3.0-7.0-0.3","yww0dhrho7pr0wv","practice_recog","5edba672293f3b028b70eb25","5f60e3c0a3b16e07647b2ff9","5f647ecfb8a76e212778ac23","true","1111.8749999441206","./Stimuli/ImagesPractice/SM61.jpg","76","","","","test","true","","76","","SM","SM61.jpg","","new","36","3","practice_recog","right","","","",""
"categorize-image","106","585116","0.0-3.0-7.0-0.4","yww0dhrho7pr0wv","practice_recog","5edba672293f3b028b70eb25","5f60e3c0a3b16e07647b2ff9","5f647ecfb8a76e212778ac23","true","1011.2199999857694","./Stimuli/ImagesPractice/LN109.jpg","76","","","","test","true","","76","","LN","LN109.jpg","","new","37","3","practice_recog","right","","","",""
"categorize-image","107","586348","0.0-3.0-7.0-0.5","yww0dhrho7pr0wv","practice_recog","5edba672293f3b028b70eb25","5f60e3c0a3b16e07647b2ff9","5f647ecfb8a76e212778ac23","true","730.1549999974668","./Stimuli/ImagesPractice/SM98.jpg","83","","","","test","true","","83","","SM","SM98.jpg","","old","38","3","practice_recog","left","","","",""
"categorize-image","108","587593","0.0-3.0-7.0-0.6","yww0dhrho7pr0wv","practice_recog","5edba672293f3b028b70eb25","5f60e3c0a3b16e07647b2ff9","5f647ecfb8a76e212778ac23","true","741.6850000154227","./Stimuli/ImagesPractice/SN76.jpg","76","","","","test","true","","76","","SN","SN76.jpg","","new","39","3","practice_recog","right","","","",""
"categorize-image","109","588845","0.0-3.0-7.0-0.7","yww0dhrho7pr0wv","practice_recog","5edba672293f3b028b70eb25","5f60e3c0a3b16e07647b2ff9","5f647ecfb8a76e212778ac23","true","748.420000076294","./Stimuli/ImagesPractice/SN205.jpg","83","","","","test","true","","83","","SN","SN205.jpg","","old","40","3","practice_recog","left","","","",""
"categorize-image","110","590168","0.0-3.0-7.0-0.8","yww0dhrho7pr0wv","practice_recog","5edba672293f3b028b70eb25","5f60e3c0a3b16e07647b2ff9","5f647ecfb8a76e212778ac23","true","820.0850000139326","./Stimuli/ImagesPractice/LN4.jpg","83","","","","test","true","","83","","LN","LN4.jpg","","old","41","3","practice_recog","left","","","",""
"categorize-image","111","591464","0.0-3.0-7.0-0.9","yww0dhrho7pr0wv","practice_recog","5edba672293f3b028b70eb25","5f60e3c0a3b16e07647b2ff9","5f647ecfb8a76e212778ac23","true","793.0700000142679","./Stimuli/ImagesPractice/SM97.jpg","76","","","","test","true","","76","","SM","SM97.jpg","","new","42","3","practice_recog","right","","","",""
"categorize-image","112","592820","0.0-3.0-7.0-0.10","yww0dhrho7pr0wv","practice_recog","5edba672293f3b028b70eb25","5f60e3c0a3b16e07647b2ff9","5f647ecfb8a76e212778ac23","true","852.5799999479204","./Stimuli/ImagesPractice/SM35.jpg","76","","","","test","true","","76","","SM","SM35.jpg","","new","43","3","practice_recog","right","","","",""
"categorize-image","113","594028","0.0-3.0-7.0-0.11","yww0dhrho7pr0wv","practice_recog","5edba672293f3b028b70eb25","5f60e3c0a3b16e07647b2ff9","5f647ecfb8a76e212778ac23","true","705.2449999609962","./Stimuli/ImagesPractice/LM224.jpg","83","","","","test","true","","83","","LM","LM224.jpg","","old","44","3","practice_recog","left","","","",""
"categorize-image","114","595273","0.0-3.0-7.0-0.12","yww0dhrho7pr0wv","practice_recog","5edba672293f3b028b70eb25","5f60e3c0a3b16e07647b2ff9","5f647ecfb8a76e212778ac23","true","741.5449999971315","./Stimuli/ImagesPractice/LM143.jpg","83","","","","test","true","","83","","LM","LM143.jpg","","old","45","3","practice_recog","left","","","",""
"categorize-image","115","596447","0.0-3.0-7.0-0.13","yww0dhrho7pr0wv","practice_recog","5edba672293f3b028b70eb25","5f60e3c0a3b16e07647b2ff9","5f647ecfb8a76e212778ac23","true","671.3300000410527","./Stimuli/ImagesPractice/SN221.jpg","76","","","","test","true","","76","","SN","SN221.jpg","","new","46","3","practice_recog","right","","","",""
"categorize-image","116","598329","0.0-3.0-7.0-0.14","yww0dhrho7pr0wv","practice_recog","5edba672293f3b028b70eb25","5f60e3c0a3b16e07647b2ff9","5f647ecfb8a76e212778ac23","true","1379.7400000039488","./Stimuli/ImagesPractice/SM37.jpg","76","","","","test","true","","76","","SM","SM37.jpg","","new","47","3","practice_recog","right","","","",""
"categorize-image","117","599530","0.0-3.0-7.0-0.15","yww0dhrho7pr0wv","practice_recog","5edba672293f3b028b70eb25","5f60e3c0a3b16e07647b2ff9","5f647ecfb8a76e212778ac23","true","697.6250000298023","./Stimuli/ImagesPractice/LM147.jpg","83","","","","test","true","","83","","LM","LM147.jpg","","old","48","3","practice_recog","left","","","",""
"html-keyboard-response","118","601170","0.0-3.0-8.0","yww0dhrho7pr0wv","instructions","5edba672293f3b028b70eb25","5f60e3c0a3b16e07647b2ff9","5f647ecfb8a76e212778ac23","false","1638.6899999342859","<div align=left> Great!<br><br>Are you ready to continue?<br>If you want to reread the instructions and redo the practice trials, please <br>press „Z“.<br><br>You can proceed when you are ready.<br><br>After the presentation of each object, you will receive an instruction whether to <br>remember or to forget the object.<br>We will test your memory of the following pictures only at the very end of <br>the experiment after all learning blocks are completed. <br><br>Press SPACE to CONTINUE when you are ready. </div>","32","","","","","","","","","","","","","","","","","","","",""
"html-keyboard-response","119","602804","0.0-4.0-0.0","yww0dhrho7pr0wv","instructions","5edba672293f3b028b70eb25","5f60e3c0a3b16e07647b2ff9","5f647ecfb8a76e212778ac23","false","1631.9900000235066","<div align=left> The actual experiment is about to start.<br>The practice trials are over!<br><br>Please always respond both fast and accurately!<br><br>Remember: <br> <br><li> Please place your index fingers on the <strong>'S'</strong> and <strong>'L'</strong> keys <br>to respond as fast and accurately as possible.</li><li> Every picture can be classified as either mechanical or non-mechanical.</li><li> If you do not respond in time or commit an error, you will receive a corresponding feedback.<br> Please try to respond as <strong> fast </strong> and as <strong> accurately as possible </strong>.</li><li> Remember the <span style='color: dodgerblue; font-size: 28px'>O</span> pictures. <br></li><li> Please minimize distractions and stay focused. </li><br><br>Press SPACE to START.</div>","32","","","","","","","","","","","","","","","","","","","",""
"html-keyboard-response","120","603505","0.0-4.0-1.0-0.0","yww0dhrho7pr0wv","prime","5edba672293f3b028b70eb25","5f60e3c0a3b16e07647b2ff9","5f647ecfb8a76e212778ac23","false","null","<span style=""color: black; font-size: 48px"">M + N</span>","null","","","","resp_prompt","","","","","","","","","","","","","","","",""
"categorize-image","121","604161","0.0-4.0-1.0-1.0","yww0dhrho7pr0wv","prime","5edba672293f3b028b70eb25","5f60e3c0a3b16e07647b2ff9","5f647ecfb8a76e212778ac23","true","650.5400000605732","./Stimuli/SelectedImages/SN/SN49.bmp","76","","","","test","true","M + N","76","switch","SN","SN49.bmp","remember","","49","3","prime1","right","","","",""
"html-keyboard-response","122","606163","0.0-4.0-1.0-3.0","yww0dhrho7pr0wv","prime","5edba672293f3b028b70eb25","5f60e3c0a3b16e07647b2ff9","5f647ecfb8a76e212778ac23","false","null","<div style=""align-items: center; display: flex; color: dodgerblue; font-size: 90px""><b>o</b></div>","null","","","","forget_cue","","","","","","","","","","","","","","","",""
"html-keyboard-response","123","606865","0.0-4.0-1.0-0.1","yww0dhrho7pr0wv","prime","5edba672293f3b028b70eb25","5f60e3c0a3b16e07647b2ff9","5f647ecfb8a76e212778ac23","false","null","<span style=""color: black; font-size: 48px"">M + N</span>","null","","","","resp_prompt","","","","","","","","","","","","","","","",""
"categorize-image","124","607992","0.0-4.0-1.0-1.1","yww0dhrho7pr0wv","prime","5edba672293f3b028b70eb25","5f60e3c0a3b16e07647b2ff9","5f647ecfb8a76e212778ac23","true","1122.910000034608","./Stimuli/SelectedImages/SM/SM148.bmp","83","","","","test","true","M + N","83","switch","SM","SM148.bmp","forget","","50","3","prime1","left","","","",""
"html-keyboard-response","125","609994","0.0-4.0-1.0-3.1","yww0dhrho7pr0wv","prime","5edba672293f3b028b70eb25","5f60e3c0a3b16e07647b2ff9","5f647ecfb8a76e212778ac23","false","null","<div style=""align-items: center; display: flex; color: darkorange; font-size: 90px""><b>ø</b></div>","null","","","","forget_cue","","","","","","","","","","","","","","","",""
"html-keyboard-response","126","610695","0.0-4.0-1.0-0.2","yww0dhrho7pr0wv","prime","5edba672293f3b028b70eb25","5f60e3c0a3b16e07647b2ff9","5f647ecfb8a76e212778ac23","false","null","<span style=""color: black; font-size: 48px"">N + M</span>","null","","","","resp_prompt","","","","","","","","","","","","","","","",""
"categorize-image","127","612242","0.0-4.0-1.0-1.2","yww0dhrho7pr0wv","prime","5edba672293f3b028b70eb25","5f60e3c0a3b16e07647b2ff9","5f647ecfb8a76e212778ac23","true","1541.6399999521673","./Stimuli/SelectedImages/LM/LM59.bmp","76","","","","test","true","N + M","76","switch","LM","LM59.bmp","forget","","51","3","prime1","right","","","",""
"html-keyboard-response","128","614244","0.0-4.0-1.0-3.2","yww0dhrho7pr0wv","prime","5edba672293f3b028b70eb25","5f60e3c0a3b16e07647b2ff9","5f647ecfb8a76e212778ac23","false","null","<div style=""align-items: center; display: flex; color: darkorange; font-size: 90px""><b>ø</b></div>","null","","","","forget_cue","","","","","","","","","","","","","","","",""
"html-keyboard-response","129","614945","0.0-4.0-1.0-0.3","yww0dhrho7pr0wv","prime","5edba672293f3b028b70eb25","5f60e3c0a3b16e07647b2ff9","5f647ecfb8a76e212778ac23","false","null","<span style=""color: black; font-size: 48px"">M + N</span>","null","","","","resp_prompt","","","","","","","","","","","","","","","",""
"categorize-image","130","615684","0.0-4.0-1.0-1.3","yww0dhrho7pr0wv","prime","5edba672293f3b028b70eb25","5f60e3c0a3b16e07647b2ff9","5f647ecfb8a76e212778ac23","true","734.3899999978021","./Stimuli/SelectedImages/LM/LM216.bmp","83","","","","test","true","M + N","83","repetition","LM","LM216.bmp","forget","","52","3","prime1","left","","","",""
"html-keyboard-response","131","617685","0.0-4.0-1.0-3.3","yww0dhrho7pr0wv","prime","5edba672293f3b028b70eb25","5f60e3c0a3b16e07647b2ff9","5f647ecfb8a76e212778ac23","false","null","<div style=""align-items: center; display: flex; color: darkorange; font-size: 90px""><b>ø</b></div>","null","","","","forget_cue","","","","","","","","","","","","","","","",""
"html-keyboard-response","132","618387","0.0-4.0-1.0-0.4","yww0dhrho7pr0wv","prime","5edba672293f3b028b70eb25","5f60e3c0a3b16e07647b2ff9","5f647ecfb8a76e212778ac23","false","null","<span style=""color: black; font-size: 48px"">M + N</span>","null","","","","resp_prompt","","","","","","","","","","","","","","","",""
"categorize-image","133","618977","0.0-4.0-1.0-1.4","yww0dhrho7pr0wv","prime","5edba672293f3b028b70eb25","5f60e3c0a3b16e07647b2ff9","5f647ecfb8a76e212778ac23","true","584.7000000067055","./Stimuli/SelectedImages/LN/LN131.bmp","76","","","","test","true","M + N","76","switch","LN","LN131.bmp","forget","","53","3","prime1","right","","","",""
"html-keyboard-response","134","620978","0.0-4.0-1.0-3.4","yww0dhrho7pr0wv","prime","5edba672293f3b028b70eb25","5f60e3c0a3b16e07647b2ff9","5f647ecfb8a76e212778ac23","false","null","<div style=""align-items: center; display: flex; color: darkorange; font-size: 90px""><b>ø</b></div>","null","","","","forget_cue","","","","","","","","","","","","","","","",""
"html-keyboard-response","135","621681","0.0-4.0-1.0-0.5","yww0dhrho7pr0wv","prime","5edba672293f3b028b70eb25","5f60e3c0a3b16e07647b2ff9","5f647ecfb8a76e212778ac23","false","null","<span style=""color: black; font-size: 48px"">M + N</span>","null","","","","resp_prompt","","","","","","","","","","","","","","","",""
"categorize-image","136","622677","0.0-4.0-1.0-1.5","yww0dhrho7pr0wv","prime","5edba672293f3b028b70eb25","5f60e3c0a3b16e07647b2ff9","5f647ecfb8a76e212778ac23","true","993.2200000621378","./Stimuli/SelectedImages/SM/SM24.bmp","76","","","","test","false","M + N","83","repetition","SM","SM24.bmp","remember","","54","3","prime1","right","","","",""
"html-keyboard-response","137","623179","0.0-4.0-1.0-2.5-0.5","yww0dhrho7pr0wv","prime","5edba672293f3b028b70eb25","5f60e3c0a3b16e07647b2ff9","5f647ecfb8a76e212778ac23","false","null","<span style=""color: red; font-size: 48px"">Error!</span>","null","","","","feedback","","","","","","","","","","","","","","","",""
"html-keyboard-response","138","625181","0.0-4.0-1.0-3.5","yww0dhrho7pr0wv","prime","5edba672293f3b028b70eb25","5f60e3c0a3b16e07647b2ff9","5f647ecfb8a76e212778ac23","false","null","<div style=""align-items: center; display: flex; color: dodgerblue; font-size: 90px""><b>o</b></div>","null","","","","forget_cue","","","","","","","","","","","","","","","",""
"html-keyboard-response","139","625883","0.0-4.0-1.0-0.6","yww0dhrho7pr0wv","prime","5edba672293f3b028b70eb25","5f60e3c0a3b16e07647b2ff9","5f647ecfb8a76e212778ac23","false","null","<span style=""color: black; font-size: 48px"">M + N</span>","null","","","","resp_prompt","","","","","","","","","","","","","","","",""
"categorize-image","140","626990","0.0-4.0-1.0-1.6","yww0dhrho7pr0wv","prime","5edba672293f3b028b70eb25","5f60e3c0a3b16e07647b2ff9","5f647ecfb8a76e212778ac23","true","1102.9349999735132","./Stimuli/SelectedImages/LM/LM157.bmp","83","","","","test","true","M + N","83","repetition","LM","LM157.bmp","remember","","55","3","prime1","left","","","",""
"html-keyboard-response","141","628992","0.0-4.0-1.0-3.6","yww0dhrho7pr0wv","prime","5edba672293f3b028b70eb25","5f60e3c0a3b16e07647b2ff9","5f647ecfb8a76e212778ac23","false","null","<div style=""align-items: center; display: flex; color: dodgerblue; font-size: 90px""><b>o</b></div>","null","","","","forget_cue","","","","","","","","","","","","","","","",""
"html-keyboard-response","142","629694","0.0-4.0-1.0-0.7","yww0dhrho7pr0wv","prime","5edba672293f3b028b70eb25","5f60e3c0a3b16e07647b2ff9","5f647ecfb8a76e212778ac23","false","null","<span style=""color: black; font-size: 48px"">N + M</span>","null","","","","resp_prompt","","","","","","","","","","","","","","","",""
"categorize-image","143","630881","0.0-4.0-1.0-1.7","yww0dhrho7pr0wv","prime","5edba672293f3b028b70eb25","5f60e3c0a3b16e07647b2ff9","5f647ecfb8a76e212778ac23","true","1182.3600000934675","./Stimuli/SelectedImages/LM/LM58.bmp","76","","","","test","true","N + M","76","repetition","LM","LM58.bmp","forget","","56","3","prime1","right","","","",""
"html-keyboard-response","144","632884","0.0-4.0-1.0-3.7","yww0dhrho7pr0wv","prime","5edba672293f3b028b70eb25","5f60e3c0a3b16e07647b2ff9","5f647ecfb8a76e212778ac23","false","null","<div style=""align-items: center; display: flex; color: darkorange; font-size: 90px""><b>ø</b></div>","null","","","","forget_cue","","","","","","","","","","","","","","","",""
"html-keyboard-response","145","633587","0.0-4.0-1.0-0.8","yww0dhrho7pr0wv","prime","5edba672293f3b028b70eb25","5f60e3c0a3b16e07647b2ff9","5f647ecfb8a76e212778ac23","false","null","<span style=""color: black; font-size: 48px"">M + N</span>","null","","","","resp_prompt","","","","","","","","","","","","","","","",""
"categorize-image","146","634473","0.0-4.0-1.0-1.8","yww0dhrho7pr0wv","prime","5edba672293f3b028b70eb25","5f60e3c0a3b16e07647b2ff9","5f647ecfb8a76e212778ac23","true","881.8149999715388","./Stimuli/SelectedImages/SN/SN179.bmp","76","","","","test","true","M + N","76","repetition","SN","SN179.bmp","remember","","57","3","prime1","right","","","",""
"html-keyboard-response","147","636476","0.0-4.0-1.0-3.8","yww0dhrho7pr0wv","prime","5edba672293f3b028b70eb25","5f60e3c0a3b16e07647b2ff9","5f647ecfb8a76e212778ac23","false","null","<div style=""align-items: center; display: flex; color: dodgerblue; font-size: 90px""><b>o</b></div>","null","","","","forget_cue","","","","","","","","","","","","","","","",""
"html-keyboard-response","148","637178","0.0-4.0-1.0-0.9","yww0dhrho7pr0wv","prime","5edba672293f3b028b70eb25","5f60e3c0a3b16e07647b2ff9","5f647ecfb8a76e212778ac23","false","null","<span style=""color: black; font-size: 48px"">N + M</span>","null","","","","resp_prompt","","","","","","","","","","","","","","","",""
"categorize-image","149","637920","0.0-4.0-1.0-1.9","yww0dhrho7pr0wv","prime","5edba672293f3b028b70eb25","5f60e3c0a3b16e07647b2ff9","5f647ecfb8a76e212778ac23","true","738.7300000991672","./Stimuli/SelectedImages/SN/SN182.bmp","76","","","","test","false","N + M","83","switch","SN","SN182.bmp","forget","","58","3","prime1","right","","","",""
"html-keyboard-response","150","638422","0.0-4.0-1.0-2.9-0.9","yww0dhrho7pr0wv","prime","5edba672293f3b028b70eb25","5f60e3c0a3b16e07647b2ff9","5f647ecfb8a76e212778ac23","false","null","<span style=""color: red; font-size: 48px"">Error!</span>","null","","","","feedback","","","","","","","","","","","","","","","",""
"html-keyboard-response","151","640424","0.0-4.0-1.0-3.9","yww0dhrho7pr0wv","prime","5edba672293f3b028b70eb25","5f60e3c0a3b16e07647b2ff9","5f647ecfb8a76e212778ac23","false","null","<div style=""align-items: center; display: flex; color: darkorange; font-size: 90px""><b>ø</b></div>","null","","","","forget_cue","","","","","","","","","","","","","","","",""
"html-keyboard-response","152","641125","0.0-4.0-1.0-0.10","yww0dhrho7pr0wv","prime","5edba672293f3b028b70eb25","5f60e3c0a3b16e07647b2ff9","5f647ecfb8a76e212778ac23","false","null","<span style=""color: black; font-size: 48px"">N + M</span>","null","","","","resp_prompt","","","","","","","","","","","","","","","",""
"categorize-image","153","642094","0.0-4.0-1.0-1.10","yww0dhrho7pr0wv","prime","5edba672293f3b028b70eb25","5f60e3c0a3b16e07647b2ff9","5f647ecfb8a76e212778ac23","true","964.7400000831112","./Stimuli/SelectedImages/LM/LM129.bmp","76","","","","test","true","N + M","76","switch","LM","LM129.bmp","forget","","59","3","prime1","right","","","",""
"html-keyboard-response","154","644097","0.0-4.0-1.0-3.10","yww0dhrho7pr0wv","prime","5edba672293f3b028b70eb25","5f60e3c0a3b16e07647b2ff9","5f647ecfb8a76e212778ac23","false","null","<div style=""align-items: center; display: flex; color: darkorange; font-size: 90px""><b>ø</b></div>","null","","","","forget_cue","","","","","","","","","","","","","","","",""
"html-keyboard-response","155","644799","0.0-4.0-1.0-0.11","yww0dhrho7pr0wv","prime","5edba672293f3b028b70eb25","5f60e3c0a3b16e07647b2ff9","5f647ecfb8a76e212778ac23","false","null","<span style=""color: black; font-size: 48px"">N + M</span>","null","","","","resp_prompt","","","","","","","","","","","","","","","",""
"categorize-image","156","646530","0.0-4.0-1.0-1.11","yww0dhrho7pr0wv","prime","5edba672293f3b028b70eb25","5f60e3c0a3b16e07647b2ff9","5f647ecfb8a76e212778ac23","true","1727.735000080429","./Stimuli/SelectedImages/SM/SM200.bmp","83","","","","test","false","N + M","76","repetition","SM","SM200.bmp","forget","","60","3","prime1","left","","","",""
"html-keyboard-response","157","647032","0.0-4.0-1.0-2.11-0.11","yww0dhrho7pr0wv","prime","5edba672293f3b028b70eb25","5f60e3c0a3b16e07647b2ff9","5f647ecfb8a76e212778ac23","false","null","<span style=""color: red; font-size: 48px"">Error!</span>","null","","","","feedback","","","","","","","","","","","","","","","",""
"html-keyboard-response","158","649035","0.0-4.0-1.0-3.11","yww0dhrho7pr0wv","prime","5edba672293f3b028b70eb25","5f60e3c0a3b16e07647b2ff9","5f647ecfb8a76e212778ac23","false","null","<div style=""align-items: center; display: flex; color: darkorange; font-size: 90px""><b>ø</b></div>","null","","","","forget_cue","","","","","","","","","","","","","","","",""
"html-keyboard-response","159","649736","0.0-4.0-1.0-0.12","yww0dhrho7pr0wv","prime","5edba672293f3b028b70eb25","5f60e3c0a3b16e07647b2ff9","5f647ecfb8a76e212778ac23","false","null","<span style=""color: black; font-size: 48px"">N + M</span>","null","","","","resp_prompt","","","","","","","","","","","","","","","",""
"categorize-image","160","650995","0.0-4.0-1.0-1.12","yww0dhrho7pr0wv","prime","5edba672293f3b028b70eb25","5f60e3c0a3b16e07647b2ff9","5f647ecfb8a76e212778ac23","true","1254.6449999790639","./Stimuli/SelectedImages/SM/SM108.bmp","83","","","","test","false","N + M","76","switch","SM","SM108.bmp","forget","","61","3","prime1","left","","","",""
"html-keyboard-response","161","651497","0.0-4.0-1.0-2.12-0.12","yww0dhrho7pr0wv","prime","5edba672293f3b028b70eb25","5f60e3c0a3b16e07647b2ff9","5f647ecfb8a76e212778ac23","false","null","<span style=""color: red; font-size: 48px"">Error!</span>","null","","","","feedback","","","","","","","","","","","","","","","",""
"html-keyboard-response","162","653499","0.0-4.0-1.0-3.12","yww0dhrho7pr0wv","prime","5edba672293f3b028b70eb25","5f60e3c0a3b16e07647b2ff9","5f647ecfb8a76e212778ac23","false","null","<div style=""align-items: center; display: flex; color: darkorange; font-size: 90px""><b>ø</b></div>","null","","","","forget_cue","","","","","","","","","","","","","","","",""
"html-keyboard-response","163","654201","0.0-4.0-1.0-0.13","yww0dhrho7pr0wv","prime","5edba672293f3b028b70eb25","5f60e3c0a3b16e07647b2ff9","5f647ecfb8a76e212778ac23","false","null","<span style=""color: black; font-size: 48px"">M + N</span>","null","","","","resp_prompt","","","","","","","","","","","","","","","",""
"categorize-image","164","654914","0.0-4.0-1.0-1.13","yww0dhrho7pr0wv","prime","5edba672293f3b028b70eb25","5f60e3c0a3b16e07647b2ff9","5f647ecfb8a76e212778ac23","true","708.4399999585003","./Stimuli/SelectedImages/LM/LM75.bmp","83","","","","test","true","M + N","83","repetition","LM","LM75.bmp","remember","","62","3","prime1","left","","","",""
"html-keyboard-response","165","656916","0.0-4.0-1.0-3.13","yww0dhrho7pr0wv","prime","5edba672293f3b028b70eb25","5f60e3c0a3b16e07647b2ff9","5f647ecfb8a76e212778ac23","false","null","<div style=""align-items: center; display: flex; color: dodgerblue; font-size: 90px""><b>o</b></div>","null","","","","forget_cue","","","","","","","","","","","","","","","",""
"html-keyboard-response","166","657617","0.0-4.0-1.0-0.14","yww0dhrho7pr0wv","prime","5edba672293f3b028b70eb25","5f60e3c0a3b16e07647b2ff9","5f647ecfb8a76e212778ac23","false","null","<span style=""color: black; font-size: 48px"">N + M</span>","null","","","","resp_prompt","","","","","","","","","","","","","","","",""
"categorize-image","167","658090","0.0-4.0-1.0-1.14","yww0dhrho7pr0wv","prime","5edba672293f3b028b70eb25","5f60e3c0a3b16e07647b2ff9","5f647ecfb8a76e212778ac23","true","469.29999999701977","./Stimuli/SelectedImages/LN/LN82.bmp","76","","","","test","false","N + M","83","repetition","LN","LN82.bmp","forget","","63","3","prime1","right","","","",""
"html-keyboard-response","168","658592","0.0-4.0-1.0-2.14-0.14","yww0dhrho7pr0wv","prime","5edba672293f3b028b70eb25","5f60e3c0a3b16e07647b2ff9","5f647ecfb8a76e212778ac23","false","null","<span style=""color: red; font-size: 48px"">Error!</span>","null","","","","feedback","","","","","","","","","","","","","","","",""
"html-keyboard-response","169","660595","0.0-4.0-1.0-3.14","yww0dhrho7pr0wv","prime","5edba672293f3b028b70eb25","5f60e3c0a3b16e07647b2ff9","5f647ecfb8a76e212778ac23","false","null","<div style=""align-items: center; display: flex; color: darkorange; font-size: 90px""><b>ø</b></div>","null","","","","forget_cue","","","","","","","","","","","","","","","",""
"html-keyboard-response","170","661296","0.0-4.0-1.0-0.15","yww0dhrho7pr0wv","prime","5edba672293f3b028b70eb25","5f60e3c0a3b16e07647b2ff9","5f647ecfb8a76e212778ac23","false","null","<span style=""color: black; font-size: 48px"">N + M</span>","null","","","","resp_prompt","","","","","","","","","","","","","","","",""
"categorize-image","171","662809","0.0-4.0-1.0-1.15","yww0dhrho7pr0wv","prime","5edba672293f3b028b70eb25","5f60e3c0a3b16e07647b2ff9","5f647ecfb8a76e212778ac23","true","1508.0699999816716","./Stimuli/SelectedImages/LN/LN92.bmp","83","","","","test","true","N + M","83","repetition","LN","LN92.bmp","forget","","64","3","prime1","left","","","",""
"html-keyboard-response","172","664810","0.0-4.0-1.0-3.15","yww0dhrho7pr0wv","prime","5edba672293f3b028b70eb25","5f60e3c0a3b16e07647b2ff9","5f647ecfb8a76e212778ac23","false","null","<div style=""align-items: center; display: flex; color: darkorange; font-size: 90px""><b>ø</b></div>","null","","","","forget_cue","","","","","","","","","","","","","","","",""
"html-keyboard-response","173","665513","0.0-4.0-1.0-0.16","yww0dhrho7pr0wv","prime","5edba672293f3b028b70eb25","5f60e3c0a3b16e07647b2ff9","5f647ecfb8a76e212778ac23","false","null","<span style=""color: black; font-size: 48px"">N + M</span>","null","","","","resp_prompt","","","","","","","","","","","","","","","",""
"categorize-image","174","666496","0.0-4.0-1.0-1.16","yww0dhrho7pr0wv","prime","5edba672293f3b028b70eb25","5f60e3c0a3b16e07647b2ff9","5f647ecfb8a76e212778ac23","true","977.8650000225753","./Stimuli/SelectedImages/SM/SM106.bmp","76","","","","test","true","N + M","76","switch","SM","SM106.bmp","remember","","65","3","prime1","right","","","",""
"html-keyboard-response","175","668497","0.0-4.0-1.0-3.16","yww0dhrho7pr0wv","prime","5edba672293f3b028b70eb25","5f60e3c0a3b16e07647b2ff9","5f647ecfb8a76e212778ac23","false","null","<div style=""align-items: center; display: flex; color: dodgerblue; font-size: 90px""><b>o</b></div>","null","","","","forget_cue","","","","","","","","","","","","","","","",""
"html-keyboard-response","176","669198","0.0-4.0-1.0-0.17","yww0dhrho7pr0wv","prime","5edba672293f3b028b70eb25","5f60e3c0a3b16e07647b2ff9","5f647ecfb8a76e212778ac23","false","null","<span style=""color: black; font-size: 48px"">N + M</span>","null","","","","resp_prompt","","","","","","","","","","","","","","","",""
"categorize-image","177","670202","0.0-4.0-1.0-1.17","yww0dhrho7pr0wv","prime","5edba672293f3b028b70eb25","5f60e3c0a3b16e07647b2ff9","5f647ecfb8a76e212778ac23","true","999.3800000520423","./Stimuli/SelectedImages/SN/SN187.bmp","83","","","","test","true","N + M","83","switch","SN","SN187.bmp","remember","","66","3","prime1","left","","","",""
"html-keyboard-response","178","672205","0.0-4.0-1.0-3.17","yww0dhrho7pr0wv","prime","5edba672293f3b028b70eb25","5f60e3c0a3b16e07647b2ff9","5f647ecfb8a76e212778ac23","false","null","<div style=""align-items: center; display: flex; color: dodgerblue; font-size: 90px""><b>o</b></div>","null","","","","forget_cue","","","","","","","","","","","","","","","",""
"html-keyboard-response","179","672906","0.0-4.0-1.0-0.18","yww0dhrho7pr0wv","prime","5edba672293f3b028b70eb25","5f60e3c0a3b16e07647b2ff9","5f647ecfb8a76e212778ac23","false","null","<span style=""color: black; font-size: 48px"">M + N</span>","null","","","","resp_prompt","","","","","","","","","","","","","","","",""
"categorize-image","180","674271","0.0-4.0-1.0-1.18","yww0dhrho7pr0wv","prime","5edba672293f3b028b70eb25","5f60e3c0a3b16e07647b2ff9","5f647ecfb8a76e212778ac23","true","1360.9350000042468","./Stimuli/SelectedImages/LM/LM57.bmp","76","","","","test","false","M + N","83","switch","LM","LM57.bmp","forget","","67","3","prime1","right","","","",""
"html-keyboard-response","181","674774","0.0-4.0-1.0-2.18-0.18","yww0dhrho7pr0wv","prime","5edba672293f3b028b70eb25","5f60e3c0a3b16e07647b2ff9","5f647ecfb8a76e212778ac23","false","null","<span style=""color: red; font-size: 48px"">Error!</span>","null","","","","feedback","","","","","","","","","","","","","","","",""
"html-keyboard-response","182","676777","0.0-4.0-1.0-3.18","yww0dhrho7pr0wv","prime","5edba672293f3b028b70eb25","5f60e3c0a3b16e07647b2ff9","5f647ecfb8a76e212778ac23","false","null","<div style=""align-items: center; display: flex; color: darkorange; font-size: 90px""><b>ø</b></div>","null","","","","forget_cue","","","","","","","","","","","","","","","",""
"html-keyboard-response","183","677478","0.0-4.0-1.0-0.19","yww0dhrho7pr0wv","prime","5edba672293f3b028b70eb25","5f60e3c0a3b16e07647b2ff9","5f647ecfb8a76e212778ac23","false","null","<span style=""color: black; font-size: 48px"">N + M</span>","null","","","","resp_prompt","","","","","","","","","","","","","","","",""
"categorize-image","184","678512","0.0-4.0-1.0-1.19","yww0dhrho7pr0wv","prime","5edba672293f3b028b70eb25","5f60e3c0a3b16e07647b2ff9","5f647ecfb8a76e212778ac23","true","1029.249999905005","./Stimuli/SelectedImages/SN/SN111.bmp","83","","","","test","true","N + M","83","switch","SN","SN111.bmp","remember","","68","3","prime1","left","","","",""
"html-keyboard-response","185","680514","0.0-4.0-1.0-3.19","yww0dhrho7pr0wv","prime","5edba672293f3b028b70eb25","5f60e3c0a3b16e07647b2ff9","5f647ecfb8a76e212778ac23","false","null","<div style=""align-items: center; display: flex; color: dodgerblue; font-size: 90px""><b>o</b></div>","null","","","","forget_cue","","","","","","","","","","","","","","","",""
"html-keyboard-response","186","681215","0.0-4.0-1.0-0.20","yww0dhrho7pr0wv","prime","5edba672293f3b028b70eb25","5f60e3c0a3b16e07647b2ff9","5f647ecfb8a76e212778ac23","false","null","<span style=""color: black; font-size: 48px"">M + N</span>","null","","","","resp_prompt","","","","","","","","","","","","","","","",""
"categorize-image","187","682172","0.0-4.0-1.0-1.20","yww0dhrho7pr0wv","prime","5edba672293f3b028b70eb25","5f60e3c0a3b16e07647b2ff9","5f647ecfb8a76e212778ac23","true","952.3200000403449","./Stimuli/SelectedImages/SN/SN155.bmp","76","","","","test","true","M + N","76","switch","SN","SN155.bmp","remember","","69","3","prime1","right","","","",""
"html-keyboard-response","188","684175","0.0-4.0-1.0-3.20","yww0dhrho7pr0wv","prime","5edba672293f3b028b70eb25","5f60e3c0a3b16e07647b2ff9","5f647ecfb8a76e212778ac23","false","null","<div style=""align-items: center; display: flex; color: dodgerblue; font-size: 90px""><b>o</b></div>","null","","","","forget_cue","","","","","","","","","","","","","","","",""
"html-keyboard-response","189","684876","0.0-4.0-1.0-0.21","yww0dhrho7pr0wv","prime","5edba672293f3b028b70eb25","5f60e3c0a3b16e07647b2ff9","5f647ecfb8a76e212778ac23","false","null","<span style=""color: black; font-size: 48px"">N + M</span>","null","","","","resp_prompt","","","","","","","","","","","","","","","",""
"categorize-image","190","685963","0.0-4.0-1.0-1.21","yww0dhrho7pr0wv","prime","5edba672293f3b028b70eb25","5f60e3c0a3b16e07647b2ff9","5f647ecfb8a76e212778ac23","true","1082.5750000076368","./Stimuli/SelectedImages/LM/LM209.bmp","83","","","","test","false","N + M","76","repetition","LM","LM209.bmp","remember","","70","3","prime1","left","","","",""
"html-keyboard-response","191","686465","0.0-4.0-1.0-2.21-0.21","yww0dhrho7pr0wv","prime","5edba672293f3b028b70eb25","5f60e3c0a3b16e07647b2ff9","5f647ecfb8a76e212778ac23","false","null","<span style=""color: red; font-size: 48px"">Error!</span>","null","","","","feedback","","","","","","","","","","","","","","","",""
"html-keyboard-response","192","688467","0.0-4.0-1.0-3.21","yww0dhrho7pr0wv","prime","5edba672293f3b028b70eb25","5f60e3c0a3b16e07647b2ff9","5f647ecfb8a76e212778ac23","false","null","<div style=""align-items: center; display: flex; color: dodgerblue; font-size: 90px""><b>o</b></div>","null","","","","forget_cue","","","","","","","","","","","","","","","",""
"html-keyboard-response","193","689169","0.0-4.0-1.0-0.22","yww0dhrho7pr0wv","prime","5edba672293f3b028b70eb25","5f60e3c0a3b16e07647b2ff9","5f647ecfb8a76e212778ac23","false","null","<span style=""color: black; font-size: 48px"">M + N</span>","null","","","","resp_prompt","","","","","","","","","","","","","","","",""
"categorize-image","194","690514","0.0-4.0-1.0-1.22","yww0dhrho7pr0wv","prime","5edba672293f3b028b70eb25","5f60e3c0a3b16e07647b2ff9","5f647ecfb8a76e212778ac23","true","1340.9100000280887","./Stimuli/SelectedImages/SM/SM74.bmp","76","","","","test","false","M + N","83","switch","SM","SM74.bmp","forget","","71","3","prime1","right","","","",""
"html-keyboard-response","195","691015","0.0-4.0-1.0-2.22-0.22","yww0dhrho7pr0wv","prime","5edba672293f3b028b70eb25","5f60e3c0a3b16e07647b2ff9","5f647ecfb8a76e212778ac23","false","null","<span style=""color: red; font-size: 48px"">Error!</span>","null","","","","feedback","","","","","","","","","","","","","","","",""
"html-keyboard-response","196","693017","0.0-4.0-1.0-3.22","yww0dhrho7pr0wv","prime","5edba672293f3b028b70eb25","5f60e3c0a3b16e07647b2ff9","5f647ecfb8a76e212778ac23","false","null","<div style=""align-items: center; display: flex; color: darkorange; font-size: 90px""><b>ø</b></div>","null","","","","forget_cue","","","","","","","","","","","","","","","",""
"html-keyboard-response","197","693719","0.0-4.0-1.0-0.23","yww0dhrho7pr0wv","prime","5edba672293f3b028b70eb25","5f60e3c0a3b16e07647b2ff9","5f647ecfb8a76e212778ac23","false","null","<span style=""color: black; font-size: 48px"">M + N</span>","null","","","","resp_prompt","","","","","","","","","","","","","","","",""
"categorize-image","198","694793","0.0-4.0-1.0-1.23","yww0dhrho7pr0wv","prime","5edba672293f3b028b70eb25","5f60e3c0a3b16e07647b2ff9","5f647ecfb8a76e212778ac23","true","1069.4199999561533","./Stimuli/SelectedImages/SN/SN93.bmp","76","","","","test","true","M + N","76","repetition","SN","SN93.bmp","forget","","72","3","prime1","right","","","",""
"html-keyboard-response","199","696794","0.0-4.0-1.0-3.23","yww0dhrho7pr0wv","prime","5edba672293f3b028b70eb25","5f60e3c0a3b16e07647b2ff9","5f647ecfb8a76e212778ac23","false","null","<div style=""align-items: center; display: flex; color: darkorange; font-size: 90px""><b>ø</b></div>","null","","","","forget_cue","","","","","","","","","","","","","","","",""
"html-keyboard-response","200","697496","0.0-4.0-1.0-0.24","yww0dhrho7pr0wv","prime","5edba672293f3b028b70eb25","5f60e3c0a3b16e07647b2ff9","5f647ecfb8a76e212778ac23","false","null","<span style=""color: black; font-size: 48px"">N + M</span>","null","","","","resp_prompt","","","","","","","","","","","","","","","",""
"categorize-image","201","698440","0.0-4.0-1.0-1.24","yww0dhrho7pr0wv","prime","5edba672293f3b028b70eb25","5f60e3c0a3b16e07647b2ff9","5f647ecfb8a76e212778ac23","true","938.6500000255182","./Stimuli/SelectedImages/SN/SN181.bmp","83","","","","test","true","N + M","83","switch","SN","SN181.bmp","forget","","73","3","prime1","left","","","",""
"html-keyboard-response","202","700442","0.0-4.0-1.0-3.24","yww0dhrho7pr0wv","prime","5edba672293f3b028b70eb25","5f60e3c0a3b16e07647b2ff9","5f647ecfb8a76e212778ac23","false","null","<div style=""align-items: center; display: flex; color: darkorange; font-size: 90px""><b>ø</b></div>","null","","","","forget_cue","","","","","","","","","","","","","","","",""
"html-keyboard-response","203","701143","0.0-4.0-1.0-0.25","yww0dhrho7pr0wv","prime","5edba672293f3b028b70eb25","5f60e3c0a3b16e07647b2ff9","5f647ecfb8a76e212778ac23","false","null","<span style=""color: black; font-size: 48px"">M + N</span>","null","","","","resp_prompt","","","","","","","","","","","","","","","",""
"categorize-image","204","701991","0.0-4.0-1.0-1.25","yww0dhrho7pr0wv","prime","5edba672293f3b028b70eb25","5f60e3c0a3b16e07647b2ff9","5f647ecfb8a76e212778ac23","true","843.0200000293553","./Stimuli/SelectedImages/SN/SN240.bmp","76","","","","test","true","M + N","76","repetition","SN","SN240.bmp","remember","","74","3","prime1","right","","","",""
"html-keyboard-response","205","703993","0.0-4.0-1.0-3.25","yww0dhrho7pr0wv","prime","5edba672293f3b028b70eb25","5f60e3c0a3b16e07647b2ff9","5f647ecfb8a76e212778ac23","false","null","<div style=""align-items: center; display: flex; color: dodgerblue; font-size: 90px""><b>o</b></div>","null","","","","forget_cue","","","","","","","","","","","","","","","",""
"html-keyboard-response","206","704695","0.0-4.0-1.0-0.26","yww0dhrho7pr0wv","prime","5edba672293f3b028b70eb25","5f60e3c0a3b16e07647b2ff9","5f647ecfb8a76e212778ac23","false","null","<span style=""color: black; font-size: 48px"">N + M</span>","null","","","","resp_prompt","","","","","","","","","","","","","","","",""
"categorize-image","207","705726","0.0-4.0-1.0-1.26","yww0dhrho7pr0wv","prime","5edba672293f3b028b70eb25","5f60e3c0a3b16e07647b2ff9","5f647ecfb8a76e212778ac23","true","1027.5299999630079","./Stimuli/SelectedImages/SM/SM78.bmp","76","","","","test","true","N + M","76","switch","SM","SM78.bmp","remember","","75","3","prime1","right","","","",""
"html-keyboard-response","208","707727","0.0-4.0-1.0-3.26","yww0dhrho7pr0wv","prime","5edba672293f3b028b70eb25","5f60e3c0a3b16e07647b2ff9","5f647ecfb8a76e212778ac23","false","null","<div style=""align-items: center; display: flex; color: dodgerblue; font-size: 90px""><b>o</b></div>","null","","","","forget_cue","","","","","","","","","","","","","","","",""
"html-keyboard-response","209","708431","0.0-4.0-1.0-0.27","yww0dhrho7pr0wv","prime","5edba672293f3b028b70eb25","5f60e3c0a3b16e07647b2ff9","5f647ecfb8a76e212778ac23","false","null","<span style=""color: black; font-size: 48px"">M + N</span>","null","","","","resp_prompt","","","","","","","","","","","","","","","",""
"categorize-image","210","709150","0.0-4.0-1.0-1.27","yww0dhrho7pr0wv","prime","5edba672293f3b028b70eb25","5f60e3c0a3b16e07647b2ff9","5f647ecfb8a76e212778ac23","true","715.5349999666214","./Stimuli/SelectedImages/SM/SM128.bmp","83","","","","test","true","M + N","83","switch","SM","SM128.bmp","remember","","76","3","prime1","left","","","",""
"html-keyboard-response","211","711151","0.0-4.0-1.0-3.27","yww0dhrho7pr0wv","prime","5edba672293f3b028b70eb25","5f60e3c0a3b16e07647b2ff9","5f647ecfb8a76e212778ac23","false","null","<div style=""align-items: center; display: flex; color: dodgerblue; font-size: 90px""><b>o</b></div>","null","","","","forget_cue","","","","","","","","","","","","","","","",""
"html-keyboard-response","212","711853","0.0-4.0-1.0-0.28","yww0dhrho7pr0wv","prime","5edba672293f3b028b70eb25","5f60e3c0a3b16e07647b2ff9","5f647ecfb8a76e212778ac23","false","null","<span style=""color: black; font-size: 48px"">N + M</span>","null","","","","resp_prompt","","","","","","","","","","","","","","","",""
"categorize-image","213","712609","0.0-4.0-1.0-1.28","yww0dhrho7pr0wv","prime","5edba672293f3b028b70eb25","5f60e3c0a3b16e07647b2ff9","5f647ecfb8a76e212778ac23","true","752.1649999544024","./Stimuli/SelectedImages/LN/LN42.bmp","76","","","","test","false","N + M","83","switch","LN","LN42.bmp","forget","","77","3","prime1","right","","","",""
"html-keyboard-response","214","713111","0.0-4.0-1.0-2.28-0.28","yww0dhrho7pr0wv","prime","5edba672293f3b028b70eb25","5f60e3c0a3b16e07647b2ff9","5f647ecfb8a76e212778ac23","false","null","<span style=""color: red; font-size: 48px"">Error!</span>","null","","","","feedback","","","","","","","","","","","","","","","",""
"html-keyboard-response","215","715112","0.0-4.0-1.0-3.28","yww0dhrho7pr0wv","prime","5edba672293f3b028b70eb25","5f60e3c0a3b16e07647b2ff9","5f647ecfb8a76e212778ac23","false","null","<div style=""align-items: center; display: flex; color: darkorange; font-size: 90px""><b>ø</b></div>","null","","","","forget_cue","","","","","","","","","","","","","","","",""
"html-keyboard-response","216","715815","0.0-4.0-1.0-0.29","yww0dhrho7pr0wv","prime","5edba672293f3b028b70eb25","5f60e3c0a3b16e07647b2ff9","5f647ecfb8a76e212778ac23","false","null","<span style=""color: black; font-size: 48px"">M + N</span>","null","","","","resp_prompt","","","","","","","","","","","","","","","",""
"categorize-image","217","716725","0.0-4.0-1.0-1.29","yww0dhrho7pr0wv","prime","5edba672293f3b028b70eb25","5f60e3c0a3b16e07647b2ff9","5f647ecfb8a76e212778ac23","true","906.0249999165535","./Stimuli/SelectedImages/LM/LM51.bmp","83","","","","test","true","M + N","83","switch","LM","LM51.bmp","remember","","78","3","prime1","left","","","",""
"html-keyboard-response","218","718727","0.0-4.0-1.0-3.29","yww0dhrho7pr0wv","prime","5edba672293f3b028b70eb25","5f60e3c0a3b16e07647b2ff9","5f647ecfb8a76e212778ac23","false","null","<div style=""align-items: center; display: flex; color: dodgerblue; font-size: 90px""><b>o</b></div>","null","","","","forget_cue","","","","","","","","","","","","","","","",""
"html-keyboard-response","219","719430","0.0-4.0-1.0-0.30","yww0dhrho7pr0wv","prime","5edba672293f3b028b70eb25","5f60e3c0a3b16e07647b2ff9","5f647ecfb8a76e212778ac23","false","null","<span style=""color: black; font-size: 48px"">N + M</span>","null","","","","resp_prompt","","","","","","","","","","","","","","","",""
"categorize-image","220","720446","0.0-4.0-1.0-1.30","yww0dhrho7pr0wv","prime","5edba672293f3b028b70eb25","5f60e3c0a3b16e07647b2ff9","5f647ecfb8a76e212778ac23","true","1012.00499990955","./Stimuli/SelectedImages/LM/LM103.bmp","76","","","","test","true","N + M","76","repetition","LM","LM103.bmp","forget","","79","3","prime1","right","","","",""
"html-keyboard-response","221","722448","0.0-4.0-1.0-3.30","yww0dhrho7pr0wv","prime","5edba672293f3b028b70eb25","5f60e3c0a3b16e07647b2ff9","5f647ecfb8a76e212778ac23","false","null","<div style=""align-items: center; display: flex; color: darkorange; font-size: 90px""><b>ø</b></div>","null","","","","forget_cue","","","","","","","","","","","","","","","",""
"html-keyboard-response","222","723150","0.0-4.0-1.0-0.31","yww0dhrho7pr0wv","prime","5edba672293f3b028b70eb25","5f60e3c0a3b16e07647b2ff9","5f647ecfb8a76e212778ac23","false","null","<span style=""color: black; font-size: 48px"">M + N</span>","null","","","","resp_prompt","","","","","","","","","","","","","","","",""
"categorize-image","223","724377","0.0-4.0-1.0-1.31","yww0dhrho7pr0wv","prime","5edba672293f3b028b70eb25","5f60e3c0a3b16e07647b2ff9","5f647ecfb8a76e212778ac23","true","1222.994999960065","./Stimuli/SelectedImages/SM/SM184.bmp","83","","","","test","true","M + N","83","repetition","SM","SM184.bmp","forget","","80","3","prime1","left","","","",""
"html-keyboard-response","224","726379","0.0-4.0-1.0-3.31","yww0dhrho7pr0wv","prime","5edba672293f3b028b70eb25","5f60e3c0a3b16e07647b2ff9","5f647ecfb8a76e212778ac23","false","null","<div style=""align-items: center; display: flex; color: darkorange; font-size: 90px""><b>ø</b></div>","null","","","","forget_cue","","","","","","","","","","","","","","","",""
"html-keyboard-response","225","727081","0.0-4.0-1.0-0.32","yww0dhrho7pr0wv","prime","5edba672293f3b028b70eb25","5f60e3c0a3b16e07647b2ff9","5f647ecfb8a76e212778ac23","false","null","<span style=""color: black; font-size: 48px"">M + N</span>","null","","","","resp_prompt","","","","","","","","","","","","","","","",""
"categorize-image","226","727897","0.0-4.0-1.0-1.32","yww0dhrho7pr0wv","prime","5edba672293f3b028b70eb25","5f60e3c0a3b16e07647b2ff9","5f647ecfb8a76e212778ac23","true","813.2449999684468","./Stimuli/SelectedImages/LN/LN101.bmp","76","","","","test","true","M + N","76","switch","LN","LN101.bmp","forget","","81","3","prime1","right","","","",""
"html-keyboard-response","227","729899","0.0-4.0-1.0-3.32","yww0dhrho7pr0wv","prime","5edba672293f3b028b70eb25","5f60e3c0a3b16e07647b2ff9","5f647ecfb8a76e212778ac23","false","null","<div style=""align-items: center; display: flex; color: darkorange; font-size: 90px""><b>ø</b></div>","null","","","","forget_cue","","","","","","","","","","","","","","","",""
"html-keyboard-response","228","730600","0.0-4.0-1.0-0.33","yww0dhrho7pr0wv","prime","5edba672293f3b028b70eb25","5f60e3c0a3b16e07647b2ff9","5f647ecfb8a76e212778ac23","false","null","<span style=""color: black; font-size: 48px"">N + M</span>","null","","","","resp_prompt","","","","","","","","","","","","","","","",""
"categorize-image","229","731795","0.0-4.0-1.0-1.33","yww0dhrho7pr0wv","prime","5edba672293f3b028b70eb25","5f60e3c0a3b16e07647b2ff9","5f647ecfb8a76e212778ac23","true","1190.070000011474","./Stimuli/SelectedImages/SN/SN60.bmp","83","","","","test","true","N + M","83","repetition","SN","SN60.bmp","remember","","82","3","prime1","left","","","",""
"html-keyboard-response","230","733797","0.0-4.0-1.0-3.33","yww0dhrho7pr0wv","prime","5edba672293f3b028b70eb25","5f60e3c0a3b16e07647b2ff9","5f647ecfb8a76e212778ac23","false","null","<div style=""align-items: center; display: flex; color: dodgerblue; font-size: 90px""><b>o</b></div>","null","","","","forget_cue","","","","","","","","","","","","","","","",""
"html-keyboard-response","231","734499","0.0-4.0-1.0-0.34","yww0dhrho7pr0wv","prime","5edba672293f3b028b70eb25","5f60e3c0a3b16e07647b2ff9","5f647ecfb8a76e212778ac23","false","null","<span style=""color: black; font-size: 48px"">M + N</span>","null","","","","resp_prompt","","","","","","","","","","","","","","","",""
"categorize-image","232","735843","0.0-4.0-1.0-1.34","yww0dhrho7pr0wv","prime","5edba672293f3b028b70eb25","5f60e3c0a3b16e07647b2ff9","5f647ecfb8a76e212778ac23","true","1338.6199999367818","./Stimuli/SelectedImages/LN/LN150.bmp","76","","","","test","true","M + N","76","repetition","LN","LN150.bmp","remember","","83","3","prime1","right","","","",""
"html-keyboard-response","233","737845","0.0-4.0-1.0-3.34","yww0dhrho7pr0wv","prime","5edba672293f3b028b70eb25","5f60e3c0a3b16e07647b2ff9","5f647ecfb8a76e212778ac23","false","null","<div style=""align-items: center; display: flex; color: dodgerblue; font-size: 90px""><b>o</b></div>","null","","","","forget_cue","","","","","","","","","","","","","","","",""
"html-keyboard-response","234","738547","0.0-4.0-1.0-0.35","yww0dhrho7pr0wv","prime","5edba672293f3b028b70eb25","5f60e3c0a3b16e07647b2ff9","5f647ecfb8a76e212778ac23","false","null","<span style=""color: black; font-size: 48px"">M + N</span>","null","","","","resp_prompt","","","","","","","","","","","","","","","",""
"categorize-image","235","739049","0.0-4.0-1.0-1.35","yww0dhrho7pr0wv","prime","5edba672293f3b028b70eb25","5f60e3c0a3b16e07647b2ff9","5f647ecfb8a76e212778ac23","true","499.59499994292855","./Stimuli/SelectedImages/SN/SN27.bmp","76","","","","test","true","M + N","76","switch","SN","SN27.bmp","forget","","84","3","prime1","right","","","",""
"html-keyboard-response","236","741052","0.0-4.0-1.0-3.35","yww0dhrho7pr0wv","prime","5edba672293f3b028b70eb25","5f60e3c0a3b16e07647b2ff9","5f647ecfb8a76e212778ac23","false","null","<div style=""align-items: center; display: flex; color: darkorange; font-size: 90px""><b>ø</b></div>","null","","","","forget_cue","","","","","","","","","","","","","","","",""
"html-keyboard-response","237","741753","0.0-4.0-1.0-0.36","yww0dhrho7pr0wv","prime","5edba672293f3b028b70eb25","5f60e3c0a3b16e07647b2ff9","5f647ecfb8a76e212778ac23","false","null","<span style=""color: black; font-size: 48px"">M + N</span>","null","","","","resp_prompt","","","","","","","","","","","","","","","",""
"categorize-image","238","742820","0.0-4.0-1.0-1.36","yww0dhrho7pr0wv","prime","5edba672293f3b028b70eb25","5f60e3c0a3b16e07647b2ff9","5f647ecfb8a76e212778ac23","true","1063.4400000562891","./Stimuli/SelectedImages/SM/SM17.bmp","83","","","","test","true","M + N","83","repetition","SM","SM17.bmp","forget","","85","3","prime1","left","","","",""
"html-keyboard-response","239","744822","0.0-4.0-1.0-3.36","yww0dhrho7pr0wv","prime","5edba672293f3b028b70eb25","5f60e3c0a3b16e07647b2ff9","5f647ecfb8a76e212778ac23","false","null","<div style=""align-items: center; display: flex; color: darkorange; font-size: 90px""><b>ø</b></div>","null","","","","forget_cue","","","","","","","","","","","","","","","",""
"html-keyboard-response","240","745523","0.0-4.0-1.0-0.37","yww0dhrho7pr0wv","prime","5edba672293f3b028b70eb25","5f60e3c0a3b16e07647b2ff9","5f647ecfb8a76e212778ac23","false","null","<span style=""color: black; font-size: 48px"">M + N</span>","null","","","","resp_prompt","","","","","","","","","","","","","","","",""
"categorize-image","241","746098","0.0-4.0-1.0-1.37","yww0dhrho7pr0wv","prime","5edba672293f3b028b70eb25","5f60e3c0a3b16e07647b2ff9","5f647ecfb8a76e212778ac23","true","569.6050000842661","./Stimuli/SelectedImages/SN/SN128.bmp","76","","","","test","true","M + N","76","switch","SN","SN128.bmp","forget","","86","3","prime1","right","","","",""
"html-keyboard-response","242","748100","0.0-4.0-1.0-3.37","yww0dhrho7pr0wv","prime","5edba672293f3b028b70eb25","5f60e3c0a3b16e07647b2ff9","5f647ecfb8a76e212778ac23","false","null","<div style=""align-items: center; display: flex; color: darkorange; font-size: 90px""><b>ø</b></div>","null","","","","forget_cue","","","","","","","","","","","","","","","",""
"html-keyboard-response","243","748803","0.0-4.0-1.0-0.38","yww0dhrho7pr0wv","prime","5edba672293f3b028b70eb25","5f60e3c0a3b16e07647b2ff9","5f647ecfb8a76e212778ac23","false","null","<span style=""color: black; font-size: 48px"">M + N</span>","null","","","","resp_prompt","","","","","","","","","","","","","","","",""
"categorize-image","244","749507","0.0-4.0-1.0-1.38","yww0dhrho7pr0wv","prime","5edba672293f3b028b70eb25","5f60e3c0a3b16e07647b2ff9","5f647ecfb8a76e212778ac23","true","699.6950000757352","./Stimuli/SelectedImages/LN/LN59.bmp","76","","","","test","true","M + N","76","repetition","LN","LN59.bmp","forget","","87","3","prime1","right","","","",""
"html-keyboard-response","245","751509","0.0-4.0-1.0-3.38","yww0dhrho7pr0wv","prime","5edba672293f3b028b70eb25","5f60e3c0a3b16e07647b2ff9","5f647ecfb8a76e212778ac23","false","null","<div style=""align-items: center; display: flex; color: darkorange; font-size: 90px""><b>ø</b></div>","null","","","","forget_cue","","","","","","","","","","","","","","","",""
"html-keyboard-response","246","752211","0.0-4.0-1.0-0.39","yww0dhrho7pr0wv","prime","5edba672293f3b028b70eb25","5f60e3c0a3b16e07647b2ff9","5f647ecfb8a76e212778ac23","false","null","<span style=""color: black; font-size: 48px"">M + N</span>","null","","","","resp_prompt","","","","","","","","","","","","","","","",""
"categorize-image","247","752917","0.0-4.0-1.0-1.39","yww0dhrho7pr0wv","prime","5edba672293f3b028b70eb25","5f60e3c0a3b16e07647b2ff9","5f647ecfb8a76e212778ac23","true","701.5949999913573","./Stimuli/SelectedImages/LM/LM167.bmp","83","","","","test","true","M + N","83","switch","LM","LM167.bmp","remember","","88","3","prime1","left","","","",""
"html-keyboard-response","248","754919","0.0-4.0-1.0-3.39","yww0dhrho7pr0wv","prime","5edba672293f3b028b70eb25","5f60e3c0a3b16e07647b2ff9","5f647ecfb8a76e212778ac23","false","null","<div style=""align-items: center; display: flex; color: dodgerblue; font-size: 90px""><b>o</b></div>","null","","","","forget_cue","","","","","","","","","","","","","","","",""
"html-keyboard-response","249","755621","0.0-4.0-1.0-0.40","yww0dhrho7pr0wv","prime","5edba672293f3b028b70eb25","5f60e3c0a3b16e07647b2ff9","5f647ecfb8a76e212778ac23","false","null","<span style=""color: black; font-size: 48px"">N + M</span>","null","","","","resp_prompt","","","","","","","","","","","","","","","",""
"categorize-image","250","756939","0.0-4.0-1.0-1.40","yww0dhrho7pr0wv","prime","5edba672293f3b028b70eb25","5f60e3c0a3b16e07647b2ff9","5f647ecfb8a76e212778ac23","true","1314.8349999682978","./Stimuli/SelectedImages/SM/SM195.bmp","83","","","","test","false","N + M","76","repetition","SM","SM195.bmp","remember","","89","3","prime1","left","","","",""
"html-keyboard-response","251","757441","0.0-4.0-1.0-2.40-0.40","yww0dhrho7pr0wv","prime","5edba672293f3b028b70eb25","5f60e3c0a3b16e07647b2ff9","5f647ecfb8a76e212778ac23","false","null","<span style=""color: red; font-size: 48px"">Error!</span>","null","","","","feedback","","","","","","","","","","","","","","","",""
"html-keyboard-response","252","759443","0.0-4.0-1.0-3.40","yww0dhrho7pr0wv","prime","5edba672293f3b028b70eb25","5f60e3c0a3b16e07647b2ff9","5f647ecfb8a76e212778ac23","false","null","<div style=""align-items: center; display: flex; color: dodgerblue; font-size: 90px""><b>o</b></div>","null","","","","forget_cue","","","","","","","","","","","","","","","",""
"html-keyboard-response","253","760145","0.0-4.0-1.0-0.41","yww0dhrho7pr0wv","prime","5edba672293f3b028b70eb25","5f60e3c0a3b16e07647b2ff9","5f647ecfb8a76e212778ac23","false","null","<span style=""color: black; font-size: 48px"">N + M</span>","null","","","","resp_prompt","","","","","","","","","","","","","","","",""
