"trial_type","trial_index","time_elapsed","internal_node_id","subject","exp_part","prolific_PID","study_ID","session_ID","use","rt","stimulus","key_press","button_pressed","responses","question_order","trial_part","correct","resp_map","correct_resp","probe_condition","category","image","forget_condition","list","trial_num","block_num","block","response","test_part","n_span","sequence","num_spaces"
"pavlovia","0","4","0.0-0.0","mhnruhtpgn7cb9h","","5a6f7604ff6f2300013edcd8","5f60e3c0a3b16e07647b2ff9","5f60ef5515bf45016c238a5d","false","","","","","","","","","","","","","","","","","","","","","","",""
"html-keyboard-response","1","11616","0.0-1.0-0.0-0.0","mhnruhtpgn7cb9h","welcome","5a6f7604ff6f2300013edcd8","5f60e3c0a3b16e07647b2ff9","5f60ef5515bf45016c238a5d","false","11607.380000001285","<div align=left>Dear participant, <br> thank you for participating in an online study of the Cognition, Action, and Sustainability Unit of the University of Freiburg! <br> <br>The aim of this study is to examine our ability to remember previously learned information. <br>Our goal is to find out, whether our memory improves, when we only remember information that is relevant to us. <br>The experiment will take about 35 minutes to complete. <br> <br>Please, note that you can only participate in this study if you are using a device with a keyboard (PC, Laptop etc.) <br>and not if you are using a mobile device such as a tablet or smartphone.<br> <br>Press 'SPACE' to proceed to the experiment. </div>","32","","","","","","","","","","","","","","","","","","","",""
"html-keyboard-response","2","30314","0.0-1.0-0.0-1.0","mhnruhtpgn7cb9h","welcome","5a6f7604ff6f2300013edcd8","5f60e3c0a3b16e07647b2ff9","5f60ef5515bf45016c238a5d","false","18695.985000013025","<div align=left><strong> Time Course of this experiment: </strong> <br><br> <strong> 1.</strong>  First, please fill in some information regarding your demographic data. <br><br> <strong> 2.</strong>  Next, your task will be to classify everyday objects. <br>In addition, you will be asked to remember certain objects and recall them later. <br>Working on these tasks requires your undivided attention and concentration.<br>It is therefore essential that you eliminate any sources of distraction in your  <br>environment and ensure that you will not be disturbed. <br><br><strong> 3.</strong>  At the end of the experiment, you will be asked to answer a few additional questions. <br> <br><strong> Important:</strong> After finishing the experiment, only close the browser window <br> by clicking on the 'end the experiment'-button when you are asked to do so. <br>Closing the browser window prematurely will make the allocation of your participation credit impossible. <br><br> Press 'SPACE' to start the experiment. </div>","32","","","","","","","","","","","","","","","","","","","",""
"html-button-response","3","46477","0.0-1.0-0.0-2.0","mhnruhtpgn7cb9h","welcome","5a6f7604ff6f2300013edcd8","5f60e3c0a3b16e07647b2ff9","5f60ef5515bf45016c238a5d","true","16159.9450000067","<div align=left><strong> Informed consent </strong>  <br>The aim of our research is to better understand human behavior and mental processes. <br>In the following study your behavior (e.g. choices, reaction times) will be studied. <br> <br><strong> Voluntariness and Anonymity </strong> <br>Your participation in this study is  <strong> voluntary</strong>.<br>You may withdraw your consent to participate at any time without providing a reason for doing so and without fear of prejudice. <br><br>As no personal data will be collected, <strong>your data and your person cannot be connected after data collection</strong> – the data-set is anonymous. <br>Respectively, deletion of your data will not be possible after data collection has been completed, as we cannot retrace your data-set.<br>The results and anonymized data collected in this study will be published as a scientific publication. <br>This will happen in an <strong>anonymized format</strong>, so that no data can be traced back to a specific person. <br> <br>The anonymized data of this study will be made available to other researchers and/or in a data archive on the Internet as a means of transparency and to enable subsequent re-use. By doing so, this study follows the recommendations of the Deutsche Forschungsgemeinschaft (DFG, German Research Foundation) and Deutsche Gesellschaft für Psychologie (DGPS, German Psychological Society) regarding quality assurance in research.<br>If you have any questions now or after the experiment, please contact our team (experiments@cs.uni-freiburg.de).<br><br><br>I hereby declare, that I understand the above described conditions of participation and I agree to participate under these conditions. <br><br> </div>","","0","","","","","","","","","","","","","","","","","","",""
"html-keyboard-response","4","63667","0.0-1.0-0.0-3.0","mhnruhtpgn7cb9h","welcome","5a6f7604ff6f2300013edcd8","5f60e3c0a3b16e07647b2ff9","5f60ef5515bf45016c238a5d","false","17184.915000005276","<div align=left><strong> General information concerning the experiment </strong>  <br> <br>Please follow the instructions:<ol> <li><strong> Do not leave this tab (your browser window) during the experiment and do not reload this tab! </strong>  <br>If you do switch tabs/windows during the experiment (to check your mail or visit another website, for example), <br>the experiment will end automatically and you will <strong>not receive credit</strong> for your participation. <br>Repeated participation or resumption of the experiment is impossible.</li> <br><li>Please close all other programs for the duration of your participation. </li> <br><li>Please mute or turn off your phone and put it out of your reach. </li> <br><li>Please also take off any disturbing accessories (such as wristwatches, bracelets, etc.). </li> <br><li>If you have music playing in the background, please turn it off now. </li> <br></ol>Thank you! <br>Press 'SPACE' to continue. </div>","32","","","","","","","","","","","","","","","","","","","",""
"survey-text","5","69305","0.0-1.0-1.0-0.0","mhnruhtpgn7cb9h","demographics","5a6f7604ff6f2300013edcd8","5f60e3c0a3b16e07647b2ff9","5f60ef5515bf45016c238a5d","true","5631.374999997206","","","","{""age"":""37""}","","","","","","","","","","","","","","","","","",""
"survey-multi-choice","6","101705","0.0-1.0-1.0-1.0","mhnruhtpgn7cb9h","demographics","5a6f7604ff6f2300013edcd8","5f60e3c0a3b16e07647b2ff9","5f60ef5515bf45016c238a5d","true","32393.73500000511","","","","{""gender"":""female"",""school"":""high school"",""education"":""Completed university degree or equivalent""}","[0,1,2]","","","","","","","","","","","","","","","","",""
"html-keyboard-response","7","118251","0.0-1.0-2.0","mhnruhtpgn7cb9h","instructions","5a6f7604ff6f2300013edcd8","5f60e3c0a3b16e07647b2ff9","5f60ef5515bf45016c238a5d","false","16540.95999999845","<div align=left> The experiment is now about to start: <br> <br>In the following part, you will be presented pictures of everyday objects. <br>Your first task is to <strong>classify these objects. </strong> <br> <br> You will classify them either as mechanical or non-mechanical objects. <br> <br>Objects that include any kind of technical mechanism (for example, wheels, switches, levers, <br> electronic components) fall under the category of <strong>mechanical</strong> objects. <br>Only objects without any kind of technical mechanism should be classified as <strong>non-mechanical</strong>. <br><br>Press 'SPACE' to continue. </div>","32","","","","","","","","","","","","","","","","","","","",""
"html-keyboard-response","8","150956","0.0-2.0-0.0","mhnruhtpgn7cb9h","instructions","5a6f7604ff6f2300013edcd8","5f60e3c0a3b16e07647b2ff9","5f60ef5515bf45016c238a5d","false","32702.609999993","<div align=justify>You will classify the objects using the <strong>'S'</strong> and the <strong>'L'</strong> keys on your keyboard.<br>For doing so, please place your <strong>left index finger</strong> on the <strong>'S'</strong> key and place your <strong>right index finger</strong> on the <strong>'L'</strong> key. <br><br> Each trial starts with an instruction, indicating which key ('S'/'L') you need to press to classify <br>the object as mechanical (letter M) or non-mechanical (letter N).<br>The instruction <strong>M + N</strong> indicates that, in the current trial, by pressing the left key ('S') you classify the displayed object as mechanical (M) <br> and by pressing the right key ('L') you classify the object as non-mechanical (N). <br>The instruction <strong>N + M</strong> on the other hand indicates that by pressing the left key ('S') you classify the displayed object as non-mechanical (N) <br> and by pressing the right key ('L') you classify the object as mechanical (M). <br><br>Please press the key corresponding to the correct classification as fast as possible as soon as the object is displayed and try to avoid making mistakes.<br>If you do not respond within a 2 second window, a corresponding feedback will be displayed and the next trial will start.<br> The experiment is divided into multiple blocks to give you the opportunity to take a break after each block. <br>First, you can now practice this task. <br><br>Please place your <strong>LEFT INDEX FINGER</strong> on the 'S' key and your <strong>RIGHT INDEX FINGER</strong> on the 'L' key now. <br><br>Press SPACE to continue.</div>","32","","","","","","","","","","","","","","","","","","","",""
"html-keyboard-response","9","164024","0.0-2.0-1.0","mhnruhtpgn7cb9h","instructions","5a6f7604ff6f2300013edcd8","5f60e3c0a3b16e07647b2ff9","5f60ef5515bf45016c238a5d","false","13065.429999987828","<div align=left> You will now have time to practice this task.<br><br>Remember: <br> <br><li>Please place your index fingers on the <strong>'S'</strong> and <strong>'L'</strong> keys <br>to respond as fast and accurately as possible.</li><li>Every picture can be classified as either mechanical or non-mechanical.</li><li>If you do not respond in time or commit an error, you will receive a corresponding feedback. </li><li> Please try to respond as <strong> fast </strong> and as <strong> accurately as possible </strong> .<br><li>To ensure optimal results, please minimize distractions and stay focused. </li><br><br>Press SPACE to continue.</div>","32","","","","","","","","","","","","","","","","","","","",""
"html-keyboard-response","10","164728","0.0-2.0-2.0-0.0","mhnruhtpgn7cb9h","practice_no_cue","5a6f7604ff6f2300013edcd8","5f60e3c0a3b16e07647b2ff9","5f60ef5515bf45016c238a5d","false","null","<span style=""color: black; font-size: 48px"">N + M</span>","null","","","","resp_prompt","","","","","","","","","","","","","","","",""
"categorize-image","11","166616","0.0-2.0-2.0-1.0","mhnruhtpgn7cb9h","practice_no_cue","5a6f7604ff6f2300013edcd8","5f60e3c0a3b16e07647b2ff9","5f60ef5515bf45016c238a5d","true","1382.1500000049127","./Stimuli/ImagesPractice/LN109.jpg","76","","","","test","false","N + M","83","","LN","LN109.jpg","forget","old","1","1","start","right","","","",""
"html-keyboard-response","12","167319","0.0-2.0-2.0-0.1","mhnruhtpgn7cb9h","practice_no_cue","5a6f7604ff6f2300013edcd8","5f60e3c0a3b16e07647b2ff9","5f60ef5515bf45016c238a5d","false","null","<span style=""color: black; font-size: 48px"">M + N</span>","null","","","","resp_prompt","","","","","","","","","","","","","","","",""
"categorize-image","13","169576","0.0-2.0-2.0-1.1","mhnruhtpgn7cb9h","practice_no_cue","5a6f7604ff6f2300013edcd8","5f60e3c0a3b16e07647b2ff9","5f60ef5515bf45016c238a5d","true","1753.94999999844","./Stimuli/ImagesPractice/LN15.jpg","83","","","","test","false","M + N","76","","LN","LN15.jpg","remember","old","2","1","start","left","","","",""
"html-keyboard-response","14","170278","0.0-2.0-2.0-0.2","mhnruhtpgn7cb9h","practice_no_cue","5a6f7604ff6f2300013edcd8","5f60e3c0a3b16e07647b2ff9","5f60ef5515bf45016c238a5d","false","null","<span style=""color: black; font-size: 48px"">M + N</span>","null","","","","resp_prompt","","","","","","","","","","","","","","","",""
"categorize-image","15","172147","0.0-2.0-2.0-1.2","mhnruhtpgn7cb9h","practice_no_cue","5a6f7604ff6f2300013edcd8","5f60e3c0a3b16e07647b2ff9","5f60ef5515bf45016c238a5d","true","1365.1450000033947","./Stimuli/ImagesPractice/LN17.jpg","76","","","","test","true","M + N","76","","LN","LN17.jpg","remember","old","3","1","start","right","","","",""
"html-keyboard-response","16","172849","0.0-2.0-2.0-0.3","mhnruhtpgn7cb9h","practice_no_cue","5a6f7604ff6f2300013edcd8","5f60e3c0a3b16e07647b2ff9","5f60ef5515bf45016c238a5d","false","null","<span style=""color: black; font-size: 48px"">M + N</span>","null","","","","resp_prompt","","","","","","","","","","","","","","","",""
"categorize-image","17","174314","0.0-2.0-2.0-1.3","mhnruhtpgn7cb9h","practice_no_cue","5a6f7604ff6f2300013edcd8","5f60e3c0a3b16e07647b2ff9","5f60ef5515bf45016c238a5d","true","962.0399999985239","./Stimuli/ImagesPractice/LM230.jpg","83","","","","test","true","M + N","83","","LM","LM230.jpg","forget","old","4","1","start","left","","","",""
"html-keyboard-response","18","175017","0.0-2.0-2.0-0.4","mhnruhtpgn7cb9h","practice_no_cue","5a6f7604ff6f2300013edcd8","5f60e3c0a3b16e07647b2ff9","5f60ef5515bf45016c238a5d","false","null","<span style=""color: black; font-size: 48px"">M + N</span>","null","","","","resp_prompt","","","","","","","","","","","","","","","",""
"categorize-image","19","176451","0.0-2.0-2.0-1.4","mhnruhtpgn7cb9h","practice_no_cue","5a6f7604ff6f2300013edcd8","5f60e3c0a3b16e07647b2ff9","5f60ef5515bf45016c238a5d","true","931.1699999962002","./Stimuli/ImagesPractice/SM98.jpg","83","","","","test","true","M + N","83","","SM","SM98.jpg","remember","old","5","1","start","left","","","",""
"html-keyboard-response","20","177153","0.0-2.0-2.0-0.5","mhnruhtpgn7cb9h","practice_no_cue","5a6f7604ff6f2300013edcd8","5f60e3c0a3b16e07647b2ff9","5f60ef5515bf45016c238a5d","false","null","<span style=""color: black; font-size: 48px"">M + N</span>","null","","","","resp_prompt","","","","","","","","","","","","","","","",""
"categorize-image","21","179139","0.0-2.0-2.0-1.5","mhnruhtpgn7cb9h","practice_no_cue","5a6f7604ff6f2300013edcd8","5f60e3c0a3b16e07647b2ff9","5f60ef5515bf45016c238a5d","true","1482.9000000027008","./Stimuli/ImagesPractice/SM61.jpg","83","","","","test","true","M + N","83","","SM","SM61.jpg","remember","old","6","1","start","left","","","",""
"html-keyboard-response","22","179841","0.0-2.0-2.0-0.6","mhnruhtpgn7cb9h","practice_no_cue","5a6f7604ff6f2300013edcd8","5f60e3c0a3b16e07647b2ff9","5f60ef5515bf45016c238a5d","false","null","<span style=""color: black; font-size: 48px"">N + M</span>","null","","","","resp_prompt","","","","","","","","","","","","","","","",""
"categorize-image","23","181405","0.0-2.0-2.0-1.6","mhnruhtpgn7cb9h","practice_no_cue","5a6f7604ff6f2300013edcd8","5f60e3c0a3b16e07647b2ff9","5f60ef5515bf45016c238a5d","true","1060.4400000011083","./Stimuli/ImagesPractice/SN205.jpg","76","","","","test","false","N + M","83","","SN","SN205.jpg","forget","old","7","1","start","right","","","",""
"html-keyboard-response","24","182107","0.0-2.0-2.0-0.7","mhnruhtpgn7cb9h","practice_no_cue","5a6f7604ff6f2300013edcd8","5f60e3c0a3b16e07647b2ff9","5f60ef5515bf45016c238a5d","false","null","<span style=""color: black; font-size: 48px"">N + M</span>","null","","","","resp_prompt","","","","","","","","","","","","","","","",""
"categorize-image","25","184069","0.0-2.0-2.0-1.7","mhnruhtpgn7cb9h","practice_no_cue","5a6f7604ff6f2300013edcd8","5f60e3c0a3b16e07647b2ff9","5f60ef5515bf45016c238a5d","true","1457.9000000085216","./Stimuli/ImagesPractice/LM143.jpg","83","","","","test","false","N + M","76","","LM","LM143.jpg","remember","old","8","1","start","left","","","",""
"html-keyboard-response","26","184775","0.0-2.0-2.0-0.8","mhnruhtpgn7cb9h","practice_no_cue","5a6f7604ff6f2300013edcd8","5f60e3c0a3b16e07647b2ff9","5f60ef5515bf45016c238a5d","false","null","<span style=""color: black; font-size: 48px"">M + N</span>","null","","","","resp_prompt","","","","","","","","","","","","","","","",""
"categorize-image","27","186260","0.0-2.0-2.0-1.8","mhnruhtpgn7cb9h","practice_no_cue","5a6f7604ff6f2300013edcd8","5f60e3c0a3b16e07647b2ff9","5f60ef5515bf45016c238a5d","true","982.8449999913573","./Stimuli/ImagesPractice/SN221.jpg","76","","","","test","true","M + N","76","","SN","SN221.jpg","forget","old","9","1","start","right","","","",""
"html-keyboard-response","28","186962","0.0-2.0-2.0-0.9","mhnruhtpgn7cb9h","practice_no_cue","5a6f7604ff6f2300013edcd8","5f60e3c0a3b16e07647b2ff9","5f60ef5515bf45016c238a5d","false","null","<span style=""color: black; font-size: 48px"">N + M</span>","null","","","","resp_prompt","","","","","","","","","","","","","","","",""
"categorize-image","29","188467","0.0-2.0-2.0-1.9","mhnruhtpgn7cb9h","practice_no_cue","5a6f7604ff6f2300013edcd8","5f60e3c0a3b16e07647b2ff9","5f60ef5515bf45016c238a5d","true","1001.3150000013411","./Stimuli/ImagesPractice/SN75.jpg","76","","","","test","false","N + M","83","","SN","SN75.jpg","forget","old","10","1","start","right","","","",""
"html-keyboard-response","30","189169","0.0-2.0-2.0-0.10","mhnruhtpgn7cb9h","practice_no_cue","5a6f7604ff6f2300013edcd8","5f60e3c0a3b16e07647b2ff9","5f60ef5515bf45016c238a5d","false","null","<span style=""color: black; font-size: 48px"">M + N</span>","null","","","","resp_prompt","","","","","","","","","","","","","","","",""
"categorize-image","31","190989","0.0-2.0-2.0-1.10","mhnruhtpgn7cb9h","practice_no_cue","5a6f7604ff6f2300013edcd8","5f60e3c0a3b16e07647b2ff9","5f60ef5515bf45016c238a5d","true","1316.6800000035437","./Stimuli/ImagesPractice/LM239.jpg","83","","","","test","true","M + N","83","","LM","LM239.jpg","forget","old","11","1","start","left","","","",""
"html-keyboard-response","32","191690","0.0-2.0-2.0-0.11","mhnruhtpgn7cb9h","practice_no_cue","5a6f7604ff6f2300013edcd8","5f60e3c0a3b16e07647b2ff9","5f60ef5515bf45016c238a5d","false","null","<span style=""color: black; font-size: 48px"">N + M</span>","null","","","","resp_prompt","","","","","","","","","","","","","","","",""
"categorize-image","33","193157","0.0-2.0-2.0-1.11","mhnruhtpgn7cb9h","practice_no_cue","5a6f7604ff6f2300013edcd8","5f60e3c0a3b16e07647b2ff9","5f60ef5515bf45016c238a5d","true","965.2500000083819","./Stimuli/ImagesPractice/SN222.jpg","76","","","","test","false","N + M","83","","SN","SN222.jpg","remember","old","12","1","start","right","","","",""
"html-keyboard-response","34","193859","0.0-2.0-2.0-0.12","mhnruhtpgn7cb9h","practice_no_cue","5a6f7604ff6f2300013edcd8","5f60e3c0a3b16e07647b2ff9","5f60ef5515bf45016c238a5d","false","null","<span style=""color: black; font-size: 48px"">N + M</span>","null","","","","resp_prompt","","","","","","","","","","","","","","","",""
"categorize-image","35","195296","0.0-2.0-2.0-1.12","mhnruhtpgn7cb9h","practice_no_cue","5a6f7604ff6f2300013edcd8","5f60e3c0a3b16e07647b2ff9","5f60ef5515bf45016c238a5d","true","933.7100000120699","./Stimuli/ImagesPractice/SN220.jpg","76","","","","test","false","N + M","83","","SN","SN220.jpg","remember","old","13","1","start","right","","","",""
"html-keyboard-response","36","195998","0.0-2.0-2.0-0.13","mhnruhtpgn7cb9h","practice_no_cue","5a6f7604ff6f2300013edcd8","5f60e3c0a3b16e07647b2ff9","5f60ef5515bf45016c238a5d","false","null","<span style=""color: black; font-size: 48px"">M + N</span>","null","","","","resp_prompt","","","","","","","","","","","","","","","",""
"categorize-image","37","197387","0.0-2.0-2.0-1.13","mhnruhtpgn7cb9h","practice_no_cue","5a6f7604ff6f2300013edcd8","5f60e3c0a3b16e07647b2ff9","5f60ef5515bf45016c238a5d","true","885.4449999926146","./Stimuli/ImagesPractice/LM224.jpg","83","","","","test","true","M + N","83","","LM","LM224.jpg","forget","old","14","1","start","left","","","",""
"html-keyboard-response","38","198089","0.0-2.0-2.0-0.14","mhnruhtpgn7cb9h","practice_no_cue","5a6f7604ff6f2300013edcd8","5f60e3c0a3b16e07647b2ff9","5f60ef5515bf45016c238a5d","false","null","<span style=""color: black; font-size: 48px"">N + M</span>","null","","","","resp_prompt","","","","","","","","","","","","","","","",""
"categorize-image","39","199550","0.0-2.0-2.0-1.14","mhnruhtpgn7cb9h","practice_no_cue","5a6f7604ff6f2300013edcd8","5f60e3c0a3b16e07647b2ff9","5f60ef5515bf45016c238a5d","true","957.8449999971781","./Stimuli/ImagesPractice/LM147.jpg","83","","","","test","false","N + M","76","","LM","LM147.jpg","remember","old","15","1","start","left","","","",""
"html-keyboard-response","40","200252","0.0-2.0-2.0-0.15","mhnruhtpgn7cb9h","practice_no_cue","5a6f7604ff6f2300013edcd8","5f60e3c0a3b16e07647b2ff9","5f60ef5515bf45016c238a5d","false","null","<span style=""color: black; font-size: 48px"">N + M</span>","null","","","","resp_prompt","","","","","","","","","","","","","","","",""
"categorize-image","41","201851","0.0-2.0-2.0-1.15","mhnruhtpgn7cb9h","practice_no_cue","5a6f7604ff6f2300013edcd8","5f60e3c0a3b16e07647b2ff9","5f60ef5515bf45016c238a5d","true","1094.9500000133412","./Stimuli/ImagesPractice/SM35.jpg","83","","","","test","false","N + M","76","","SM","SM35.jpg","forget","old","16","1","start","left","","","",""
"html-keyboard-response","42","206886","0.0-2.0-3.0","mhnruhtpgn7cb9h","break","5a6f7604ff6f2300013edcd8","5f60e3c0a3b16e07647b2ff9","5f60ef5515bf45016c238a5d","false","5031.654999998864","<p style='font-size: 32px;'>Break</><br><br><br><br><br><p style='font-size: 24px;'>In the last block, you committed 9 errors and did not respond in time on 0 trials.
</p><p style='font-size: 24px;'>Try to respond as fast and accurately as possible in the next block as well! </p><p style='font-size: 24px;'>Press SPACE to continue.</p>","32","","","","","","","","","","","","","","","","","","","",""
"html-keyboard-response","43","211518","0.0-2.0-4.0","mhnruhtpgn7cb9h","instructions","5a6f7604ff6f2300013edcd8","5f60e3c0a3b16e07647b2ff9","5f60ef5515bf45016c238a5d","false","4628.660000002128","<div align=left> Great!<br><br>Are you ready to continue?<br><br>If you want to reread the instructions and redo the practice trials, <br>please press „Z“. <br><br>Press SPACE to CONTINUE with the experiment when you are ready. </div>","32","","","","","","","","","","","","","","","","","","","",""
"html-keyboard-response","44","232038","0.0-3.0-0.0","mhnruhtpgn7cb9h","instructions","5a6f7604ff6f2300013edcd8","5f60e3c0a3b16e07647b2ff9","5f60ef5515bf45016c238a5d","false","20516.810000000987","<div align=left>Great!<br> <strong>Attention</strong>! You will now receive a second, additional task! <br><br>To this point it was you <strong>first task</strong> to correctly <strong>classify objects</strong>. <br><br>As mentioned in the beginning, we aim to examine how well humans can remember previously learned information.<br>We would like to find out whether our memory improves if we only remember information that is relevant to us. <br><br>Therefore, your <strong>second task</strong> will be to <strong>remember</strong> the pictures you are to categorize. <br> After the learning phase, there will be a memory test phase, in which you will be asked to indicate whether you have seen a picture before or not. <br>Some, but not all pictures shown in the learning phase will appear in the memory test phase.<br>After classifying a picture, you will be told whether you should remember it for the memory test phase or not. <br>Thus, some pictures can be forgotten, whereas others have to be remembered. <br><br>Note: From now on, feedback will only be displayed if you responded incorrectly or not in time.<br><br>Press SPACE to continue.</div>","32","","","","","","","","","","","","","","","","","","","",""
"html-keyboard-response","45","253760","0.0-3.0-1.0","mhnruhtpgn7cb9h","instructions","5a6f7604ff6f2300013edcd8","5f60e3c0a3b16e07647b2ff9","5f60ef5515bf45016c238a5d","false","21719.49499999755","<div align=left>In the following part, you will thus have to remember only some pictures. <br>Immediately after seeing and classifying the picture, a symbol will be displayed, indicating whether you should remember or forget the previous picture. <br><br>A <span style='color: dodgerblue; font-size: 28px'>O</span> indicates REMEMBER. That means, you have to remember this picture, because it will be tested later. <br><br>A <span style='color: darkorange; font-size:28px'>Ø</span> indicates FORGET. You do not have to remember this picture. <br><br> As you will have to remember a lot of pictures, it will be hard for you to remember all of them. <br>It will put you at an advantage if you instantly forget the pictures you are not asked to remember. <br> This will make it easier for you to remember the pictures that will be tested afterwards. <br><br>Press SPACE to continue.</div>","32","","","","","","","","","","","","","","","","","","","",""
"html-keyboard-response","46","270650","0.0-3.0-2.0","mhnruhtpgn7cb9h","instructions","5a6f7604ff6f2300013edcd8","5f60e3c0a3b16e07647b2ff9","5f60ef5515bf45016c238a5d","false","16888.000000006286","<div align=left> Now you have the chance to practice both tasks together.<br><br>Remember: <br> <br><li>Please place your index fingers on the <strong>'S'</strong> and <strong>'L'</strong> keys <br>to respond as fast and accurately as possible.</li><li>Every picture can be classified as either mechanical or non-mechanical.</li><li>If you do not respond in time or commit an error, you will receive a corresponding feedback. <br>Please try to respond as <strong> fast </strong> and as <strong> accurately as possible </strong>.</li><li> Please remember only the to-be-remembered <span style='color: dodgerblue; font-size: 28px'>O</span> pictures. <br></li><li> Please minimize distractions and stay focused. </li><br><br>Press SPACE to START</div>","32","","","","","","","","","","","","","","","","","","","",""
"html-keyboard-response","47","271352","0.0-3.0-3.0-0.0","mhnruhtpgn7cb9h","practice_cue","5a6f7604ff6f2300013edcd8","5f60e3c0a3b16e07647b2ff9","5f60ef5515bf45016c238a5d","false","null","<span style=""color: black; font-size: 48px"">M + N</span>","null","","","","resp_prompt","","","","","","","","","","","","","","","",""
"categorize-image","48","272744","0.0-3.0-3.0-1.0","mhnruhtpgn7cb9h","practice_cue","5a6f7604ff6f2300013edcd8","5f60e3c0a3b16e07647b2ff9","5f60ef5515bf45016c238a5d","true","1384.3650000053458","./Stimuli/ImagesPractice/SM61.jpg","76","","","","test","false","M + N","83","","SM","SM61.jpg","remember","old","17","2","practice_forget","right","","","",""
"html-keyboard-response","49","273247","0.0-3.0-3.0-2.0-0.0","mhnruhtpgn7cb9h","practice_cue","5a6f7604ff6f2300013edcd8","5f60e3c0a3b16e07647b2ff9","5f60ef5515bf45016c238a5d","false","null","<span style=""color: red; font-size: 48px"">Error!</span>","null","","","","feedback","","","","","","","","","","","","","","","",""
"html-keyboard-response","50","275248","0.0-3.0-3.0-3.0","mhnruhtpgn7cb9h","practice_cue","5a6f7604ff6f2300013edcd8","5f60e3c0a3b16e07647b2ff9","5f60ef5515bf45016c238a5d","false","null","<div style=""align-items: center; display: flex; color: dodgerblue; font-size: 90px""><b>o</b></div>","null","","","","forget_cue","","","","","","","","","","","","","","","",""
"html-keyboard-response","51","275950","0.0-3.0-3.0-0.1","mhnruhtpgn7cb9h","practice_cue","5a6f7604ff6f2300013edcd8","5f60e3c0a3b16e07647b2ff9","5f60ef5515bf45016c238a5d","false","null","<span style=""color: black; font-size: 48px"">M + N</span>","null","","","","resp_prompt","","","","","","","","","","","","","","","",""
"categorize-image","52","276776","0.0-3.0-3.0-1.1","mhnruhtpgn7cb9h","practice_cue","5a6f7604ff6f2300013edcd8","5f60e3c0a3b16e07647b2ff9","5f60ef5515bf45016c238a5d","true","820.6650000065565","./Stimuli/ImagesPractice/SM98.jpg","83","","","","test","true","M + N","83","","SM","SM98.jpg","remember","old","18","2","practice_forget","left","","","",""
"html-keyboard-response","53","278777","0.0-3.0-3.0-3.1","mhnruhtpgn7cb9h","practice_cue","5a6f7604ff6f2300013edcd8","5f60e3c0a3b16e07647b2ff9","5f60ef5515bf45016c238a5d","false","null","<div style=""align-items: center; display: flex; color: dodgerblue; font-size: 90px""><b>o</b></div>","null","","","","forget_cue","","","","","","","","","","","","","","","",""
"html-keyboard-response","54","279480","0.0-3.0-3.0-0.2","mhnruhtpgn7cb9h","practice_cue","5a6f7604ff6f2300013edcd8","5f60e3c0a3b16e07647b2ff9","5f60ef5515bf45016c238a5d","false","null","<span style=""color: black; font-size: 48px"">M + N</span>","null","","","","resp_prompt","","","","","","","","","","","","","","","",""
"categorize-image","55","280438","0.0-3.0-3.0-1.2","mhnruhtpgn7cb9h","practice_cue","5a6f7604ff6f2300013edcd8","5f60e3c0a3b16e07647b2ff9","5f60ef5515bf45016c238a5d","true","952.3800000024494","./Stimuli/ImagesPractice/LM230.jpg","83","","","","test","true","M + N","83","","LM","LM230.jpg","forget","old","19","2","practice_forget","left","","","",""
"html-keyboard-response","56","282440","0.0-3.0-3.0-3.2","mhnruhtpgn7cb9h","practice_cue","5a6f7604ff6f2300013edcd8","5f60e3c0a3b16e07647b2ff9","5f60ef5515bf45016c238a5d","false","null","<div style=""align-items: center; display: flex; color: darkorange; font-size: 90px""><b>ø</b></div>","null","","","","forget_cue","","","","","","","","","","","","","","","",""
"html-keyboard-response","57","283142","0.0-3.0-3.0-0.3","mhnruhtpgn7cb9h","practice_cue","5a6f7604ff6f2300013edcd8","5f60e3c0a3b16e07647b2ff9","5f60ef5515bf45016c238a5d","false","null","<span style=""color: black; font-size: 48px"">M + N</span>","null","","","","resp_prompt","","","","","","","","","","","","","","","",""
"categorize-image","58","283873","0.0-3.0-3.0-1.3","mhnruhtpgn7cb9h","practice_cue","5a6f7604ff6f2300013edcd8","5f60e3c0a3b16e07647b2ff9","5f60ef5515bf45016c238a5d","true","723.1750000064494","./Stimuli/ImagesPractice/LM224.jpg","83","","","","test","true","M + N","83","","LM","LM224.jpg","forget","old","20","2","practice_forget","left","","","",""
"html-keyboard-response","59","285875","0.0-3.0-3.0-3.3","mhnruhtpgn7cb9h","practice_cue","5a6f7604ff6f2300013edcd8","5f60e3c0a3b16e07647b2ff9","5f60ef5515bf45016c238a5d","false","null","<div style=""align-items: center; display: flex; color: darkorange; font-size: 90px""><b>ø</b></div>","null","","","","forget_cue","","","","","","","","","","","","","","","",""
"html-keyboard-response","60","286577","0.0-3.0-3.0-0.4","mhnruhtpgn7cb9h","practice_cue","5a6f7604ff6f2300013edcd8","5f60e3c0a3b16e07647b2ff9","5f60ef5515bf45016c238a5d","false","null","<span style=""color: black; font-size: 48px"">N + M</span>","null","","","","resp_prompt","","","","","","","","","","","","","","","",""
"categorize-image","61","287535","0.0-3.0-3.0-1.4","mhnruhtpgn7cb9h","practice_cue","5a6f7604ff6f2300013edcd8","5f60e3c0a3b16e07647b2ff9","5f60ef5515bf45016c238a5d","true","950.8850000129314","./Stimuli/ImagesPractice/LN109.jpg","76","","","","test","false","N + M","83","","LN","LN109.jpg","forget","old","21","2","practice_forget","right","","","",""
"html-keyboard-response","62","288037","0.0-3.0-3.0-2.4-0.4","mhnruhtpgn7cb9h","practice_cue","5a6f7604ff6f2300013edcd8","5f60e3c0a3b16e07647b2ff9","5f60ef5515bf45016c238a5d","false","null","<span style=""color: red; font-size: 48px"">Error!</span>","null","","","","feedback","","","","","","","","","","","","","","","",""
"html-keyboard-response","63","290038","0.0-3.0-3.0-3.4","mhnruhtpgn7cb9h","practice_cue","5a6f7604ff6f2300013edcd8","5f60e3c0a3b16e07647b2ff9","5f60ef5515bf45016c238a5d","false","null","<div style=""align-items: center; display: flex; color: darkorange; font-size: 90px""><b>ø</b></div>","null","","","","forget_cue","","","","","","","","","","","","","","","",""
"html-keyboard-response","64","290740","0.0-3.0-3.0-0.5","mhnruhtpgn7cb9h","practice_cue","5a6f7604ff6f2300013edcd8","5f60e3c0a3b16e07647b2ff9","5f60ef5515bf45016c238a5d","false","null","<span style=""color: black; font-size: 48px"">M + N</span>","null","","","","resp_prompt","","","","","","","","","","","","","","","",""
"categorize-image","65","291706","0.0-3.0-3.0-1.5","mhnruhtpgn7cb9h","practice_cue","5a6f7604ff6f2300013edcd8","5f60e3c0a3b16e07647b2ff9","5f60ef5515bf45016c238a5d","true","960.929999986547","./Stimuli/ImagesPractice/LM239.jpg","83","","","","test","true","M + N","83","","LM","LM239.jpg","forget","old","22","2","practice_forget","left","","","",""
"html-keyboard-response","66","293709","0.0-3.0-3.0-3.5","mhnruhtpgn7cb9h","practice_cue","5a6f7604ff6f2300013edcd8","5f60e3c0a3b16e07647b2ff9","5f60ef5515bf45016c238a5d","false","null","<div style=""align-items: center; display: flex; color: darkorange; font-size: 90px""><b>ø</b></div>","null","","","","forget_cue","","","","","","","","","","","","","","","",""
"html-keyboard-response","67","294411","0.0-3.0-3.0-0.6","mhnruhtpgn7cb9h","practice_cue","5a6f7604ff6f2300013edcd8","5f60e3c0a3b16e07647b2ff9","5f60ef5515bf45016c238a5d","false","null","<span style=""color: black; font-size: 48px"">M + N</span>","null","","","","resp_prompt","","","","","","","","","","","","","","","",""
"categorize-image","68","295380","0.0-3.0-3.0-1.6","mhnruhtpgn7cb9h","practice_cue","5a6f7604ff6f2300013edcd8","5f60e3c0a3b16e07647b2ff9","5f60ef5515bf45016c238a5d","true","963.9200000092387","./Stimuli/ImagesPractice/LN17.jpg","76","","","","test","true","M + N","76","","LN","LN17.jpg","remember","old","23","2","practice_forget","right","","","",""
"html-keyboard-response","69","297383","0.0-3.0-3.0-3.6","mhnruhtpgn7cb9h","practice_cue","5a6f7604ff6f2300013edcd8","5f60e3c0a3b16e07647b2ff9","5f60ef5515bf45016c238a5d","false","null","<div style=""align-items: center; display: flex; color: dodgerblue; font-size: 90px""><b>o</b></div>","null","","","","forget_cue","","","","","","","","","","","","","","","",""
"html-keyboard-response","70","298085","0.0-3.0-3.0-0.7","mhnruhtpgn7cb9h","practice_cue","5a6f7604ff6f2300013edcd8","5f60e3c0a3b16e07647b2ff9","5f60ef5515bf45016c238a5d","false","null","<span style=""color: black; font-size: 48px"">N + M</span>","null","","","","resp_prompt","","","","","","","","","","","","","","","",""
"categorize-image","71","299354","0.0-3.0-3.0-1.7","mhnruhtpgn7cb9h","practice_cue","5a6f7604ff6f2300013edcd8","5f60e3c0a3b16e07647b2ff9","5f60ef5515bf45016c238a5d","true","1263.3700000005774","./Stimuli/ImagesPractice/SN205.jpg","83","","","","test","true","N + M","83","","SN","SN205.jpg","forget","old","24","2","practice_forget","left","","","",""
"html-keyboard-response","72","301357","0.0-3.0-3.0-3.7","mhnruhtpgn7cb9h","practice_cue","5a6f7604ff6f2300013edcd8","5f60e3c0a3b16e07647b2ff9","5f60ef5515bf45016c238a5d","false","null","<div style=""align-items: center; display: flex; color: darkorange; font-size: 90px""><b>ø</b></div>","null","","","","forget_cue","","","","","","","","","","","","","","","",""
"html-keyboard-response","73","302058","0.0-3.0-3.0-0.8","mhnruhtpgn7cb9h","practice_cue","5a6f7604ff6f2300013edcd8","5f60e3c0a3b16e07647b2ff9","5f60ef5515bf45016c238a5d","false","null","<span style=""color: black; font-size: 48px"">N + M</span>","null","","","","resp_prompt","","","","","","","","","","","","","","","",""
"categorize-image","74","302885","0.0-3.0-3.0-1.8","mhnruhtpgn7cb9h","practice_cue","5a6f7604ff6f2300013edcd8","5f60e3c0a3b16e07647b2ff9","5f60ef5515bf45016c238a5d","true","821.0099999996601","./Stimuli/ImagesPractice/SN75.jpg","83","","","","test","true","N + M","83","","SN","SN75.jpg","forget","old","25","2","practice_forget","left","","","",""
"html-keyboard-response","75","304887","0.0-3.0-3.0-3.8","mhnruhtpgn7cb9h","practice_cue","5a6f7604ff6f2300013edcd8","5f60e3c0a3b16e07647b2ff9","5f60ef5515bf45016c238a5d","false","null","<div style=""align-items: center; display: flex; color: darkorange; font-size: 90px""><b>ø</b></div>","null","","","","forget_cue","","","","","","","","","","","","","","","",""
"html-keyboard-response","76","305590","0.0-3.0-3.0-0.9","mhnruhtpgn7cb9h","practice_cue","5a6f7604ff6f2300013edcd8","5f60e3c0a3b16e07647b2ff9","5f60ef5515bf45016c238a5d","false","null","<span style=""color: black; font-size: 48px"">N + M</span>","null","","","","resp_prompt","","","","","","","","","","","","","","","",""
"categorize-image","77","306559","0.0-3.0-3.0-1.9","mhnruhtpgn7cb9h","practice_cue","5a6f7604ff6f2300013edcd8","5f60e3c0a3b16e07647b2ff9","5f60ef5515bf45016c238a5d","true","962.0199999917531","./Stimuli/ImagesPractice/LM147.jpg","76","","","","test","true","N + M","76","","LM","LM147.jpg","remember","old","26","2","practice_forget","right","","","",""
"html-keyboard-response","78","308565","0.0-3.0-3.0-3.9","mhnruhtpgn7cb9h","practice_cue","5a6f7604ff6f2300013edcd8","5f60e3c0a3b16e07647b2ff9","5f60ef5515bf45016c238a5d","false","null","<div style=""align-items: center; display: flex; color: dodgerblue; font-size: 90px""><b>o</b></div>","null","","","","forget_cue","","","","","","","","","","","","","","","",""
"html-keyboard-response","79","309268","0.0-3.0-3.0-0.10","mhnruhtpgn7cb9h","practice_cue","5a6f7604ff6f2300013edcd8","5f60e3c0a3b16e07647b2ff9","5f60ef5515bf45016c238a5d","false","null","<span style=""color: black; font-size: 48px"">M + N</span>","null","","","","resp_prompt","","","","","","","","","","","","","","","",""
"categorize-image","80","310298","0.0-3.0-3.0-1.10","mhnruhtpgn7cb9h","practice_cue","5a6f7604ff6f2300013edcd8","5f60e3c0a3b16e07647b2ff9","5f60ef5515bf45016c238a5d","true","1023.1650000059744","./Stimuli/ImagesPractice/LN15.jpg","76","","","","test","true","M + N","76","","LN","LN15.jpg","remember","old","27","2","practice_forget","right","","","",""
"html-keyboard-response","81","312300","0.0-3.0-3.0-3.10","mhnruhtpgn7cb9h","practice_cue","5a6f7604ff6f2300013edcd8","5f60e3c0a3b16e07647b2ff9","5f60ef5515bf45016c238a5d","false","null","<div style=""align-items: center; display: flex; color: dodgerblue; font-size: 90px""><b>o</b></div>","null","","","","forget_cue","","","","","","","","","","","","","","","",""
"html-keyboard-response","82","313002","0.0-3.0-3.0-0.11","mhnruhtpgn7cb9h","practice_cue","5a6f7604ff6f2300013edcd8","5f60e3c0a3b16e07647b2ff9","5f60ef5515bf45016c238a5d","false","null","<span style=""color: black; font-size: 48px"">N + M</span>","null","","","","resp_prompt","","","","","","","","","","","","","","","",""
"categorize-image","83","314121","0.0-3.0-3.0-1.11","mhnruhtpgn7cb9h","practice_cue","5a6f7604ff6f2300013edcd8","5f60e3c0a3b16e07647b2ff9","5f60ef5515bf45016c238a5d","true","1112.5999999931082","./Stimuli/ImagesPractice/SM35.jpg","76","","","","test","true","N + M","76","","SM","SM35.jpg","forget","old","28","2","practice_forget","right","","","",""
"html-keyboard-response","84","316123","0.0-3.0-3.0-3.11","mhnruhtpgn7cb9h","practice_cue","5a6f7604ff6f2300013edcd8","5f60e3c0a3b16e07647b2ff9","5f60ef5515bf45016c238a5d","false","null","<div style=""align-items: center; display: flex; color: darkorange; font-size: 90px""><b>ø</b></div>","null","","","","forget_cue","","","","","","","","","","","","","","","",""
"html-keyboard-response","85","316825","0.0-3.0-3.0-0.12","mhnruhtpgn7cb9h","practice_cue","5a6f7604ff6f2300013edcd8","5f60e3c0a3b16e07647b2ff9","5f60ef5515bf45016c238a5d","false","null","<span style=""color: black; font-size: 48px"">M + N</span>","null","","","","resp_prompt","","","","","","","","","","","","","","","",""
"categorize-image","86","317839","0.0-3.0-3.0-1.12","mhnruhtpgn7cb9h","practice_cue","5a6f7604ff6f2300013edcd8","5f60e3c0a3b16e07647b2ff9","5f60ef5515bf45016c238a5d","true","1007.2950000030687","./Stimuli/ImagesPractice/SN221.jpg","83","","","","test","false","M + N","76","","SN","SN221.jpg","forget","old","29","2","practice_forget","left","","","",""
"html-keyboard-response","87","318340","0.0-3.0-3.0-2.12-0.12","mhnruhtpgn7cb9h","practice_cue","5a6f7604ff6f2300013edcd8","5f60e3c0a3b16e07647b2ff9","5f60ef5515bf45016c238a5d","false","null","<span style=""color: red; font-size: 48px"">Error!</span>","null","","","","feedback","","","","","","","","","","","","","","","",""
"html-keyboard-response","88","320342","0.0-3.0-3.0-3.12","mhnruhtpgn7cb9h","practice_cue","5a6f7604ff6f2300013edcd8","5f60e3c0a3b16e07647b2ff9","5f60ef5515bf45016c238a5d","false","null","<div style=""align-items: center; display: flex; color: darkorange; font-size: 90px""><b>ø</b></div>","null","","","","forget_cue","","","","","","","","","","","","","","","",""
"html-keyboard-response","89","321044","0.0-3.0-3.0-0.13","mhnruhtpgn7cb9h","practice_cue","5a6f7604ff6f2300013edcd8","5f60e3c0a3b16e07647b2ff9","5f60ef5515bf45016c238a5d","false","null","<span style=""color: black; font-size: 48px"">N + M</span>","null","","","","resp_prompt","","","","","","","","","","","","","","","",""
"categorize-image","90","321721","0.0-3.0-3.0-1.13","mhnruhtpgn7cb9h","practice_cue","5a6f7604ff6f2300013edcd8","5f60e3c0a3b16e07647b2ff9","5f60ef5515bf45016c238a5d","true","669.6949999895878","./Stimuli/ImagesPractice/SN222.jpg","76","","","","test","false","N + M","83","","SN","SN222.jpg","remember","old","30","2","practice_forget","right","","","",""
"html-keyboard-response","91","322223","0.0-3.0-3.0-2.13-0.13","mhnruhtpgn7cb9h","practice_cue","5a6f7604ff6f2300013edcd8","5f60e3c0a3b16e07647b2ff9","5f60ef5515bf45016c238a5d","false","null","<span style=""color: red; font-size: 48px"">Error!</span>","null","","","","feedback","","","","","","","","","","","","","","","",""
"html-keyboard-response","92","324224","0.0-3.0-3.0-3.13","mhnruhtpgn7cb9h","practice_cue","5a6f7604ff6f2300013edcd8","5f60e3c0a3b16e07647b2ff9","5f60ef5515bf45016c238a5d","false","null","<div style=""align-items: center; display: flex; color: dodgerblue; font-size: 90px""><b>o</b></div>","null","","","","forget_cue","","","","","","","","","","","","","","","",""
"html-keyboard-response","93","324926","0.0-3.0-3.0-0.14","mhnruhtpgn7cb9h","practice_cue","5a6f7604ff6f2300013edcd8","5f60e3c0a3b16e07647b2ff9","5f60ef5515bf45016c238a5d","false","null","<span style=""color: black; font-size: 48px"">N + M</span>","null","","","","resp_prompt","","","","","","","","","","","","","","","",""
"categorize-image","94","325640","0.0-3.0-3.0-1.14","mhnruhtpgn7cb9h","practice_cue","5a6f7604ff6f2300013edcd8","5f60e3c0a3b16e07647b2ff9","5f60ef5515bf45016c238a5d","true","707.540000003064","./Stimuli/ImagesPractice/LM143.jpg","83","","","","test","false","N + M","76","","LM","LM143.jpg","remember","old","31","2","practice_forget","left","","","",""
"html-keyboard-response","95","326142","0.0-3.0-3.0-2.14-0.14","mhnruhtpgn7cb9h","practice_cue","5a6f7604ff6f2300013edcd8","5f60e3c0a3b16e07647b2ff9","5f60ef5515bf45016c238a5d","false","null","<span style=""color: red; font-size: 48px"">Error!</span>","null","","","","feedback","","","","","","","","","","","","","","","",""
"html-keyboard-response","96","328143","0.0-3.0-3.0-3.14","mhnruhtpgn7cb9h","practice_cue","5a6f7604ff6f2300013edcd8","5f60e3c0a3b16e07647b2ff9","5f60ef5515bf45016c238a5d","false","null","<div style=""align-items: center; display: flex; color: dodgerblue; font-size: 90px""><b>o</b></div>","null","","","","forget_cue","","","","","","","","","","","","","","","",""
"html-keyboard-response","97","328845","0.0-3.0-3.0-0.15","mhnruhtpgn7cb9h","practice_cue","5a6f7604ff6f2300013edcd8","5f60e3c0a3b16e07647b2ff9","5f60ef5515bf45016c238a5d","false","null","<span style=""color: black; font-size: 48px"">N + M</span>","null","","","","resp_prompt","","","","","","","","","","","","","","","",""
"categorize-image","98","329942","0.0-3.0-3.0-1.15","mhnruhtpgn7cb9h","practice_cue","5a6f7604ff6f2300013edcd8","5f60e3c0a3b16e07647b2ff9","5f60ef5515bf45016c238a5d","true","1090.4050000099232","./Stimuli/ImagesPractice/SN220.jpg","76","","","","test","false","N + M","83","","SN","SN220.jpg","remember","old","32","2","practice_forget","right","","","",""
"html-keyboard-response","99","330446","0.0-3.0-3.0-2.15-0.15","mhnruhtpgn7cb9h","practice_cue","5a6f7604ff6f2300013edcd8","5f60e3c0a3b16e07647b2ff9","5f60ef5515bf45016c238a5d","false","null","<span style=""color: red; font-size: 48px"">Error!</span>","null","","","","feedback","","","","","","","","","","","","","","","",""
"html-keyboard-response","100","332448","0.0-3.0-3.0-3.15","mhnruhtpgn7cb9h","practice_cue","5a6f7604ff6f2300013edcd8","5f60e3c0a3b16e07647b2ff9","5f60ef5515bf45016c238a5d","false","null","<div style=""align-items: center; display: flex; color: dodgerblue; font-size: 90px""><b>o</b></div>","null","","","","forget_cue","","","","","","","","","","","","","","","",""
"html-keyboard-response","101","335503","0.0-3.0-4.0","mhnruhtpgn7cb9h","break","5a6f7604ff6f2300013edcd8","5f60e3c0a3b16e07647b2ff9","5f60ef5515bf45016c238a5d","false","3052.65500000678","<p style='font-size: 32px;'>Break</><br><br><br><br><br><p style='font-size: 24px;'>In the last block, you committed 6 errors and did not respond in time on 0 trials.
</p><p style='font-size: 24px;'>Try to respond as fast and accurately as possible in the next block as well! </p><p style='font-size: 24px;'>Press SPACE to continue.</p>","32","","","","","","","","","","","","","","","","","","","",""
"html-keyboard-response","102","353984","0.0-3.0-5.0","mhnruhtpgn7cb9h","instructions","5a6f7604ff6f2300013edcd8","5f60e3c0a3b16e07647b2ff9","5f60ef5515bf45016c238a5d","false","18478.770000001532","<div align=left> Now, to practice, we kindly ask you to remember as many of the to-be-remembered pictures<br>of the previous learning phase as possible.<br><br>The pictures you were instructed to remember were the pictures followed by a <span style='color: dodgerblue; font-size: 28px'>O</span>.<br><br>In this memory test phase, you will also see some new pictures.<br>It is your task to remember whether you were presented with this specific picture in this study so far or not.<br>If you recognize an object (you have already seen it in this study), it is an OLD object. <br>If you do not recognize an object (you have NOT seen it in this study), it is a NEW object. <br><strong> Attention</strong>: As already mentioned, <span style='color: darkorange; font-size:28px'>Ø</span>-pictures will <strong>never</strong> appear in this memory test (neither as new objects). <br><br>Press SPACE to continue. </div>","32","","","","","","","","","","","","","","","","","","","",""
"html-keyboard-response","103","384883","0.0-3.0-6.0","mhnruhtpgn7cb9h","instructions","5a6f7604ff6f2300013edcd8","5f60e3c0a3b16e07647b2ff9","5f60ef5515bf45016c238a5d","false","30896.39999999781","<div align=left> M and N no longer will appear on the left/right of the fixation cross. <br>Instead there will be a note at the bottom of the left or right side  <br>indicating which key you should press for an old or new object:  <br> <br>Press the <strong>right</strong> key to classify an object as <strong>old</strong> and press the <strong>left</strong>, to classify an object as <strong>new</strong>.<br>Please classify the objects as new/old by again placing your index finger on the 'S' and 'L' keys <br>and press them accordingly.<br><br><strong>Old:</strong> This object has been presented before. <br><strong>New:</strong> This object has <strong>not</strong> been presented.<br><br>Now please put your right and left index fingers on the 'S' and 'L' keys of your keyboard. <br>Please respond as fast and as accurately as possible!<br><br>Press SPACE to continue. </div>","32","","","","","","","","","","","","","","","","","","","",""
"categorize-image","104","388733","0.0-3.0-7.0-0.0","mhnruhtpgn7cb9h","practice_recog","5a6f7604ff6f2300013edcd8","5f60e3c0a3b16e07647b2ff9","5f60ef5515bf45016c238a5d","true","3344.4600000075297","./Stimuli/ImagesPractice/SM98.jpg","83","","","","test","true","","83","","SM","SM98.jpg","","old","33","3","practice_recog","left","","","",""
"categorize-image","105","390416","0.0-3.0-7.0-0.1","mhnruhtpgn7cb9h","practice_recog","5a6f7604ff6f2300013edcd8","5f60e3c0a3b16e07647b2ff9","5f60ef5515bf45016c238a5d","true","1178.9299999945797","./Stimuli/ImagesPractice/LN2.jpg","83","","","","test","false","","76","","LN","LN2.jpg","","new","34","3","practice_recog","left","","","",""
"categorize-image","106","392035","0.0-3.0-7.0-0.2","mhnruhtpgn7cb9h","practice_recog","5a6f7604ff6f2300013edcd8","5f60e3c0a3b16e07647b2ff9","5f60ef5515bf45016c238a5d","true","1115.990000005695","./Stimuli/ImagesPractice/SM62.jpg","76","","","","test","true","","76","","SM","SM62.jpg","","new","35","3","practice_recog","right","","","",""
"categorize-image","107","393432","0.0-3.0-7.0-0.3","mhnruhtpgn7cb9h","practice_recog","5a6f7604ff6f2300013edcd8","5f60e3c0a3b16e07647b2ff9","5f60ef5515bf45016c238a5d","true","893.4149999986403","./Stimuli/ImagesPractice/SN76.jpg","83","","","","test","false","","76","","SN","SN76.jpg","","new","36","3","practice_recog","left","","","",""
"categorize-image","108","395902","0.0-3.0-7.0-0.4","mhnruhtpgn7cb9h","practice_recog","5a6f7604ff6f2300013edcd8","5f60e3c0a3b16e07647b2ff9","5f60ef5515bf45016c238a5d","true","1966.3149999978486","./Stimuli/ImagesPractice/SM37.jpg","83","","","","test","false","","76","","SM","SM37.jpg","","new","37","3","practice_recog","left","","","",""
"categorize-image","109","397337","0.0-3.0-7.0-0.5","mhnruhtpgn7cb9h","practice_recog","5a6f7604ff6f2300013edcd8","5f60e3c0a3b16e07647b2ff9","5f60ef5515bf45016c238a5d","true","931.4799999992829","./Stimuli/ImagesPractice/LM143.jpg","76","","","","test","false","","83","","LM","LM143.jpg","","old","38","3","practice_recog","right","","","",""
"categorize-image","110","399326","0.0-3.0-7.0-0.6","mhnruhtpgn7cb9h","practice_recog","5a6f7604ff6f2300013edcd8","5f60e3c0a3b16e07647b2ff9","5f60ef5515bf45016c238a5d","true","1485.4649999906542","./Stimuli/ImagesPractice/LN4.jpg","83","","","","test","false","","76","","LN","LN4.jpg","","new","39","3","practice_recog","left","","","",""
"categorize-image","111","400731","0.0-3.0-7.0-0.7","mhnruhtpgn7cb9h","practice_recog","5a6f7604ff6f2300013edcd8","5f60e3c0a3b16e07647b2ff9","5f60ef5515bf45016c238a5d","true","901.7199999943841","./Stimuli/ImagesPractice/SN222.jpg","76","","","","test","false","","83","","SN","SN222.jpg","","old","40","3","practice_recog","right","","","",""
"categorize-image","112","402303","0.0-3.0-7.0-0.8","mhnruhtpgn7cb9h","practice_recog","5a6f7604ff6f2300013edcd8","5f60e3c0a3b16e07647b2ff9","5f60ef5515bf45016c238a5d","true","1069.1250000090804","./Stimuli/ImagesPractice/SN220.jpg","83","","","","test","true","","83","","SN","SN220.jpg","","old","41","3","practice_recog","left","","","",""
"categorize-image","113","404085","0.0-3.0-7.0-0.9","mhnruhtpgn7cb9h","practice_recog","5a6f7604ff6f2300013edcd8","5f60e3c0a3b16e07647b2ff9","5f60ef5515bf45016c238a5d","true","1278.1300000060583","./Stimuli/ImagesPractice/LM55.jpg","76","","","","test","true","","76","","LM","LM55.jpg","","new","42","3","practice_recog","right","","","",""
"categorize-image","114","405409","0.0-3.0-7.0-0.10","mhnruhtpgn7cb9h","practice_recog","5a6f7604ff6f2300013edcd8","5f60e3c0a3b16e07647b2ff9","5f60ef5515bf45016c238a5d","true","820.6700000009732","./Stimuli/ImagesPractice/LM147.jpg","76","","","","test","false","","83","","LM","LM147.jpg","","old","43","3","practice_recog","right","","","",""
"categorize-image","115","406700","0.0-3.0-7.0-0.11","mhnruhtpgn7cb9h","practice_recog","5a6f7604ff6f2300013edcd8","5f60e3c0a3b16e07647b2ff9","5f60ef5515bf45016c238a5d","true","787.2999999963213","./Stimuli/ImagesPractice/SM97.jpg","76","","","","test","true","","76","","SM","SM97.jpg","","new","44","3","practice_recog","right","","","",""
"categorize-image","116","407903","0.0-3.0-7.0-0.12","mhnruhtpgn7cb9h","practice_recog","5a6f7604ff6f2300013edcd8","5f60e3c0a3b16e07647b2ff9","5f60ef5515bf45016c238a5d","true","698.4249999950407","./Stimuli/ImagesPractice/LN15.jpg","83","","","","test","true","","83","","LN","LN15.jpg","","old","45","3","practice_recog","left","","","",""
"categorize-image","117","409078","0.0-3.0-7.0-0.13","mhnruhtpgn7cb9h","practice_recog","5a6f7604ff6f2300013edcd8","5f60e3c0a3b16e07647b2ff9","5f60ef5515bf45016c238a5d","true","671.1900000082096","./Stimuli/ImagesPractice/LN17.jpg","83","","","","test","true","","83","","LN","LN17.jpg","","old","46","3","practice_recog","left","","","",""
"categorize-image","118","410373","0.0-3.0-7.0-0.14","mhnruhtpgn7cb9h","practice_recog","5a6f7604ff6f2300013edcd8","5f60e3c0a3b16e07647b2ff9","5f60ef5515bf45016c238a5d","true","792.5499999983003","./Stimuli/ImagesPractice/LN72.jpg","83","","","","test","false","","76","","LN","LN72.jpg","","new","47","3","practice_recog","left","","","",""
"categorize-image","119","411747","0.0-3.0-7.0-0.15","mhnruhtpgn7cb9h","practice_recog","5a6f7604ff6f2300013edcd8","5f60e3c0a3b16e07647b2ff9","5f60ef5515bf45016c238a5d","true","869.7700000047917","./Stimuli/ImagesPractice/SM61.jpg","76","","","","test","false","","83","","SM","SM61.jpg","","old","48","3","practice_recog","right","","","",""
"html-keyboard-response","120","414523","0.0-3.0-8.0","mhnruhtpgn7cb9h","instructions","5a6f7604ff6f2300013edcd8","5f60e3c0a3b16e07647b2ff9","5f60ef5515bf45016c238a5d","false","2773.749999993015","<div align=left> Great!<br><br>Are you ready to continue?<br>If you want to reread the instructions and redo the practice trials, please <br>press „Z“.<br><br>You can proceed when you are ready.<br><br>After the presentation of each object, you will receive an instruction whether to <br>remember or to forget the object.<br>We will test your memory of the following pictures only at the very end of <br>the experiment after all learning blocks are completed. <br><br>Press SPACE to CONTINUE when you are ready. </div>","32","","","","","","","","","","","","","","","","","","","",""
"html-keyboard-response","121","417617","0.0-4.0-0.0","mhnruhtpgn7cb9h","instructions","5a6f7604ff6f2300013edcd8","5f60e3c0a3b16e07647b2ff9","5f60ef5515bf45016c238a5d","false","3091.505000003963","<div align=left> The actual experiment is about to start.<br>The practice trials are over!<br><br>Please always respond both fast and accurately!<br><br>Remember: <br> <br><li> Please place your index fingers on the <strong>'S'</strong> and <strong>'L'</strong> keys <br>to respond as fast and accurately as possible.</li><li> Every picture can be classified as either mechanical or non-mechanical.</li><li> If you do not respond in time or commit an error, you will receive a corresponding feedback.<br> Please try to respond as <strong> fast </strong> and as <strong> accurately as possible </strong>.</li><li> Remember the <span style='color: dodgerblue; font-size: 28px'>O</span> pictures. <br></li><li> Please minimize distractions and stay focused. </li><br><br>Press SPACE to START.</div>","32","","","","","","","","","","","","","","","","","","","",""
"html-keyboard-response","122","418320","0.0-4.0-1.0-0.0","mhnruhtpgn7cb9h","prime","5a6f7604ff6f2300013edcd8","5f60e3c0a3b16e07647b2ff9","5f60ef5515bf45016c238a5d","false","null","<span style=""color: black; font-size: 48px"">M + N</span>","null","","","","resp_prompt","","","","","","","","","","","","","","","",""
"categorize-image","123","419838","0.0-4.0-1.0-1.0","mhnruhtpgn7cb9h","prime","5a6f7604ff6f2300013edcd8","5f60e3c0a3b16e07647b2ff9","5f60ef5515bf45016c238a5d","true","1511.209999996936","./Stimuli/SelectedImages/SN/SN111.bmp","76","","","","test","true","M + N","76","repetition","SN","SN111.bmp","remember","","49","3","prime1","right","","","",""
"html-keyboard-response","124","421841","0.0-4.0-1.0-3.0","mhnruhtpgn7cb9h","prime","5a6f7604ff6f2300013edcd8","5f60e3c0a3b16e07647b2ff9","5f60ef5515bf45016c238a5d","false","null","<div style=""align-items: center; display: flex; color: dodgerblue; font-size: 90px""><b>o</b></div>","null","","","","forget_cue","","","","","","","","","","","","","","","",""
"html-keyboard-response","125","422543","0.0-4.0-1.0-0.1","mhnruhtpgn7cb9h","prime","5a6f7604ff6f2300013edcd8","5f60e3c0a3b16e07647b2ff9","5f60ef5515bf45016c238a5d","false","null","<span style=""color: black; font-size: 48px"">N + M</span>","null","","","","resp_prompt","","","","","","","","","","","","","","","",""
"categorize-image","126","423941","0.0-4.0-1.0-1.1","mhnruhtpgn7cb9h","prime","5a6f7604ff6f2300013edcd8","5f60e3c0a3b16e07647b2ff9","5f60ef5515bf45016c238a5d","true","1391.6900000040187","./Stimuli/SelectedImages/LM/LM75.bmp","83","","","","test","false","N + M","76","repetition","LM","LM75.bmp","remember","","50","3","prime1","left","","","",""
"html-keyboard-response","127","424443","0.0-4.0-1.0-2.1-0.1","mhnruhtpgn7cb9h","prime","5a6f7604ff6f2300013edcd8","5f60e3c0a3b16e07647b2ff9","5f60ef5515bf45016c238a5d","false","null","<span style=""color: red; font-size: 48px"">Error!</span>","null","","","","feedback","","","","","","","","","","","","","","","",""
"html-keyboard-response","128","426445","0.0-4.0-1.0-3.1","mhnruhtpgn7cb9h","prime","5a6f7604ff6f2300013edcd8","5f60e3c0a3b16e07647b2ff9","5f60ef5515bf45016c238a5d","false","null","<div style=""align-items: center; display: flex; color: dodgerblue; font-size: 90px""><b>o</b></div>","null","","","","forget_cue","","","","","","","","","","","","","","","",""
"html-keyboard-response","129","427147","0.0-4.0-1.0-0.2","mhnruhtpgn7cb9h","prime","5a6f7604ff6f2300013edcd8","5f60e3c0a3b16e07647b2ff9","5f60ef5515bf45016c238a5d","false","null","<span style=""color: black; font-size: 48px"">M + N</span>","null","","","","resp_prompt","","","","","","","","","","","","","","","",""
"categorize-image","130","428112","0.0-4.0-1.0-1.2","mhnruhtpgn7cb9h","prime","5a6f7604ff6f2300013edcd8","5f60e3c0a3b16e07647b2ff9","5f60ef5515bf45016c238a5d","true","957.9150000063237","./Stimuli/SelectedImages/SN/SN128.bmp","76","","","","test","true","M + N","76","repetition","SN","SN128.bmp","remember","","51","3","prime1","right","","","",""
"html-keyboard-response","131","430114","0.0-4.0-1.0-3.2","mhnruhtpgn7cb9h","prime","5a6f7604ff6f2300013edcd8","5f60e3c0a3b16e07647b2ff9","5f60ef5515bf45016c238a5d","false","null","<div style=""align-items: center; display: flex; color: dodgerblue; font-size: 90px""><b>o</b></div>","null","","","","forget_cue","","","","","","","","","","","","","","","",""
"html-keyboard-response","132","430816","0.0-4.0-1.0-0.3","mhnruhtpgn7cb9h","prime","5a6f7604ff6f2300013edcd8","5f60e3c0a3b16e07647b2ff9","5f60ef5515bf45016c238a5d","false","null","<span style=""color: black; font-size: 48px"">M + N</span>","null","","","","resp_prompt","","","","","","","","","","","","","","","",""
"categorize-image","133","431993","0.0-4.0-1.0-1.3","mhnruhtpgn7cb9h","prime","5a6f7604ff6f2300013edcd8","5f60e3c0a3b16e07647b2ff9","5f60ef5515bf45016c238a5d","true","1170.6649999978254","./Stimuli/SelectedImages/LM/LM48.bmp","83","","","","test","true","M + N","83","repetition","LM","LM48.bmp","forget","","52","3","prime1","left","","","",""
"html-keyboard-response","134","433995","0.0-4.0-1.0-3.3","mhnruhtpgn7cb9h","prime","5a6f7604ff6f2300013edcd8","5f60e3c0a3b16e07647b2ff9","5f60ef5515bf45016c238a5d","false","null","<div style=""align-items: center; display: flex; color: darkorange; font-size: 90px""><b>ø</b></div>","null","","","","forget_cue","","","","","","","","","","","","","","","",""
"html-keyboard-response","135","434697","0.0-4.0-1.0-0.4","mhnruhtpgn7cb9h","prime","5a6f7604ff6f2300013edcd8","5f60e3c0a3b16e07647b2ff9","5f60ef5515bf45016c238a5d","false","null","<span style=""color: black; font-size: 48px"">N + M</span>","null","","","","resp_prompt","","","","","","","","","","","","","","","",""
"categorize-image","136","435590","0.0-4.0-1.0-1.4","mhnruhtpgn7cb9h","prime","5a6f7604ff6f2300013edcd8","5f60e3c0a3b16e07647b2ff9","5f60ef5515bf45016c238a5d","true","886.9299999932991","./Stimuli/SelectedImages/SN/SN49.bmp","76","","","","test","false","N + M","83","switch","SN","SN49.bmp","remember","","53","3","prime1","right","","","",""
"html-keyboard-response","137","436091","0.0-4.0-1.0-2.4-0.4","mhnruhtpgn7cb9h","prime","5a6f7604ff6f2300013edcd8","5f60e3c0a3b16e07647b2ff9","5f60ef5515bf45016c238a5d","false","null","<span style=""color: red; font-size: 48px"">Error!</span>","null","","","","feedback","","","","","","","","","","","","","","","",""
"html-keyboard-response","138","438093","0.0-4.0-1.0-3.4","mhnruhtpgn7cb9h","prime","5a6f7604ff6f2300013edcd8","5f60e3c0a3b16e07647b2ff9","5f60ef5515bf45016c238a5d","false","null","<div style=""align-items: center; display: flex; color: dodgerblue; font-size: 90px""><b>o</b></div>","null","","","","forget_cue","","","","","","","","","","","","","","","",""
"html-keyboard-response","139","438795","0.0-4.0-1.0-0.5","mhnruhtpgn7cb9h","prime","5a6f7604ff6f2300013edcd8","5f60e3c0a3b16e07647b2ff9","5f60ef5515bf45016c238a5d","false","null","<span style=""color: black; font-size: 48px"">M + N</span>","null","","","","resp_prompt","","","","","","","","","","","","","","","",""
"categorize-image","140","439909","0.0-4.0-1.0-1.5","mhnruhtpgn7cb9h","prime","5a6f7604ff6f2300013edcd8","5f60e3c0a3b16e07647b2ff9","5f60ef5515bf45016c238a5d","true","1107.5850000052014","./Stimuli/SelectedImages/SM/SM128.bmp","76","","","","test","false","M + N","83","switch","SM","SM128.bmp","remember","","54","3","prime1","right","","","",""
"html-keyboard-response","141","440411","0.0-4.0-1.0-2.5-0.5","mhnruhtpgn7cb9h","prime","5a6f7604ff6f2300013edcd8","5f60e3c0a3b16e07647b2ff9","5f60ef5515bf45016c238a5d","false","null","<span style=""color: red; font-size: 48px"">Error!</span>","null","","","","feedback","","","","","","","","","","","","","","","",""
"html-keyboard-response","142","442413","0.0-4.0-1.0-3.5","mhnruhtpgn7cb9h","prime","5a6f7604ff6f2300013edcd8","5f60e3c0a3b16e07647b2ff9","5f60ef5515bf45016c238a5d","false","null","<div style=""align-items: center; display: flex; color: dodgerblue; font-size: 90px""><b>o</b></div>","null","","","","forget_cue","","","","","","","","","","","","","","","",""
"html-keyboard-response","143","443115","0.0-4.0-1.0-0.6","mhnruhtpgn7cb9h","prime","5a6f7604ff6f2300013edcd8","5f60e3c0a3b16e07647b2ff9","5f60ef5515bf45016c238a5d","false","null","<span style=""color: black; font-size: 48px"">M + N</span>","null","","","","resp_prompt","","","","","","","","","","","","","","","",""
"categorize-image","144","443808","0.0-4.0-1.0-1.6","mhnruhtpgn7cb9h","prime","5a6f7604ff6f2300013edcd8","5f60e3c0a3b16e07647b2ff9","5f60ef5515bf45016c238a5d","true","686.5300000063144","./Stimuli/SelectedImages/LM/LM57.bmp","83","","","","test","true","M + N","83","switch","LM","LM57.bmp","remember","","55","3","prime1","left","","","",""
"html-keyboard-response","145","445810","0.0-4.0-1.0-3.6","mhnruhtpgn7cb9h","prime","5a6f7604ff6f2300013edcd8","5f60e3c0a3b16e07647b2ff9","5f60ef5515bf45016c238a5d","false","null","<div style=""align-items: center; display: flex; color: dodgerblue; font-size: 90px""><b>o</b></div>","null","","","","forget_cue","","","","","","","","","","","","","","","",""
"html-keyboard-response","146","446512","0.0-4.0-1.0-0.7","mhnruhtpgn7cb9h","prime","5a6f7604ff6f2300013edcd8","5f60e3c0a3b16e07647b2ff9","5f60ef5515bf45016c238a5d","false","null","<span style=""color: black; font-size: 48px"">N + M</span>","null","","","","resp_prompt","","","","","","","","","","","","","","","",""
"categorize-image","147","447213","0.0-4.0-1.0-1.7","mhnruhtpgn7cb9h","prime","5a6f7604ff6f2300013edcd8","5f60e3c0a3b16e07647b2ff9","5f60ef5515bf45016c238a5d","true","695.6400000053691","./Stimuli/SelectedImages/SN/SN64.bmp","76","","","","test","false","N + M","83","switch","SN","SN64.bmp","forget","","56","3","prime1","right","","","",""
"html-keyboard-response","148","447715","0.0-4.0-1.0-2.7-0.7","mhnruhtpgn7cb9h","prime","5a6f7604ff6f2300013edcd8","5f60e3c0a3b16e07647b2ff9","5f60ef5515bf45016c238a5d","false","null","<span style=""color: red; font-size: 48px"">Error!</span>","null","","","","feedback","","","","","","","","","","","","","","","",""
"html-keyboard-response","149","449717","0.0-4.0-1.0-3.7","mhnruhtpgn7cb9h","prime","5a6f7604ff6f2300013edcd8","5f60e3c0a3b16e07647b2ff9","5f60ef5515bf45016c238a5d","false","null","<div style=""align-items: center; display: flex; color: darkorange; font-size: 90px""><b>ø</b></div>","null","","","","forget_cue","","","","","","","","","","","","","","","",""
"html-keyboard-response","150","450419","0.0-4.0-1.0-0.8","mhnruhtpgn7cb9h","prime","5a6f7604ff6f2300013edcd8","5f60e3c0a3b16e07647b2ff9","5f60ef5515bf45016c238a5d","false","null","<span style=""color: black; font-size: 48px"">N + M</span>","null","","","","resp_prompt","","","","","","","","","","","","","","","",""
"categorize-image","151","451104","0.0-4.0-1.0-1.8","mhnruhtpgn7cb9h","prime","5a6f7604ff6f2300013edcd8","5f60e3c0a3b16e07647b2ff9","5f60ef5515bf45016c238a5d","true","677.2749999945518","./Stimuli/SelectedImages/SM/SM17.bmp","83","","","","test","false","N + M","76","repetition","SM","SM17.bmp","remember","","57","3","prime1","left","","","",""
"html-keyboard-response","152","451606","0.0-4.0-1.0-2.8-0.8","mhnruhtpgn7cb9h","prime","5a6f7604ff6f2300013edcd8","5f60e3c0a3b16e07647b2ff9","5f60ef5515bf45016c238a5d","false","null","<span style=""color: red; font-size: 48px"">Error!</span>","null","","","","feedback","","","","","","","","","","","","","","","",""
"html-keyboard-response","153","453607","0.0-4.0-1.0-3.8","mhnruhtpgn7cb9h","prime","5a6f7604ff6f2300013edcd8","5f60e3c0a3b16e07647b2ff9","5f60ef5515bf45016c238a5d","false","null","<div style=""align-items: center; display: flex; color: dodgerblue; font-size: 90px""><b>o</b></div>","null","","","","forget_cue","","","","","","","","","","","","","","","",""
"html-keyboard-response","154","454309","0.0-4.0-1.0-0.9","mhnruhtpgn7cb9h","prime","5a6f7604ff6f2300013edcd8","5f60e3c0a3b16e07647b2ff9","5f60ef5515bf45016c238a5d","false","null","<span style=""color: black; font-size: 48px"">M + N</span>","null","","","","resp_prompt","","","","","","","","","","","","","","","",""
"categorize-image","155","455294","0.0-4.0-1.0-1.9","mhnruhtpgn7cb9h","prime","5a6f7604ff6f2300013edcd8","5f60e3c0a3b16e07647b2ff9","5f60ef5515bf45016c238a5d","true","978.255000009085","./Stimuli/SelectedImages/LM/LM235.bmp","83","","","","test","true","M + N","83","switch","LM","LM235.bmp","remember","","58","3","prime1","left","","","",""
"html-keyboard-response","156","457296","0.0-4.0-1.0-3.9","mhnruhtpgn7cb9h","prime","5a6f7604ff6f2300013edcd8","5f60e3c0a3b16e07647b2ff9","5f60ef5515bf45016c238a5d","false","null","<div style=""align-items: center; display: flex; color: dodgerblue; font-size: 90px""><b>o</b></div>","null","","","","forget_cue","","","","","","","","","","","","","","","",""
"html-keyboard-response","157","457998","0.0-4.0-1.0-0.10","mhnruhtpgn7cb9h","prime","5a6f7604ff6f2300013edcd8","5f60e3c0a3b16e07647b2ff9","5f60ef5515bf45016c238a5d","false","null","<span style=""color: black; font-size: 48px"">N + M</span>","null","","","","resp_prompt","","","","","","","","","","","","","","","",""
"categorize-image","158","458890","0.0-4.0-1.0-1.10","mhnruhtpgn7cb9h","prime","5a6f7604ff6f2300013edcd8","5f60e3c0a3b16e07647b2ff9","5f60ef5515bf45016c238a5d","true","887.5700000062352","./Stimuli/SelectedImages/SN/SN182.bmp","76","","","","test","false","N + M","83","switch","SN","SN182.bmp","forget","","59","3","prime1","right","","","",""
"html-keyboard-response","159","459392","0.0-4.0-1.0-2.10-0.10","mhnruhtpgn7cb9h","prime","5a6f7604ff6f2300013edcd8","5f60e3c0a3b16e07647b2ff9","5f60ef5515bf45016c238a5d","false","null","<span style=""color: red; font-size: 48px"">Error!</span>","null","","","","feedback","","","","","","","","","","","","","","","",""
"html-keyboard-response","160","461393","0.0-4.0-1.0-3.10","mhnruhtpgn7cb9h","prime","5a6f7604ff6f2300013edcd8","5f60e3c0a3b16e07647b2ff9","5f60ef5515bf45016c238a5d","false","null","<div style=""align-items: center; display: flex; color: darkorange; font-size: 90px""><b>ø</b></div>","null","","","","forget_cue","","","","","","","","","","","","","","","",""
"html-keyboard-response","161","462095","0.0-4.0-1.0-0.11","mhnruhtpgn7cb9h","prime","5a6f7604ff6f2300013edcd8","5f60e3c0a3b16e07647b2ff9","5f60ef5515bf45016c238a5d","false","null","<span style=""color: black; font-size: 48px"">N + M</span>","null","","","","resp_prompt","","","","","","","","","","","","","","","",""
"categorize-image","162","462984","0.0-4.0-1.0-1.11","mhnruhtpgn7cb9h","prime","5a6f7604ff6f2300013edcd8","5f60e3c0a3b16e07647b2ff9","5f60ef5515bf45016c238a5d","true","881.9499999954132","./Stimuli/SelectedImages/LM/LM100.bmp","83","","","","test","false","N + M","76","switch","LM","LM100.bmp","forget","","60","3","prime1","left","","","",""
"html-keyboard-response","163","463485","0.0-4.0-1.0-2.11-0.11","mhnruhtpgn7cb9h","prime","5a6f7604ff6f2300013edcd8","5f60e3c0a3b16e07647b2ff9","5f60ef5515bf45016c238a5d","false","null","<span style=""color: red; font-size: 48px"">Error!</span>","null","","","","feedback","","","","","","","","","","","","","","","",""
"html-keyboard-response","164","465487","0.0-4.0-1.0-3.11","mhnruhtpgn7cb9h","prime","5a6f7604ff6f2300013edcd8","5f60e3c0a3b16e07647b2ff9","5f60ef5515bf45016c238a5d","false","null","<div style=""align-items: center; display: flex; color: darkorange; font-size: 90px""><b>ø</b></div>","null","","","","forget_cue","","","","","","","","","","","","","","","",""
"html-keyboard-response","165","466190","0.0-4.0-1.0-0.12","mhnruhtpgn7cb9h","prime","5a6f7604ff6f2300013edcd8","5f60e3c0a3b16e07647b2ff9","5f60ef5515bf45016c238a5d","false","null","<span style=""color: black; font-size: 48px"">M + N</span>","null","","","","resp_prompt","","","","","","","","","","","","","","","",""
"categorize-image","166","468175","0.0-4.0-1.0-1.12","mhnruhtpgn7cb9h","prime","5a6f7604ff6f2300013edcd8","5f60e3c0a3b16e07647b2ff9","5f60ef5515bf45016c238a5d","true","1978.5800000099698","./Stimuli/SelectedImages/SN/SN187.bmp","83","","","","test","false","M + N","76","repetition","SN","SN187.bmp","forget","","61","3","prime1","left","","","",""
"html-keyboard-response","167","468679","0.0-4.0-1.0-2.12-0.12","mhnruhtpgn7cb9h","prime","5a6f7604ff6f2300013edcd8","5f60e3c0a3b16e07647b2ff9","5f60ef5515bf45016c238a5d","false","null","<span style=""color: red; font-size: 48px"">Error!</span>","null","","","","feedback","","","","","","","","","","","","","","","",""
"html-keyboard-response","168","470682","0.0-4.0-1.0-3.12","mhnruhtpgn7cb9h","prime","5a6f7604ff6f2300013edcd8","5f60e3c0a3b16e07647b2ff9","5f60ef5515bf45016c238a5d","false","null","<div style=""align-items: center; display: flex; color: darkorange; font-size: 90px""><b>ø</b></div>","null","","","","forget_cue","","","","","","","","","","","","","","","",""
"html-keyboard-response","169","471384","0.0-4.0-1.0-0.13","mhnruhtpgn7cb9h","prime","5a6f7604ff6f2300013edcd8","5f60e3c0a3b16e07647b2ff9","5f60ef5515bf45016c238a5d","false","null","<span style=""color: black; font-size: 48px"">M + N</span>","null","","","","resp_prompt","","","","","","","","","","","","","","","",""
"categorize-image","170","472380","0.0-4.0-1.0-1.13","mhnruhtpgn7cb9h","prime","5a6f7604ff6f2300013edcd8","5f60e3c0a3b16e07647b2ff9","5f60ef5515bf45016c238a5d","true","989.9750000040513","./Stimuli/SelectedImages/SM/SM78.bmp","83","","","","test","true","M + N","83","repetition","SM","SM78.bmp","remember","","62","3","prime1","left","","","",""
"html-keyboard-response","171","474381","0.0-4.0-1.0-3.13","mhnruhtpgn7cb9h","prime","5a6f7604ff6f2300013edcd8","5f60e3c0a3b16e07647b2ff9","5f60ef5515bf45016c238a5d","false","null","<div style=""align-items: center; display: flex; color: dodgerblue; font-size: 90px""><b>o</b></div>","null","","","","forget_cue","","","","","","","","","","","","","","","",""
"html-keyboard-response","172","475083","0.0-4.0-1.0-0.14","mhnruhtpgn7cb9h","prime","5a6f7604ff6f2300013edcd8","5f60e3c0a3b16e07647b2ff9","5f60ef5515bf45016c238a5d","false","null","<span style=""color: black; font-size: 48px"">N + M</span>","null","","","","resp_prompt","","","","","","","","","","","","","","","",""
"categorize-image","173","476599","0.0-4.0-1.0-1.14","mhnruhtpgn7cb9h","prime","5a6f7604ff6f2300013edcd8","5f60e3c0a3b16e07647b2ff9","5f60ef5515bf45016c238a5d","true","1509.6400000038557","./Stimuli/SelectedImages/LN/LN166.bmp","83","","","","test","true","N + M","83","switch","LN","LN166.bmp","forget","","63","3","prime1","left","","","",""
"html-keyboard-response","174","478601","0.0-4.0-1.0-3.14","mhnruhtpgn7cb9h","prime","5a6f7604ff6f2300013edcd8","5f60e3c0a3b16e07647b2ff9","5f60ef5515bf45016c238a5d","false","null","<div style=""align-items: center; display: flex; color: darkorange; font-size: 90px""><b>ø</b></div>","null","","","","forget_cue","","","","","","","","","","","","","","","",""
"html-keyboard-response","175","479303","0.0-4.0-1.0-0.15","mhnruhtpgn7cb9h","prime","5a6f7604ff6f2300013edcd8","5f60e3c0a3b16e07647b2ff9","5f60ef5515bf45016c238a5d","false","null","<span style=""color: black; font-size: 48px"">N + M</span>","null","","","","resp_prompt","","","","","","","","","","","","","","","",""
"categorize-image","176","480200","0.0-4.0-1.0-1.15","mhnruhtpgn7cb9h","prime","5a6f7604ff6f2300013edcd8","5f60e3c0a3b16e07647b2ff9","5f60ef5515bf45016c238a5d","true","889.7150000120746","./Stimuli/SelectedImages/SM/SM74.bmp","76","","","","test","true","N + M","76","switch","SM","SM74.bmp","remember","","64","3","prime1","right","","","",""
"html-keyboard-response","177","482201","0.0-4.0-1.0-3.15","mhnruhtpgn7cb9h","prime","5a6f7604ff6f2300013edcd8","5f60e3c0a3b16e07647b2ff9","5f60ef5515bf45016c238a5d","false","null","<div style=""align-items: center; display: flex; color: dodgerblue; font-size: 90px""><b>o</b></div>","null","","","","forget_cue","","","","","","","","","","","","","","","",""
"html-keyboard-response","178","482903","0.0-4.0-1.0-0.16","mhnruhtpgn7cb9h","prime","5a6f7604ff6f2300013edcd8","5f60e3c0a3b16e07647b2ff9","5f60ef5515bf45016c238a5d","false","null","<span style=""color: black; font-size: 48px"">N + M</span>","null","","","","resp_prompt","","","","","","","","","","","","","","","",""
"categorize-image","179","483860","0.0-4.0-1.0-1.16","mhnruhtpgn7cb9h","prime","5a6f7604ff6f2300013edcd8","5f60e3c0a3b16e07647b2ff9","5f60ef5515bf45016c238a5d","true","951.7999999952735","./Stimuli/SelectedImages/LN/LN150.bmp","83","","","","test","true","N + M","83","repetition","LN","LN150.bmp","remember","","65","3","prime1","left","","","",""
"html-keyboard-response","180","485862","0.0-4.0-1.0-3.16","mhnruhtpgn7cb9h","prime","5a6f7604ff6f2300013edcd8","5f60e3c0a3b16e07647b2ff9","5f60ef5515bf45016c238a5d","false","null","<div style=""align-items: center; display: flex; color: dodgerblue; font-size: 90px""><b>o</b></div>","null","","","","forget_cue","","","","","","","","","","","","","","","",""
"html-keyboard-response","181","486564","0.0-4.0-1.0-0.17","mhnruhtpgn7cb9h","prime","5a6f7604ff6f2300013edcd8","5f60e3c0a3b16e07647b2ff9","5f60ef5515bf45016c238a5d","false","null","<span style=""color: black; font-size: 48px"">M + N</span>","null","","","","resp_prompt","","","","","","","","","","","","","","","",""
"categorize-image","182","487672","0.0-4.0-1.0-1.17","mhnruhtpgn7cb9h","prime","5a6f7604ff6f2300013edcd8","5f60e3c0a3b16e07647b2ff9","5f60ef5515bf45016c238a5d","true","1101.989999995567","./Stimuli/SelectedImages/SN/SN179.bmp","83","","","","test","false","M + N","76","switch","SN","SN179.bmp","forget","","66","3","prime1","left","","","",""
"html-keyboard-response","183","488174","0.0-4.0-1.0-2.17-0.17","mhnruhtpgn7cb9h","prime","5a6f7604ff6f2300013edcd8","5f60e3c0a3b16e07647b2ff9","5f60ef5515bf45016c238a5d","false","null","<span style=""color: red; font-size: 48px"">Error!</span>","null","","","","feedback","","","","","","","","","","","","","","","",""
"html-keyboard-response","184","490176","0.0-4.0-1.0-3.17","mhnruhtpgn7cb9h","prime","5a6f7604ff6f2300013edcd8","5f60e3c0a3b16e07647b2ff9","5f60ef5515bf45016c238a5d","false","null","<div style=""align-items: center; display: flex; color: darkorange; font-size: 90px""><b>ø</b></div>","null","","","","forget_cue","","","","","","","","","","","","","","","",""
"html-keyboard-response","185","490877","0.0-4.0-1.0-0.18","mhnruhtpgn7cb9h","prime","5a6f7604ff6f2300013edcd8","5f60e3c0a3b16e07647b2ff9","5f60ef5515bf45016c238a5d","false","null","<span style=""color: black; font-size: 48px"">M + N</span>","null","","","","resp_prompt","","","","","","","","","","","","","","","",""
"categorize-image","186","491572","0.0-4.0-1.0-1.18","mhnruhtpgn7cb9h","prime","5a6f7604ff6f2300013edcd8","5f60e3c0a3b16e07647b2ff9","5f60ef5515bf45016c238a5d","true","687.9150000022491","./Stimuli/SelectedImages/SM/SM24.bmp","76","","","","test","false","M + N","83","repetition","SM","SM24.bmp","remember","","67","3","prime1","right","","","",""
"html-keyboard-response","187","492074","0.0-4.0-1.0-2.18-0.18","mhnruhtpgn7cb9h","prime","5a6f7604ff6f2300013edcd8","5f60e3c0a3b16e07647b2ff9","5f60ef5515bf45016c238a5d","false","null","<span style=""color: red; font-size: 48px"">Error!</span>","null","","","","feedback","","","","","","","","","","","","","","","",""
"html-keyboard-response","188","494077","0.0-4.0-1.0-3.18","mhnruhtpgn7cb9h","prime","5a6f7604ff6f2300013edcd8","5f60e3c0a3b16e07647b2ff9","5f60ef5515bf45016c238a5d","false","null","<div style=""align-items: center; display: flex; color: dodgerblue; font-size: 90px""><b>o</b></div>","null","","","","forget_cue","","","","","","","","","","","","","","","",""
"html-keyboard-response","189","494778","0.0-4.0-1.0-0.19","mhnruhtpgn7cb9h","prime","5a6f7604ff6f2300013edcd8","5f60e3c0a3b16e07647b2ff9","5f60ef5515bf45016c238a5d","false","null","<span style=""color: black; font-size: 48px"">M + N</span>","null","","","","resp_prompt","","","","","","","","","","","","","","","",""
"categorize-image","190","496101","0.0-4.0-1.0-1.19","mhnruhtpgn7cb9h","prime","5a6f7604ff6f2300013edcd8","5f60e3c0a3b16e07647b2ff9","5f60ef5515bf45016c238a5d","true","1315.7300000020768","./Stimuli/SelectedImages/LN/LN128.bmp","83","","","","test","false","M + N","76","switch","LN","LN128.bmp","remember","","68","3","prime1","left","","","",""
"html-keyboard-response","191","496603","0.0-4.0-1.0-2.19-0.19","mhnruhtpgn7cb9h","prime","5a6f7604ff6f2300013edcd8","5f60e3c0a3b16e07647b2ff9","5f60ef5515bf45016c238a5d","false","null","<span style=""color: red; font-size: 48px"">Error!</span>","null","","","","feedback","","","","","","","","","","","","","","","",""
"html-keyboard-response","192","498604","0.0-4.0-1.0-3.19","mhnruhtpgn7cb9h","prime","5a6f7604ff6f2300013edcd8","5f60e3c0a3b16e07647b2ff9","5f60ef5515bf45016c238a5d","false","null","<div style=""align-items: center; display: flex; color: dodgerblue; font-size: 90px""><b>o</b></div>","null","","","","forget_cue","","","","","","","","","","","","","","","",""
"html-keyboard-response","193","499306","0.0-4.0-1.0-0.20","mhnruhtpgn7cb9h","prime","5a6f7604ff6f2300013edcd8","5f60e3c0a3b16e07647b2ff9","5f60ef5515bf45016c238a5d","false","null","<span style=""color: black; font-size: 48px"">M + N</span>","null","","","","resp_prompt","","","","","","","","","","","","","","","",""
"categorize-image","194","501285","0.0-4.0-1.0-1.20","mhnruhtpgn7cb9h","prime","5a6f7604ff6f2300013edcd8","5f60e3c0a3b16e07647b2ff9","5f60ef5515bf45016c238a5d","true","1971.6200000111712","./Stimuli/SelectedImages/SM/SM148.bmp","76","","","","test","false","M + N","83","repetition","SM","SM148.bmp","forget","","69","3","prime1","right","","","",""
"html-keyboard-response","195","501786","0.0-4.0-1.0-2.20-0.20","mhnruhtpgn7cb9h","prime","5a6f7604ff6f2300013edcd8","5f60e3c0a3b16e07647b2ff9","5f60ef5515bf45016c238a5d","false","null","<span style=""color: red; font-size: 48px"">Error!</span>","null","","","","feedback","","","","","","","","","","","","","","","",""
"html-keyboard-response","196","503788","0.0-4.0-1.0-3.20","mhnruhtpgn7cb9h","prime","5a6f7604ff6f2300013edcd8","5f60e3c0a3b16e07647b2ff9","5f60ef5515bf45016c238a5d","false","null","<div style=""align-items: center; display: flex; color: darkorange; font-size: 90px""><b>ø</b></div>","null","","","","forget_cue","","","","","","","","","","","","","","","",""
"html-keyboard-response","197","504490","0.0-4.0-1.0-0.21","mhnruhtpgn7cb9h","prime","5a6f7604ff6f2300013edcd8","5f60e3c0a3b16e07647b2ff9","5f60ef5515bf45016c238a5d","false","null","<span style=""color: black; font-size: 48px"">N + M</span>","null","","","","resp_prompt","","","","","","","","","","","","","","","",""
"categorize-image","198","505241","0.0-4.0-1.0-1.21","mhnruhtpgn7cb9h","prime","5a6f7604ff6f2300013edcd8","5f60e3c0a3b16e07647b2ff9","5f60ef5515bf45016c238a5d","true","744.0000000060536","./Stimuli/SelectedImages/SN/SN27.bmp","83","","","","test","true","N + M","83","repetition","SN","SN27.bmp","remember","","70","3","prime1","left","","","",""
"html-keyboard-response","199","507243","0.0-4.0-1.0-3.21","mhnruhtpgn7cb9h","prime","5a6f7604ff6f2300013edcd8","5f60e3c0a3b16e07647b2ff9","5f60ef5515bf45016c238a5d","false","null","<div style=""align-items: center; display: flex; color: dodgerblue; font-size: 90px""><b>o</b></div>","null","","","","forget_cue","","","","","","","","","","","","","","","",""
"html-keyboard-response","200","507944","0.0-4.0-1.0-0.22","mhnruhtpgn7cb9h","prime","5a6f7604ff6f2300013edcd8","5f60e3c0a3b16e07647b2ff9","5f60ef5515bf45016c238a5d","false","null","<span style=""color: black; font-size: 48px"">M + N</span>","null","","","","resp_prompt","","","","","","","","","","","","","","","",""
"categorize-image","201","509051","0.0-4.0-1.0-1.22","mhnruhtpgn7cb9h","prime","5a6f7604ff6f2300013edcd8","5f60e3c0a3b16e07647b2ff9","5f60ef5515bf45016c238a5d","true","1098.6449999909382","./Stimuli/SelectedImages/LM/LM150.bmp","83","","","","test","true","M + N","83","switch","LM","LM150.bmp","forget","","71","3","prime1","left","","","",""
"html-keyboard-response","202","511052","0.0-4.0-1.0-3.22","mhnruhtpgn7cb9h","prime","5a6f7604ff6f2300013edcd8","5f60e3c0a3b16e07647b2ff9","5f60ef5515bf45016c238a5d","false","null","<div style=""align-items: center; display: flex; color: darkorange; font-size: 90px""><b>ø</b></div>","null","","","","forget_cue","","","","","","","","","","","","","","","",""
"html-keyboard-response","203","511754","0.0-4.0-1.0-0.23","mhnruhtpgn7cb9h","prime","5a6f7604ff6f2300013edcd8","5f60e3c0a3b16e07647b2ff9","5f60ef5515bf45016c238a5d","false","null","<span style=""color: black; font-size: 48px"">N + M</span>","null","","","","resp_prompt","","","","","","","","","","","","","","","",""
"categorize-image","204","513176","0.0-4.0-1.0-1.23","mhnruhtpgn7cb9h","prime","5a6f7604ff6f2300013edcd8","5f60e3c0a3b16e07647b2ff9","5f60ef5515bf45016c238a5d","true","1416.0249999986263","./Stimuli/SelectedImages/LM/LM103.bmp","83","","","","test","false","N + M","76","switch","LM","LM103.bmp","forget","","72","3","prime1","left","","","",""
"html-keyboard-response","205","513678","0.0-4.0-1.0-2.23-0.23","mhnruhtpgn7cb9h","prime","5a6f7604ff6f2300013edcd8","5f60e3c0a3b16e07647b2ff9","5f60ef5515bf45016c238a5d","false","null","<span style=""color: red; font-size: 48px"">Error!</span>","null","","","","feedback","","","","","","","","","","","","","","","",""
"html-keyboard-response","206","515680","0.0-4.0-1.0-3.23","mhnruhtpgn7cb9h","prime","5a6f7604ff6f2300013edcd8","5f60e3c0a3b16e07647b2ff9","5f60ef5515bf45016c238a5d","false","null","<div style=""align-items: center; display: flex; color: darkorange; font-size: 90px""><b>ø</b></div>","null","","","","forget_cue","","","","","","","","","","","","","","","",""
"html-keyboard-response","207","516382","0.0-4.0-1.0-0.24","mhnruhtpgn7cb9h","prime","5a6f7604ff6f2300013edcd8","5f60e3c0a3b16e07647b2ff9","5f60ef5515bf45016c238a5d","false","null","<span style=""color: black; font-size: 48px"">M + N</span>","null","","","","resp_prompt","","","","","","","","","","","","","","","",""
"categorize-image","208","517173","0.0-4.0-1.0-1.24","mhnruhtpgn7cb9h","prime","5a6f7604ff6f2300013edcd8","5f60e3c0a3b16e07647b2ff9","5f60ef5515bf45016c238a5d","true","783.7350000045262","./Stimuli/SelectedImages/SN/SN155.bmp","76","","","","test","true","M + N","76","switch","SN","SN155.bmp","forget","","73","3","prime1","right","","","",""
"html-keyboard-response","209","519174","0.0-4.0-1.0-3.24","mhnruhtpgn7cb9h","prime","5a6f7604ff6f2300013edcd8","5f60e3c0a3b16e07647b2ff9","5f60ef5515bf45016c238a5d","false","null","<div style=""align-items: center; display: flex; color: darkorange; font-size: 90px""><b>ø</b></div>","null","","","","forget_cue","","","","","","","","","","","","","","","",""
"html-keyboard-response","210","519877","0.0-4.0-1.0-0.25","mhnruhtpgn7cb9h","prime","5a6f7604ff6f2300013edcd8","5f60e3c0a3b16e07647b2ff9","5f60ef5515bf45016c238a5d","false","null","<span style=""color: black; font-size: 48px"">N + M</span>","null","","","","resp_prompt","","","","","","","","","","","","","","","",""
"categorize-image","211","520624","0.0-4.0-1.0-1.25","mhnruhtpgn7cb9h","prime","5a6f7604ff6f2300013edcd8","5f60e3c0a3b16e07647b2ff9","5f60ef5515bf45016c238a5d","true","740.7700000039767","./Stimuli/SelectedImages/LM/LM179.bmp","76","","","","test","true","N + M","76","switch","LM","LM179.bmp","remember","","74","3","prime1","right","","","",""
"html-keyboard-response","212","522625","0.0-4.0-1.0-3.25","mhnruhtpgn7cb9h","prime","5a6f7604ff6f2300013edcd8","5f60e3c0a3b16e07647b2ff9","5f60ef5515bf45016c238a5d","false","null","<div style=""align-items: center; display: flex; color: dodgerblue; font-size: 90px""><b>o</b></div>","null","","","","forget_cue","","","","","","","","","","","","","","","",""
"html-keyboard-response","213","523327","0.0-4.0-1.0-0.26","mhnruhtpgn7cb9h","prime","5a6f7604ff6f2300013edcd8","5f60e3c0a3b16e07647b2ff9","5f60ef5515bf45016c238a5d","false","null","<span style=""color: black; font-size: 48px"">M + N</span>","null","","","","resp_prompt","","","","","","","","","","","","","","","",""
"categorize-image","214","524303","0.0-4.0-1.0-1.26","mhnruhtpgn7cb9h","prime","5a6f7604ff6f2300013edcd8","5f60e3c0a3b16e07647b2ff9","5f60ef5515bf45016c238a5d","true","969.5199999987381","./Stimuli/SelectedImages/SM/SM184.bmp","83","","","","test","true","M + N","83","repetition","SM","SM184.bmp","forget","","75","3","prime1","left","","","",""
"html-keyboard-response","215","526305","0.0-4.0-1.0-3.26","mhnruhtpgn7cb9h","prime","5a6f7604ff6f2300013edcd8","5f60e3c0a3b16e07647b2ff9","5f60ef5515bf45016c238a5d","false","null","<div style=""align-items: center; display: flex; color: darkorange; font-size: 90px""><b>ø</b></div>","null","","","","forget_cue","","","","","","","","","","","","","","","",""
"html-keyboard-response","216","527007","0.0-4.0-1.0-0.27","mhnruhtpgn7cb9h","prime","5a6f7604ff6f2300013edcd8","5f60e3c0a3b16e07647b2ff9","5f60ef5515bf45016c238a5d","false","null","<span style=""color: black; font-size: 48px"">N + M</span>","null","","","","resp_prompt","","","","","","","","","","","","","","","",""
"categorize-image","217","528139","0.0-4.0-1.0-1.27","mhnruhtpgn7cb9h","prime","5a6f7604ff6f2300013edcd8","5f60e3c0a3b16e07647b2ff9","5f60ef5515bf45016c238a5d","true","1124.565000005532","./Stimuli/SelectedImages/SN/SN93.bmp","76","","","","test","false","N + M","83","repetition","SN","SN93.bmp","remember","","76","3","prime1","right","","","",""
"html-keyboard-response","218","528641","0.0-4.0-1.0-2.27-0.27","mhnruhtpgn7cb9h","prime","5a6f7604ff6f2300013edcd8","5f60e3c0a3b16e07647b2ff9","5f60ef5515bf45016c238a5d","false","null","<span style=""color: red; font-size: 48px"">Error!</span>","null","","","","feedback","","","","","","","","","","","","","","","",""
"html-keyboard-response","219","530642","0.0-4.0-1.0-3.27","mhnruhtpgn7cb9h","prime","5a6f7604ff6f2300013edcd8","5f60e3c0a3b16e07647b2ff9","5f60ef5515bf45016c238a5d","false","null","<div style=""align-items: center; display: flex; color: dodgerblue; font-size: 90px""><b>o</b></div>","null","","","","forget_cue","","","","","","","","","","","","","","","",""
"html-keyboard-response","220","531345","0.0-4.0-1.0-0.28","mhnruhtpgn7cb9h","prime","5a6f7604ff6f2300013edcd8","5f60e3c0a3b16e07647b2ff9","5f60ef5515bf45016c238a5d","false","null","<span style=""color: black; font-size: 48px"">N + M</span>","null","","","","resp_prompt","","","","","","","","","","","","","","","",""
"categorize-image","221","532388","0.0-4.0-1.0-1.28","mhnruhtpgn7cb9h","prime","5a6f7604ff6f2300013edcd8","5f60e3c0a3b16e07647b2ff9","5f60ef5515bf45016c238a5d","true","1036.1700000066776","./Stimuli/SelectedImages/LN/LN111.bmp","83","","","","test","true","N + M","83","repetition","LN","LN111.bmp","forget","","77","3","prime1","left","","","",""
"html-keyboard-response","222","534390","0.0-4.0-1.0-3.28","mhnruhtpgn7cb9h","prime","5a6f7604ff6f2300013edcd8","5f60e3c0a3b16e07647b2ff9","5f60ef5515bf45016c238a5d","false","null","<div style=""align-items: center; display: flex; color: darkorange; font-size: 90px""><b>ø</b></div>","null","","","","forget_cue","","","","","","","","","","","","","","","",""
"html-keyboard-response","223","535092","0.0-4.0-1.0-0.29","mhnruhtpgn7cb9h","prime","5a6f7604ff6f2300013edcd8","5f60e3c0a3b16e07647b2ff9","5f60ef5515bf45016c238a5d","false","null","<span style=""color: black; font-size: 48px"">N + M</span>","null","","","","resp_prompt","","","","","","","","","","","","","","","",""
"categorize-image","224","536348","0.0-4.0-1.0-1.29","mhnruhtpgn7cb9h","prime","5a6f7604ff6f2300013edcd8","5f60e3c0a3b16e07647b2ff9","5f60ef5515bf45016c238a5d","true","1250.0900000013644","./Stimuli/SelectedImages/SN/SN18.bmp","83","","","","test","true","N + M","83","repetition","SN","SN18.bmp","forget","","78","3","prime1","left","","","",""
"html-keyboard-response","225","538349","0.0-4.0-1.0-3.29","mhnruhtpgn7cb9h","prime","5a6f7604ff6f2300013edcd8","5f60e3c0a3b16e07647b2ff9","5f60ef5515bf45016c238a5d","false","null","<div style=""align-items: center; display: flex; color: darkorange; font-size: 90px""><b>ø</b></div>","null","","","","forget_cue","","","","","","","","","","","","","","","",""
"html-keyboard-response","226","539051","0.0-4.0-1.0-0.30","mhnruhtpgn7cb9h","prime","5a6f7604ff6f2300013edcd8","5f60e3c0a3b16e07647b2ff9","5f60ef5515bf45016c238a5d","false","null","<span style=""color: black; font-size: 48px"">M + N</span>","null","","","","resp_prompt","","","","","","","","","","","","","","","",""
"categorize-image","227","539938","0.0-4.0-1.0-1.30","mhnruhtpgn7cb9h","prime","5a6f7604ff6f2300013edcd8","5f60e3c0a3b16e07647b2ff9","5f60ef5515bf45016c238a5d","true","880.8699999935925","./Stimuli/SelectedImages/SN/SN181.bmp","83","","","","test","false","M + N","76","repetition","SN","SN181.bmp","forget","","79","3","prime1","left","","","",""
"html-keyboard-response","228","540440","0.0-4.0-1.0-2.30-0.30","mhnruhtpgn7cb9h","prime","5a6f7604ff6f2300013edcd8","5f60e3c0a3b16e07647b2ff9","5f60ef5515bf45016c238a5d","false","null","<span style=""color: red; font-size: 48px"">Error!</span>","null","","","","feedback","","","","","","","","","","","","","","","",""
"html-keyboard-response","229","542442","0.0-4.0-1.0-3.30","mhnruhtpgn7cb9h","prime","5a6f7604ff6f2300013edcd8","5f60e3c0a3b16e07647b2ff9","5f60ef5515bf45016c238a5d","false","null","<div style=""align-items: center; display: flex; color: darkorange; font-size: 90px""><b>ø</b></div>","null","","","","forget_cue","","","","","","","","","","","","","","","",""
"html-keyboard-response","230","543144","0.0-4.0-1.0-0.31","mhnruhtpgn7cb9h","prime","5a6f7604ff6f2300013edcd8","5f60e3c0a3b16e07647b2ff9","5f60ef5515bf45016c238a5d","false","null","<span style=""color: black; font-size: 48px"">N + M</span>","null","","","","resp_prompt","","","","","","","","","","","","","","","",""
"categorize-image","231","544193","0.0-4.0-1.0-1.31","mhnruhtpgn7cb9h","prime","5a6f7604ff6f2300013edcd8","5f60e3c0a3b16e07647b2ff9","5f60ef5515bf45016c238a5d","true","1043.0250000063097","./Stimuli/SelectedImages/SM/SM76.bmp","83","","","","test","false","N + M","76","switch","SM","SM76.bmp","forget","","80","3","prime1","left","","","",""
"html-keyboard-response","232","544695","0.0-4.0-1.0-2.31-0.31","mhnruhtpgn7cb9h","prime","5a6f7604ff6f2300013edcd8","5f60e3c0a3b16e07647b2ff9","5f60ef5515bf45016c238a5d","false","null","<span style=""color: red; font-size: 48px"">Error!</span>","null","","","","feedback","","","","","","","","","","","","","","","",""
"html-keyboard-response","233","546697","0.0-4.0-1.0-3.31","mhnruhtpgn7cb9h","prime","5a6f7604ff6f2300013edcd8","5f60e3c0a3b16e07647b2ff9","5f60ef5515bf45016c238a5d","false","null","<div style=""align-items: center; display: flex; color: darkorange; font-size: 90px""><b>ø</b></div>","null","","","","forget_cue","","","","","","","","","","","","","","","",""
"html-keyboard-response","234","547399","0.0-4.0-1.0-0.32","mhnruhtpgn7cb9h","prime","5a6f7604ff6f2300013edcd8","5f60e3c0a3b16e07647b2ff9","5f60ef5515bf45016c238a5d","false","null","<span style=""color: black; font-size: 48px"">M + N</span>","null","","","","resp_prompt","","","","","","","","","","","","","","","",""
"categorize-image","235","548359","0.0-4.0-1.0-1.32","mhnruhtpgn7cb9h","prime","5a6f7604ff6f2300013edcd8","5f60e3c0a3b16e07647b2ff9","5f60ef5515bf45016c238a5d","true","953.2250000047497","./Stimuli/SelectedImages/LN/LN59.bmp","83","","","","test","false","M + N","76","switch","LN","LN59.bmp","remember","","81","3","prime1","left","","","",""
"html-keyboard-response","236","548861","0.0-4.0-1.0-2.32-0.32","mhnruhtpgn7cb9h","prime","5a6f7604ff6f2300013edcd8","5f60e3c0a3b16e07647b2ff9","5f60ef5515bf45016c238a5d","false","null","<span style=""color: red; font-size: 48px"">Error!</span>","null","","","","feedback","","","","","","","","","","","","","","","",""
"html-keyboard-response","237","550862","0.0-4.0-1.0-3.32","mhnruhtpgn7cb9h","prime","5a6f7604ff6f2300013edcd8","5f60e3c0a3b16e07647b2ff9","5f60ef5515bf45016c238a5d","false","null","<div style=""align-items: center; display: flex; color: dodgerblue; font-size: 90px""><b>o</b></div>","null","","","","forget_cue","","","","","","","","","","","","","","","",""
"html-keyboard-response","238","551564","0.0-4.0-1.0-0.33","mhnruhtpgn7cb9h","prime","5a6f7604ff6f2300013edcd8","5f60e3c0a3b16e07647b2ff9","5f60ef5515bf45016c238a5d","false","null","<span style=""color: black; font-size: 48px"">M + N</span>","null","","","","resp_prompt","","","","","","","","","","","","","","","",""
"categorize-image","239","552347","0.0-4.0-1.0-1.33","mhnruhtpgn7cb9h","prime","5a6f7604ff6f2300013edcd8","5f60e3c0a3b16e07647b2ff9","5f60ef5515bf45016c238a5d","true","775.5850000103237","./Stimuli/SelectedImages/SM/SM200.bmp","76","","","","test","false","M + N","83","switch","SM","SM200.bmp","remember","","82","3","prime1","right","","","",""
"html-keyboard-response","240","552849","0.0-4.0-1.0-2.33-0.33","mhnruhtpgn7cb9h","prime","5a6f7604ff6f2300013edcd8","5f60e3c0a3b16e07647b2ff9","5f60ef5515bf45016c238a5d","false","null","<span style=""color: red; font-size: 48px"">Error!</span>","null","","","","feedback","","","","","","","","","","","","","","","",""
"html-keyboard-response","241","554850","0.0-4.0-1.0-3.33","mhnruhtpgn7cb9h","prime","5a6f7604ff6f2300013edcd8","5f60e3c0a3b16e07647b2ff9","5f60ef5515bf45016c238a5d","false","null","<div style=""align-items: center; display: flex; color: dodgerblue; font-size: 90px""><b>o</b></div>","null","","","","forget_cue","","","","","","","","","","","","","","","",""
"html-keyboard-response","242","555552","0.0-4.0-1.0-0.34","mhnruhtpgn7cb9h","prime","5a6f7604ff6f2300013edcd8","5f60e3c0a3b16e07647b2ff9","5f60ef5515bf45016c238a5d","false","null","<span style=""color: black; font-size: 48px"">M + N</span>","null","","","","resp_prompt","","","","","","","","","","","","","","","",""
"categorize-image","243","556639","0.0-4.0-1.0-1.34","mhnruhtpgn7cb9h","prime","5a6f7604ff6f2300013edcd8","5f60e3c0a3b16e07647b2ff9","5f60ef5515bf45016c238a5d","true","1080.0749999907566","./Stimuli/SelectedImages/LN/LN149.bmp","83","","","","test","false","M + N","76","repetition","LN","LN149.bmp","remember","","83","3","prime1","left","","","",""
"html-keyboard-response","244","557141","0.0-4.0-1.0-2.34-0.34","mhnruhtpgn7cb9h","prime","5a6f7604ff6f2300013edcd8","5f60e3c0a3b16e07647b2ff9","5f60ef5515bf45016c238a5d","false","null","<span style=""color: red; font-size: 48px"">Error!</span>","null","","","","feedback","","","","","","","","","","","","","","","",""
"html-keyboard-response","245","559143","0.0-4.0-1.0-3.34","mhnruhtpgn7cb9h","prime","5a6f7604ff6f2300013edcd8","5f60e3c0a3b16e07647b2ff9","5f60ef5515bf45016c238a5d","false","null","<div style=""align-items: center; display: flex; color: dodgerblue; font-size: 90px""><b>o</b></div>","null","","","","forget_cue","","","","","","","","","","","","","","","",""
"html-keyboard-response","246","559844","0.0-4.0-1.0-0.35","mhnruhtpgn7cb9h","prime","5a6f7604ff6f2300013edcd8","5f60e3c0a3b16e07647b2ff9","5f60ef5515bf45016c238a5d","false","null","<span style=""color: black; font-size: 48px"">M + N</span>","null","","","","resp_prompt","","","","","","","","","","","","","","","",""
"categorize-image","247","560708","0.0-4.0-1.0-1.35","mhnruhtpgn7cb9h","prime","5a6f7604ff6f2300013edcd8","5f60e3c0a3b16e07647b2ff9","5f60ef5515bf45016c238a5d","true","856.0599999909755","./Stimuli/SelectedImages/LM/LM129.bmp","76","","","","test","false","M + N","83","repetition","LM","LM129.bmp","remember","","84","3","prime1","right","","","",""
"html-keyboard-response","248","561210","0.0-4.0-1.0-2.35-0.35","mhnruhtpgn7cb9h","prime","5a6f7604ff6f2300013edcd8","5f60e3c0a3b16e07647b2ff9","5f60ef5515bf45016c238a5d","false","null","<span style=""color: red; font-size: 48px"">Error!</span>","null","","","","feedback","","","","","","","","","","","","","","","",""
"html-keyboard-response","249","563212","0.0-4.0-1.0-3.35","mhnruhtpgn7cb9h","prime","5a6f7604ff6f2300013edcd8","5f60e3c0a3b16e07647b2ff9","5f60ef5515bf45016c238a5d","false","null","<div style=""align-items: center; display: flex; color: dodgerblue; font-size: 90px""><b>o</b></div>","null","","","","forget_cue","","","","","","","","","","","","","","","",""
"html-keyboard-response","250","563914","0.0-4.0-1.0-0.36","mhnruhtpgn7cb9h","prime","5a6f7604ff6f2300013edcd8","5f60e3c0a3b16e07647b2ff9","5f60ef5515bf45016c238a5d","false","null","<span style=""color: black; font-size: 48px"">N + M</span>","null","","","","resp_prompt","","","","","","","","","","","","","","","",""
"categorize-image","251","564635","0.0-4.0-1.0-1.36","mhnruhtpgn7cb9h","prime","5a6f7604ff6f2300013edcd8","5f60e3c0a3b16e07647b2ff9","5f60ef5515bf45016c238a5d","true","716.5399999939837","./Stimuli/SelectedImages/LM/LM51.bmp","83","","","","test","false","N + M","76","repetition","LM","LM51.bmp","remember","","85","3","prime1","left","","","",""
"html-keyboard-response","252","565136","0.0-4.0-1.0-2.36-0.36","mhnruhtpgn7cb9h","prime","5a6f7604ff6f2300013edcd8","5f60e3c0a3b16e07647b2ff9","5f60ef5515bf45016c238a5d","false","null","<span style=""color: red; font-size: 48px"">Error!</span>","null","","","","feedback","","","","","","","","","","","","","","","",""
"html-keyboard-response","253","567138","0.0-4.0-1.0-3.36","mhnruhtpgn7cb9h","prime","5a6f7604ff6f2300013edcd8","5f60e3c0a3b16e07647b2ff9","5f60ef5515bf45016c238a5d","false","null","<div style=""align-items: center; display: flex; color: dodgerblue; font-size: 90px""><b>o</b></div>","null","","","","forget_cue","","","","","","","","","","","","","","","",""
