"trial_type","trial_index","time_elapsed","internal_node_id","subject","exp_part","prolific_PID","study_ID","session_ID","use","rt","stimulus","key_press","button_pressed","responses","question_order","trial_part","correct","resp_map","correct_resp","probe_condition","category","image","forget_condition","list","trial_num","block_num","block","response","test_part","n_span","sequence","num_spaces"
"pavlovia","0","30","0.0-0.0","kl5bt2s0kyvdsfw","","5f32b358c70f5001e1225ba2","5f60e3c0a3b16e07647b2ff9","5f63803887554506481580ad","false","","","","","","","","","","","","","","","","","","","","","","",""
"html-keyboard-response","1","498713","0.0-1.0-0.0-0.0","kl5bt2s0kyvdsfw","welcome","5f32b358c70f5001e1225ba2","5f60e3c0a3b16e07647b2ff9","5f63803887554506481580ad","false","498663.93999999855","<div align=left>Dear participant, <br> thank you for participating in an online study of the Cognition, Action, and Sustainability Unit of the University of Freiburg! <br> <br>The aim of this study is to examine our ability to remember previously learned information. <br>Our goal is to find out, whether our memory improves, when we only remember information that is relevant to us. <br>The experiment will take about 35 minutes to complete. <br> <br>Please, note that you can only participate in this study if you are using a device with a keyboard (PC, Laptop etc.) <br>and not if you are using a mobile device such as a tablet or smartphone.<br> <br>Press 'SPACE' to proceed to the experiment. </div>","32","","","","","","","","","","","","","","","","","","","",""
"html-keyboard-response","2","517459","0.0-1.0-0.0-1.0","kl5bt2s0kyvdsfw","welcome","5f32b358c70f5001e1225ba2","5f60e3c0a3b16e07647b2ff9","5f63803887554506481580ad","false","18735.6649999856","<div align=left><strong> Time Course of this experiment: </strong> <br><br> <strong> 1.</strong>  First, please fill in some information regarding your demographic data. <br><br> <strong> 2.</strong>  Next, your task will be to classify everyday objects. <br>In addition, you will be asked to remember certain objects and recall them later. <br>Working on these tasks requires your undivided attention and concentration.<br>It is therefore essential that you eliminate any sources of distraction in your  <br>environment and ensure that you will not be disturbed. <br><br><strong> 3.</strong>  At the end of the experiment, you will be asked to answer a few additional questions. <br> <br><strong> Important:</strong> After finishing the experiment, only close the browser window <br> by clicking on the 'end the experiment'-button when you are asked to do so. <br>Closing the browser window prematurely will make the allocation of your participation credit impossible. <br><br> Press 'SPACE' to start the experiment. </div>","32","","","","","","","","","","","","","","","","","","","",""
"html-button-response","3","528212","0.0-1.0-0.0-2.0","kl5bt2s0kyvdsfw","welcome","5f32b358c70f5001e1225ba2","5f60e3c0a3b16e07647b2ff9","5f63803887554506481580ad","true","10736.054999986663","<div align=left><strong> Informed consent </strong>  <br>The aim of our research is to better understand human behavior and mental processes. <br>In the following study your behavior (e.g. choices, reaction times) will be studied. <br> <br><strong> Voluntariness and Anonymity </strong> <br>Your participation in this study is  <strong> voluntary</strong>.<br>You may withdraw your consent to participate at any time without providing a reason for doing so and without fear of prejudice. <br><br>As no personal data will be collected, <strong>your data and your person cannot be connected after data collection</strong> – the data-set is anonymous. <br>Respectively, deletion of your data will not be possible after data collection has been completed, as we cannot retrace your data-set.<br>The results and anonymized data collected in this study will be published as a scientific publication. <br>This will happen in an <strong>anonymized format</strong>, so that no data can be traced back to a specific person. <br> <br>The anonymized data of this study will be made available to other researchers and/or in a data archive on the Internet as a means of transparency and to enable subsequent re-use. By doing so, this study follows the recommendations of the Deutsche Forschungsgemeinschaft (DFG, German Research Foundation) and Deutsche Gesellschaft für Psychologie (DGPS, German Psychological Society) regarding quality assurance in research.<br>If you have any questions now or after the experiment, please contact our team (experiments@cs.uni-freiburg.de).<br><br><br>I hereby declare, that I understand the above described conditions of participation and I agree to participate under these conditions. <br><br> </div>","","0","","","","","","","","","","","","","","","","","","",""
"html-keyboard-response","4","550523","0.0-1.0-0.0-3.0","kl5bt2s0kyvdsfw","welcome","5f32b358c70f5001e1225ba2","5f60e3c0a3b16e07647b2ff9","5f63803887554506481580ad","false","22295.68499996094","<div align=left><strong> General information concerning the experiment </strong>  <br> <br>Please follow the instructions:<ol> <li><strong> Do not leave this tab (your browser window) during the experiment and do not reload this tab! </strong>  <br>If you do switch tabs/windows during the experiment (to check your mail or visit another website, for example), <br>the experiment will end automatically and you will <strong>not receive credit</strong> for your participation. <br>Repeated participation or resumption of the experiment is impossible.</li> <br><li>Please close all other programs for the duration of your participation. </li> <br><li>Please mute or turn off your phone and put it out of your reach. </li> <br><li>Please also take off any disturbing accessories (such as wristwatches, bracelets, etc.). </li> <br><li>If you have music playing in the background, please turn it off now. </li> <br></ol>Thank you! <br>Press 'SPACE' to continue. </div>","32","","","","","","","","","","","","","","","","","","","",""
"survey-text","5","553685","0.0-1.0-1.0-0.0","kl5bt2s0kyvdsfw","demographics","5f32b358c70f5001e1225ba2","5f60e3c0a3b16e07647b2ff9","5f63803887554506481580ad","true","3110.5650000390597","","","","{""age"":""24""}","","","","","","","","","","","","","","","","","",""
"survey-multi-choice","6","576725","0.0-1.0-1.0-1.0","kl5bt2s0kyvdsfw","demographics","5f32b358c70f5001e1225ba2","5f60e3c0a3b16e07647b2ff9","5f63803887554506481580ad","true","23015.994999965187","","","","{""gender"":""female"",""school"":""high school"",""education"":""Completed university degree or equivalent""}","[0,1,2]","","","","","","","","","","","","","","","","",""
"html-keyboard-response","7","589322","0.0-1.0-2.0","kl5bt2s0kyvdsfw","instructions","5f32b358c70f5001e1225ba2","5f60e3c0a3b16e07647b2ff9","5f63803887554506481580ad","false","12550.549999985378","<div align=left> The experiment is now about to start: <br> <br>In the following part, you will be presented pictures of everyday objects. <br>Your first task is to <strong>classify these objects. </strong> <br> <br> You will classify them either as mechanical or non-mechanical objects. <br> <br>Objects that include any kind of technical mechanism (for example, wheels, switches, levers, <br> electronic components) fall under the category of <strong>mechanical</strong> objects. <br>Only objects without any kind of technical mechanism should be classified as <strong>non-mechanical</strong>. <br><br>Press 'SPACE' to continue. </div>","32","","","","","","","","","","","","","","","","","","","",""
"html-keyboard-response","8","632690","0.0-2.0-0.0","kl5bt2s0kyvdsfw","instructions","5f32b358c70f5001e1225ba2","5f60e3c0a3b16e07647b2ff9","5f63803887554506481580ad","false","43359.11499999929","<div align=justify>You will classify the objects using the <strong>'S'</strong> and the <strong>'L'</strong> keys on your keyboard.<br>For doing so, please place your <strong>left index finger</strong> on the <strong>'S'</strong> key and place your <strong>right index finger</strong> on the <strong>'L'</strong> key. <br><br> Each trial starts with an instruction, indicating which key ('S'/'L') you need to press to classify <br>the object as mechanical (letter M) or non-mechanical (letter N).<br>The instruction <strong>M + N</strong> indicates that, in the current trial, by pressing the left key ('S') you classify the displayed object as mechanical (M) <br> and by pressing the right key ('L') you classify the object as non-mechanical (N). <br>The instruction <strong>N + M</strong> on the other hand indicates that by pressing the left key ('S') you classify the displayed object as non-mechanical (N) <br> and by pressing the right key ('L') you classify the object as mechanical (M). <br><br>Please press the key corresponding to the correct classification as fast as possible as soon as the object is displayed and try to avoid making mistakes.<br>If you do not respond within a 2 second window, a corresponding feedback will be displayed and the next trial will start.<br> The experiment is divided into multiple blocks to give you the opportunity to take a break after each block. <br>First, you can now practice this task. <br><br>Please place your <strong>LEFT INDEX FINGER</strong> on the 'S' key and your <strong>RIGHT INDEX FINGER</strong> on the 'L' key now. <br><br>Press SPACE to continue.</div>","32","","","","","","","","","","","","","","","","","","","",""
"html-keyboard-response","9","642983","0.0-2.0-1.0","kl5bt2s0kyvdsfw","instructions","5f32b358c70f5001e1225ba2","5f60e3c0a3b16e07647b2ff9","5f63803887554506481580ad","false","10283.96500000963","<div align=left> You will now have time to practice this task.<br><br>Remember: <br> <br><li>Please place your index fingers on the <strong>'S'</strong> and <strong>'L'</strong> keys <br>to respond as fast and accurately as possible.</li><li>Every picture can be classified as either mechanical or non-mechanical.</li><li>If you do not respond in time or commit an error, you will receive a corresponding feedback. </li><li> Please try to respond as <strong> fast </strong> and as <strong> accurately as possible </strong> .<br><li>To ensure optimal results, please minimize distractions and stay focused. </li><br><br>Press SPACE to continue.</div>","32","","","","","","","","","","","","","","","","","","","",""
"html-keyboard-response","10","643700","0.0-2.0-2.0-0.0","kl5bt2s0kyvdsfw","practice_no_cue","5f32b358c70f5001e1225ba2","5f60e3c0a3b16e07647b2ff9","5f63803887554506481580ad","false","null","<span style=""color: black; font-size: 48px"">M + N</span>","null","","","","resp_prompt","","","","","","","","","","","","","","","",""
"categorize-image","11","646234","0.0-2.0-2.0-1.0","kl5bt2s0kyvdsfw","practice_no_cue","5f32b358c70f5001e1225ba2","5f60e3c0a3b16e07647b2ff9","5f63803887554506481580ad","true","null","./Stimuli/ImagesPractice/SN75.jpg","null","","","","test","false","M + N","76","","SN","SN75.jpg","remember","old","1","1","start","too_slow","","","",""
"html-keyboard-response","12","646943","0.0-2.0-2.0-0.1","kl5bt2s0kyvdsfw","practice_no_cue","5f32b358c70f5001e1225ba2","5f60e3c0a3b16e07647b2ff9","5f63803887554506481580ad","false","null","<span style=""color: black; font-size: 48px"">M + N</span>","null","","","","resp_prompt","","","","","","","","","","","","","","","",""
"categorize-image","13","648461","0.0-2.0-2.0-1.1","kl5bt2s0kyvdsfw","practice_no_cue","5f32b358c70f5001e1225ba2","5f60e3c0a3b16e07647b2ff9","5f63803887554506481580ad","true","1007.3899999842979","./Stimuli/ImagesPractice/LM224.jpg","76","","","","test","false","M + N","83","","LM","LM224.jpg","remember","old","2","1","start","right","","","",""
"html-keyboard-response","14","649167","0.0-2.0-2.0-0.2","kl5bt2s0kyvdsfw","practice_no_cue","5f32b358c70f5001e1225ba2","5f60e3c0a3b16e07647b2ff9","5f63803887554506481580ad","false","null","<span style=""color: black; font-size: 48px"">N + M</span>","null","","","","resp_prompt","","","","","","","","","","","","","","","",""
"categorize-image","15","651455","0.0-2.0-2.0-1.2","kl5bt2s0kyvdsfw","practice_no_cue","5f32b358c70f5001e1225ba2","5f60e3c0a3b16e07647b2ff9","5f63803887554506481580ad","true","1760.3649999946356","./Stimuli/ImagesPractice/SM37.jpg","76","","","","test","true","N + M","76","","SM","SM37.jpg","remember","old","3","1","start","right","","","",""
"html-keyboard-response","16","652168","0.0-2.0-2.0-0.3","kl5bt2s0kyvdsfw","practice_no_cue","5f32b358c70f5001e1225ba2","5f60e3c0a3b16e07647b2ff9","5f63803887554506481580ad","false","null","<span style=""color: black; font-size: 48px"">M + N</span>","null","","","","resp_prompt","","","","","","","","","","","","","","","",""
"categorize-image","17","653518","0.0-2.0-2.0-1.3","kl5bt2s0kyvdsfw","practice_no_cue","5f32b358c70f5001e1225ba2","5f60e3c0a3b16e07647b2ff9","5f63803887554506481580ad","true","825.1600000075996","./Stimuli/ImagesPractice/LM147.jpg","76","","","","test","false","M + N","83","","LM","LM147.jpg","remember","old","4","1","start","right","","","",""
"html-keyboard-response","18","654227","0.0-2.0-2.0-0.4","kl5bt2s0kyvdsfw","practice_no_cue","5f32b358c70f5001e1225ba2","5f60e3c0a3b16e07647b2ff9","5f63803887554506481580ad","false","null","<span style=""color: black; font-size: 48px"">M + N</span>","null","","","","resp_prompt","","","","","","","","","","","","","","","",""
"categorize-image","19","655836","0.0-2.0-2.0-1.4","kl5bt2s0kyvdsfw","practice_no_cue","5f32b358c70f5001e1225ba2","5f60e3c0a3b16e07647b2ff9","5f63803887554506481580ad","true","1095.0549999834038","./Stimuli/ImagesPractice/SN222.jpg","83","","","","test","false","M + N","76","","SN","SN222.jpg","forget","old","5","1","start","left","","","",""
"html-keyboard-response","20","656543","0.0-2.0-2.0-0.5","kl5bt2s0kyvdsfw","practice_no_cue","5f32b358c70f5001e1225ba2","5f60e3c0a3b16e07647b2ff9","5f63803887554506481580ad","false","null","<span style=""color: black; font-size: 48px"">N + M</span>","null","","","","resp_prompt","","","","","","","","","","","","","","","",""
"categorize-image","21","657891","0.0-2.0-2.0-1.5","kl5bt2s0kyvdsfw","practice_no_cue","5f32b358c70f5001e1225ba2","5f60e3c0a3b16e07647b2ff9","5f63803887554506481580ad","true","823.0949999997392","./Stimuli/ImagesPractice/LM143.jpg","83","","","","test","false","N + M","76","","LM","LM143.jpg","forget","old","6","1","start","left","","","",""
"html-keyboard-response","22","658605","0.0-2.0-2.0-0.6","kl5bt2s0kyvdsfw","practice_no_cue","5f32b358c70f5001e1225ba2","5f60e3c0a3b16e07647b2ff9","5f63803887554506481580ad","false","null","<span style=""color: black; font-size: 48px"">N + M</span>","null","","","","resp_prompt","","","","","","","","","","","","","","","",""
"categorize-image","23","660693","0.0-2.0-2.0-1.6","kl5bt2s0kyvdsfw","practice_no_cue","5f32b358c70f5001e1225ba2","5f60e3c0a3b16e07647b2ff9","5f63803887554506481580ad","true","1464.1800000099465","./Stimuli/ImagesPractice/SN221.jpg","83","","","","test","true","N + M","83","","SN","SN221.jpg","forget","old","7","1","start","left","","","",""
"html-keyboard-response","24","661401","0.0-2.0-2.0-0.7","kl5bt2s0kyvdsfw","practice_no_cue","5f32b358c70f5001e1225ba2","5f60e3c0a3b16e07647b2ff9","5f63803887554506481580ad","false","null","<span style=""color: black; font-size: 48px"">N + M</span>","null","","","","resp_prompt","","","","","","","","","","","","","","","",""
"categorize-image","25","662664","0.0-2.0-2.0-1.7","kl5bt2s0kyvdsfw","practice_no_cue","5f32b358c70f5001e1225ba2","5f60e3c0a3b16e07647b2ff9","5f63803887554506481580ad","true","741.4850000059232","./Stimuli/ImagesPractice/LM55.jpg","76","","","","test","true","N + M","76","","LM","LM55.jpg","forget","old","8","1","start","right","","","",""
"html-keyboard-response","26","663369","0.0-2.0-2.0-0.8","kl5bt2s0kyvdsfw","practice_no_cue","5f32b358c70f5001e1225ba2","5f60e3c0a3b16e07647b2ff9","5f63803887554506481580ad","false","null","<span style=""color: black; font-size: 48px"">M + N</span>","null","","","","resp_prompt","","","","","","","","","","","","","","","",""
"categorize-image","27","664574","0.0-2.0-2.0-1.8","kl5bt2s0kyvdsfw","practice_no_cue","5f32b358c70f5001e1225ba2","5f60e3c0a3b16e07647b2ff9","5f63803887554506481580ad","true","693.6550000100397","./Stimuli/ImagesPractice/SM97.jpg","76","","","","test","false","M + N","83","","SM","SM97.jpg","forget","old","9","1","start","right","","","",""
"html-keyboard-response","28","665279","0.0-2.0-2.0-0.9","kl5bt2s0kyvdsfw","practice_no_cue","5f32b358c70f5001e1225ba2","5f60e3c0a3b16e07647b2ff9","5f63803887554506481580ad","false","null","<span style=""color: black; font-size: 48px"">N + M</span>","null","","","","resp_prompt","","","","","","","","","","","","","","","",""
"categorize-image","29","666545","0.0-2.0-2.0-1.9","kl5bt2s0kyvdsfw","practice_no_cue","5f32b358c70f5001e1225ba2","5f60e3c0a3b16e07647b2ff9","5f63803887554506481580ad","true","750.2000000094995","./Stimuli/ImagesPractice/LM239.jpg","83","","","","test","false","N + M","76","","LM","LM239.jpg","remember","old","10","1","start","left","","","",""
"html-keyboard-response","30","667260","0.0-2.0-2.0-0.10","kl5bt2s0kyvdsfw","practice_no_cue","5f32b358c70f5001e1225ba2","5f60e3c0a3b16e07647b2ff9","5f63803887554506481580ad","false","null","<span style=""color: black; font-size: 48px"">N + M</span>","null","","","","resp_prompt","","","","","","","","","","","","","","","",""
"categorize-image","31","668627","0.0-2.0-2.0-1.10","kl5bt2s0kyvdsfw","practice_no_cue","5f32b358c70f5001e1225ba2","5f60e3c0a3b16e07647b2ff9","5f63803887554506481580ad","true","852.9200000339188","./Stimuli/ImagesPractice/SM35.jpg","76","","","","test","true","N + M","76","","SM","SM35.jpg","remember","old","11","1","start","right","","","",""
"html-keyboard-response","32","669332","0.0-2.0-2.0-0.11","kl5bt2s0kyvdsfw","practice_no_cue","5f32b358c70f5001e1225ba2","5f60e3c0a3b16e07647b2ff9","5f63803887554506481580ad","false","null","<span style=""color: black; font-size: 48px"">N + M</span>","null","","","","resp_prompt","","","","","","","","","","","","","","","",""
"categorize-image","33","670766","0.0-2.0-2.0-1.11","kl5bt2s0kyvdsfw","practice_no_cue","5f32b358c70f5001e1225ba2","5f60e3c0a3b16e07647b2ff9","5f63803887554506481580ad","true","909.8099999828264","./Stimuli/ImagesPractice/LN15.jpg","83","","","","test","true","N + M","83","","LN","LN15.jpg","forget","old","12","1","start","left","","","",""
"html-keyboard-response","34","671487","0.0-2.0-2.0-0.12","kl5bt2s0kyvdsfw","practice_no_cue","5f32b358c70f5001e1225ba2","5f60e3c0a3b16e07647b2ff9","5f63803887554506481580ad","false","null","<span style=""color: black; font-size: 48px"">N + M</span>","null","","","","resp_prompt","","","","","","","","","","","","","","","",""
"categorize-image","35","672989","0.0-2.0-2.0-1.12","kl5bt2s0kyvdsfw","practice_no_cue","5f32b358c70f5001e1225ba2","5f60e3c0a3b16e07647b2ff9","5f63803887554506481580ad","true","992.0299999648705","./Stimuli/ImagesPractice/LN72.jpg","83","","","","test","true","N + M","83","","LN","LN72.jpg","remember","old","13","1","start","left","","","",""
"html-keyboard-response","36","673703","0.0-2.0-2.0-0.13","kl5bt2s0kyvdsfw","practice_no_cue","5f32b358c70f5001e1225ba2","5f60e3c0a3b16e07647b2ff9","5f63803887554506481580ad","false","null","<span style=""color: black; font-size: 48px"">M + N</span>","null","","","","resp_prompt","","","","","","","","","","","","","","","",""
"categorize-image","37","675354","0.0-2.0-2.0-1.13","kl5bt2s0kyvdsfw","practice_no_cue","5f32b358c70f5001e1225ba2","5f60e3c0a3b16e07647b2ff9","5f63803887554506481580ad","true","1138.314999989234","./Stimuli/ImagesPractice/LM230.jpg","83","","","","test","true","M + N","83","","LM","LM230.jpg","forget","old","14","1","start","left","","","",""
"html-keyboard-response","38","676059","0.0-2.0-2.0-0.14","kl5bt2s0kyvdsfw","practice_no_cue","5f32b358c70f5001e1225ba2","5f60e3c0a3b16e07647b2ff9","5f63803887554506481580ad","false","null","<span style=""color: black; font-size: 48px"">M + N</span>","null","","","","resp_prompt","","","","","","","","","","","","","","","",""
"categorize-image","39","677336","0.0-2.0-2.0-1.14","kl5bt2s0kyvdsfw","practice_no_cue","5f32b358c70f5001e1225ba2","5f60e3c0a3b16e07647b2ff9","5f63803887554506481580ad","true","754.5050000189804","./Stimuli/ImagesPractice/SM62.jpg","83","","","","test","true","M + N","83","","SM","SM62.jpg","forget","old","15","1","start","left","","","",""
"html-keyboard-response","40","678042","0.0-2.0-2.0-0.15","kl5bt2s0kyvdsfw","practice_no_cue","5f32b358c70f5001e1225ba2","5f60e3c0a3b16e07647b2ff9","5f63803887554506481580ad","false","null","<span style=""color: black; font-size: 48px"">M + N</span>","null","","","","resp_prompt","","","","","","","","","","","","","","","",""
"categorize-image","41","679440","0.0-2.0-2.0-1.15","kl5bt2s0kyvdsfw","practice_no_cue","5f32b358c70f5001e1225ba2","5f60e3c0a3b16e07647b2ff9","5f63803887554506481580ad","true","882.3199999751523","./Stimuli/ImagesPractice/LN17.jpg","76","","","","test","true","M + N","76","","LN","LN17.jpg","remember","old","16","1","start","right","","","",""
"html-keyboard-response","42","684214","0.0-2.0-3.0","kl5bt2s0kyvdsfw","break","5f32b358c70f5001e1225ba2","5f60e3c0a3b16e07647b2ff9","5f63803887554506481580ad","false","4758.3449999801815","<p style='font-size: 32px;'>Break</><br><br><br><br><br><p style='font-size: 24px;'>In the last block, you committed 6 errors and did not respond in time on 1 trials.
</p><p style='font-size: 24px;'>Try to respond as fast and accurately as possible in the next block as well! </p><p style='font-size: 24px;'>Press SPACE to continue.</p>","32","","","","","","","","","","","","","","","","","","","",""
"html-keyboard-response","43","688711","0.0-2.0-4.0","kl5bt2s0kyvdsfw","instructions","5f32b358c70f5001e1225ba2","5f60e3c0a3b16e07647b2ff9","5f63803887554506481580ad","false","4484.7699999809265","<div align=left> Great!<br><br>Are you ready to continue?<br><br>If you want to reread the instructions and redo the practice trials, <br>please press „Z“. <br><br>Press SPACE to CONTINUE with the experiment when you are ready. </div>","32","","","","","","","","","","","","","","","","","","","",""
"html-keyboard-response","44","716137","0.0-3.0-0.0","kl5bt2s0kyvdsfw","instructions","5f32b358c70f5001e1225ba2","5f60e3c0a3b16e07647b2ff9","5f63803887554506481580ad","false","27417.93499997584","<div align=left>Great!<br> <strong>Attention</strong>! You will now receive a second, additional task! <br><br>To this point it was you <strong>first task</strong> to correctly <strong>classify objects</strong>. <br><br>As mentioned in the beginning, we aim to examine how well humans can remember previously learned information.<br>We would like to find out whether our memory improves if we only remember information that is relevant to us. <br><br>Therefore, your <strong>second task</strong> will be to <strong>remember</strong> the pictures you are to categorize. <br> After the learning phase, there will be a memory test phase, in which you will be asked to indicate whether you have seen a picture before or not. <br>Some, but not all pictures shown in the learning phase will appear in the memory test phase.<br>After classifying a picture, you will be told whether you should remember it for the memory test phase or not. <br>Thus, some pictures can be forgotten, whereas others have to be remembered. <br><br>Note: From now on, feedback will only be displayed if you responded incorrectly or not in time.<br><br>Press SPACE to continue.</div>","32","","","","","","","","","","","","","","","","","","","",""
"html-keyboard-response","45","737838","0.0-3.0-1.0","kl5bt2s0kyvdsfw","instructions","5f32b358c70f5001e1225ba2","5f60e3c0a3b16e07647b2ff9","5f63803887554506481580ad","false","21693.610000016633","<div align=left>In the following part, you will thus have to remember only some pictures. <br>Immediately after seeing and classifying the picture, a symbol will be displayed, indicating whether you should remember or forget the previous picture. <br><br>A <span style='color: dodgerblue; font-size: 28px'>O</span> indicates REMEMBER. That means, you have to remember this picture, because it will be tested later. <br><br>A <span style='color: darkorange; font-size:28px'>Ø</span> indicates FORGET. You do not have to remember this picture. <br><br> As you will have to remember a lot of pictures, it will be hard for you to remember all of them. <br>It will put you at an advantage if you instantly forget the pictures you are not asked to remember. <br> This will make it easier for you to remember the pictures that will be tested afterwards. <br><br>Press SPACE to continue.</div>","32","","","","","","","","","","","","","","","","","","","",""
"html-keyboard-response","46","746270","0.0-3.0-2.0","kl5bt2s0kyvdsfw","instructions","5f32b358c70f5001e1225ba2","5f60e3c0a3b16e07647b2ff9","5f63803887554506481580ad","false","8423.285000026226","<div align=left> Now you have the chance to practice both tasks together.<br><br>Remember: <br> <br><li>Please place your index fingers on the <strong>'S'</strong> and <strong>'L'</strong> keys <br>to respond as fast and accurately as possible.</li><li>Every picture can be classified as either mechanical or non-mechanical.</li><li>If you do not respond in time or commit an error, you will receive a corresponding feedback. <br>Please try to respond as <strong> fast </strong> and as <strong> accurately as possible </strong>.</li><li> Please remember only the to-be-remembered <span style='color: dodgerblue; font-size: 28px'>O</span> pictures. <br></li><li> Please minimize distractions and stay focused. </li><br><br>Press SPACE to START</div>","32","","","","","","","","","","","","","","","","","","","",""
"html-keyboard-response","47","746982","0.0-3.0-3.0-0.0","kl5bt2s0kyvdsfw","practice_cue","5f32b358c70f5001e1225ba2","5f60e3c0a3b16e07647b2ff9","5f63803887554506481580ad","false","null","<span style=""color: black; font-size: 48px"">M + N</span>","null","","","","resp_prompt","","","","","","","","","","","","","","","",""
"categorize-image","48","747996","0.0-3.0-3.0-1.0","kl5bt2s0kyvdsfw","practice_cue","5f32b358c70f5001e1225ba2","5f60e3c0a3b16e07647b2ff9","5f63803887554506481580ad","true","987.2800000011921","./Stimuli/ImagesPractice/SN75.jpg","76","","","","test","true","M + N","76","","SN","SN75.jpg","remember","old","17","2","practice_forget","right","","","",""
"html-keyboard-response","49","750017","0.0-3.0-3.0-3.0","kl5bt2s0kyvdsfw","practice_cue","5f32b358c70f5001e1225ba2","5f60e3c0a3b16e07647b2ff9","5f63803887554506481580ad","false","null","<div style=""align-items: center; display: flex; color: dodgerblue; font-size: 90px""><b>o</b></div>","null","","","","forget_cue","","","","","","","","","","","","","","","",""
"html-keyboard-response","50","750732","0.0-3.0-3.0-0.1","kl5bt2s0kyvdsfw","practice_cue","5f32b358c70f5001e1225ba2","5f60e3c0a3b16e07647b2ff9","5f63803887554506481580ad","false","null","<span style=""color: black; font-size: 48px"">N + M</span>","null","","","","resp_prompt","","","","","","","","","","","","","","","",""
"categorize-image","51","752761","0.0-3.0-3.0-1.1","kl5bt2s0kyvdsfw","practice_cue","5f32b358c70f5001e1225ba2","5f60e3c0a3b16e07647b2ff9","5f63803887554506481580ad","true","null","./Stimuli/ImagesPractice/LN15.jpg","null","","","","test","false","N + M","83","","LN","LN15.jpg","forget","old","18","2","practice_forget","too_slow","","","",""
"html-keyboard-response","52","753274","0.0-3.0-3.0-2.1-0.1","kl5bt2s0kyvdsfw","practice_cue","5f32b358c70f5001e1225ba2","5f60e3c0a3b16e07647b2ff9","5f63803887554506481580ad","false","null","<span style=""color: red; font-size: 48px"">Too slow!</span>","null","","","","feedback","","","","","","","","","","","","","","","",""
"html-keyboard-response","53","755283","0.0-3.0-3.0-3.1","kl5bt2s0kyvdsfw","practice_cue","5f32b358c70f5001e1225ba2","5f60e3c0a3b16e07647b2ff9","5f63803887554506481580ad","false","null","<div style=""align-items: center; display: flex; color: darkorange; font-size: 90px""><b>ø</b></div>","null","","","","forget_cue","","","","","","","","","","","","","","","",""
"html-keyboard-response","54","755991","0.0-3.0-3.0-0.2","kl5bt2s0kyvdsfw","practice_cue","5f32b358c70f5001e1225ba2","5f60e3c0a3b16e07647b2ff9","5f63803887554506481580ad","false","null","<span style=""color: black; font-size: 48px"">M + N</span>","null","","","","resp_prompt","","","","","","","","","","","","","","","",""
"categorize-image","55","756688","0.0-3.0-3.0-1.2","kl5bt2s0kyvdsfw","practice_cue","5f32b358c70f5001e1225ba2","5f60e3c0a3b16e07647b2ff9","5f63803887554506481580ad","true","672.9650000343099","./Stimuli/ImagesPractice/SM62.jpg","83","","","","test","true","M + N","83","","SM","SM62.jpg","forget","old","19","2","practice_forget","left","","","",""
"html-keyboard-response","56","758698","0.0-3.0-3.0-3.2","kl5bt2s0kyvdsfw","practice_cue","5f32b358c70f5001e1225ba2","5f60e3c0a3b16e07647b2ff9","5f63803887554506481580ad","false","null","<div style=""align-items: center; display: flex; color: darkorange; font-size: 90px""><b>ø</b></div>","null","","","","forget_cue","","","","","","","","","","","","","","","",""
"html-keyboard-response","57","759402","0.0-3.0-3.0-0.3","kl5bt2s0kyvdsfw","practice_cue","5f32b358c70f5001e1225ba2","5f60e3c0a3b16e07647b2ff9","5f63803887554506481580ad","false","null","<span style=""color: black; font-size: 48px"">N + M</span>","null","","","","resp_prompt","","","","","","","","","","","","","","","",""
"categorize-image","58","760026","0.0-3.0-3.0-1.3","kl5bt2s0kyvdsfw","practice_cue","5f32b358c70f5001e1225ba2","5f60e3c0a3b16e07647b2ff9","5f63803887554506481580ad","true","596.9850000110455","./Stimuli/ImagesPractice/LM143.jpg","76","","","","test","true","N + M","76","","LM","LM143.jpg","forget","old","20","2","practice_forget","right","","","",""
"html-keyboard-response","59","762043","0.0-3.0-3.0-3.3","kl5bt2s0kyvdsfw","practice_cue","5f32b358c70f5001e1225ba2","5f60e3c0a3b16e07647b2ff9","5f63803887554506481580ad","false","null","<div style=""align-items: center; display: flex; color: darkorange; font-size: 90px""><b>ø</b></div>","null","","","","forget_cue","","","","","","","","","","","","","","","",""
"html-keyboard-response","60","762759","0.0-3.0-3.0-0.4","kl5bt2s0kyvdsfw","practice_cue","5f32b358c70f5001e1225ba2","5f60e3c0a3b16e07647b2ff9","5f63803887554506481580ad","false","null","<span style=""color: black; font-size: 48px"">N + M</span>","null","","","","resp_prompt","","","","","","","","","","","","","","","",""
"categorize-image","61","763422","0.0-3.0-3.0-1.4","kl5bt2s0kyvdsfw","practice_cue","5f32b358c70f5001e1225ba2","5f60e3c0a3b16e07647b2ff9","5f63803887554506481580ad","true","635.5749999638647","./Stimuli/ImagesPractice/LN72.jpg","83","","","","test","true","N + M","83","","LN","LN72.jpg","remember","old","21","2","practice_forget","left","","","",""
"html-keyboard-response","62","765438","0.0-3.0-3.0-3.4","kl5bt2s0kyvdsfw","practice_cue","5f32b358c70f5001e1225ba2","5f60e3c0a3b16e07647b2ff9","5f63803887554506481580ad","false","null","<div style=""align-items: center; display: flex; color: dodgerblue; font-size: 90px""><b>o</b></div>","null","","","","forget_cue","","","","","","","","","","","","","","","",""
"html-keyboard-response","63","766152","0.0-3.0-3.0-0.5","kl5bt2s0kyvdsfw","practice_cue","5f32b358c70f5001e1225ba2","5f60e3c0a3b16e07647b2ff9","5f63803887554506481580ad","false","null","<span style=""color: black; font-size: 48px"">M + N</span>","null","","","","resp_prompt","","","","","","","","","","","","","","","",""
"categorize-image","64","766976","0.0-3.0-3.0-1.5","kl5bt2s0kyvdsfw","practice_cue","5f32b358c70f5001e1225ba2","5f60e3c0a3b16e07647b2ff9","5f63803887554506481580ad","true","801.2299999827519","./Stimuli/ImagesPractice/LM224.jpg","83","","","","test","true","M + N","83","","LM","LM224.jpg","remember","old","22","2","practice_forget","left","","","",""
"html-keyboard-response","65","768996","0.0-3.0-3.0-3.5","kl5bt2s0kyvdsfw","practice_cue","5f32b358c70f5001e1225ba2","5f60e3c0a3b16e07647b2ff9","5f63803887554506481580ad","false","null","<div style=""align-items: center; display: flex; color: dodgerblue; font-size: 90px""><b>o</b></div>","null","","","","forget_cue","","","","","","","","","","","","","","","",""
"html-keyboard-response","66","769719","0.0-3.0-3.0-0.6","kl5bt2s0kyvdsfw","practice_cue","5f32b358c70f5001e1225ba2","5f60e3c0a3b16e07647b2ff9","5f63803887554506481580ad","false","null","<span style=""color: black; font-size: 48px"">M + N</span>","null","","","","resp_prompt","","","","","","","","","","","","","","","",""
"categorize-image","67","770403","0.0-3.0-3.0-1.6","kl5bt2s0kyvdsfw","practice_cue","5f32b358c70f5001e1225ba2","5f60e3c0a3b16e07647b2ff9","5f63803887554506481580ad","true","657.7500000130385","./Stimuli/ImagesPractice/LN17.jpg","76","","","","test","true","M + N","76","","LN","LN17.jpg","remember","old","23","2","practice_forget","right","","","",""
"html-keyboard-response","68","772408","0.0-3.0-3.0-3.6","kl5bt2s0kyvdsfw","practice_cue","5f32b358c70f5001e1225ba2","5f60e3c0a3b16e07647b2ff9","5f63803887554506481580ad","false","null","<div style=""align-items: center; display: flex; color: dodgerblue; font-size: 90px""><b>o</b></div>","null","","","","forget_cue","","","","","","","","","","","","","","","",""
"html-keyboard-response","69","773110","0.0-3.0-3.0-0.7","kl5bt2s0kyvdsfw","practice_cue","5f32b358c70f5001e1225ba2","5f60e3c0a3b16e07647b2ff9","5f63803887554506481580ad","false","null","<span style=""color: black; font-size: 48px"">M + N</span>","null","","","","resp_prompt","","","","","","","","","","","","","","","",""
"categorize-image","70","773774","0.0-3.0-3.0-1.7","kl5bt2s0kyvdsfw","practice_cue","5f32b358c70f5001e1225ba2","5f60e3c0a3b16e07647b2ff9","5f63803887554506481580ad","true","650.02000000095","./Stimuli/ImagesPractice/SM97.jpg","83","","","","test","true","M + N","83","","SM","SM97.jpg","forget","old","24","2","practice_forget","left","","","",""
"html-keyboard-response","71","775782","0.0-3.0-3.0-3.7","kl5bt2s0kyvdsfw","practice_cue","5f32b358c70f5001e1225ba2","5f60e3c0a3b16e07647b2ff9","5f63803887554506481580ad","false","null","<div style=""align-items: center; display: flex; color: darkorange; font-size: 90px""><b>ø</b></div>","null","","","","forget_cue","","","","","","","","","","","","","","","",""
"html-keyboard-response","72","776487","0.0-3.0-3.0-0.8","kl5bt2s0kyvdsfw","practice_cue","5f32b358c70f5001e1225ba2","5f60e3c0a3b16e07647b2ff9","5f63803887554506481580ad","false","null","<span style=""color: black; font-size: 48px"">N + M</span>","null","","","","resp_prompt","","","","","","","","","","","","","","","",""
"categorize-image","73","777107","0.0-3.0-3.0-1.8","kl5bt2s0kyvdsfw","practice_cue","5f32b358c70f5001e1225ba2","5f60e3c0a3b16e07647b2ff9","5f63803887554506481580ad","true","595.9250000305474","./Stimuli/ImagesPractice/SM35.jpg","76","","","","test","true","N + M","76","","SM","SM35.jpg","remember","old","25","2","practice_forget","right","","","",""
"html-keyboard-response","74","779114","0.0-3.0-3.0-3.8","kl5bt2s0kyvdsfw","practice_cue","5f32b358c70f5001e1225ba2","5f60e3c0a3b16e07647b2ff9","5f63803887554506481580ad","false","null","<div style=""align-items: center; display: flex; color: dodgerblue; font-size: 90px""><b>o</b></div>","null","","","","forget_cue","","","","","","","","","","","","","","","",""
"html-keyboard-response","75","779820","0.0-3.0-3.0-0.9","kl5bt2s0kyvdsfw","practice_cue","5f32b358c70f5001e1225ba2","5f60e3c0a3b16e07647b2ff9","5f63803887554506481580ad","false","null","<span style=""color: black; font-size: 48px"">N + M</span>","null","","","","resp_prompt","","","","","","","","","","","","","","","",""
"categorize-image","76","780425","0.0-3.0-3.0-1.9","kl5bt2s0kyvdsfw","practice_cue","5f32b358c70f5001e1225ba2","5f60e3c0a3b16e07647b2ff9","5f63803887554506481580ad","true","583.7499999906868","./Stimuli/ImagesPractice/LM239.jpg","83","","","","test","false","N + M","76","","LM","LM239.jpg","remember","old","26","2","practice_forget","left","","","",""
"html-keyboard-response","77","780943","0.0-3.0-3.0-2.9-0.9","kl5bt2s0kyvdsfw","practice_cue","5f32b358c70f5001e1225ba2","5f60e3c0a3b16e07647b2ff9","5f63803887554506481580ad","false","null","<span style=""color: red; font-size: 48px"">Error!</span>","null","","","","feedback","","","","","","","","","","","","","","","",""
"html-keyboard-response","78","782973","0.0-3.0-3.0-3.9","kl5bt2s0kyvdsfw","practice_cue","5f32b358c70f5001e1225ba2","5f60e3c0a3b16e07647b2ff9","5f63803887554506481580ad","false","null","<div style=""align-items: center; display: flex; color: dodgerblue; font-size: 90px""><b>o</b></div>","null","","","","forget_cue","","","","","","","","","","","","","","","",""
"html-keyboard-response","79","783677","0.0-3.0-3.0-0.10","kl5bt2s0kyvdsfw","practice_cue","5f32b358c70f5001e1225ba2","5f60e3c0a3b16e07647b2ff9","5f63803887554506481580ad","false","null","<span style=""color: black; font-size: 48px"">M + N</span>","null","","","","resp_prompt","","","","","","","","","","","","","","","",""
"categorize-image","80","784186","0.0-3.0-3.0-1.10","kl5bt2s0kyvdsfw","practice_cue","5f32b358c70f5001e1225ba2","5f60e3c0a3b16e07647b2ff9","5f63803887554506481580ad","true","484.7700000391342","./Stimuli/ImagesPractice/LM147.jpg","83","","","","test","true","M + N","83","","LM","LM147.jpg","remember","old","27","2","practice_forget","left","","","",""
"html-keyboard-response","81","786201","0.0-3.0-3.0-3.10","kl5bt2s0kyvdsfw","practice_cue","5f32b358c70f5001e1225ba2","5f60e3c0a3b16e07647b2ff9","5f63803887554506481580ad","false","null","<div style=""align-items: center; display: flex; color: dodgerblue; font-size: 90px""><b>o</b></div>","null","","","","forget_cue","","","","","","","","","","","","","","","",""
"html-keyboard-response","82","786909","0.0-3.0-3.0-0.11","kl5bt2s0kyvdsfw","practice_cue","5f32b358c70f5001e1225ba2","5f60e3c0a3b16e07647b2ff9","5f63803887554506481580ad","false","null","<span style=""color: black; font-size: 48px"">N + M</span>","null","","","","resp_prompt","","","","","","","","","","","","","","","",""
"categorize-image","83","787447","0.0-3.0-3.0-1.11","kl5bt2s0kyvdsfw","practice_cue","5f32b358c70f5001e1225ba2","5f60e3c0a3b16e07647b2ff9","5f63803887554506481580ad","true","514.5299999858253","./Stimuli/ImagesPractice/SM37.jpg","76","","","","test","true","N + M","76","","SM","SM37.jpg","remember","old","28","2","practice_forget","right","","","",""
"html-keyboard-response","84","789454","0.0-3.0-3.0-3.11","kl5bt2s0kyvdsfw","practice_cue","5f32b358c70f5001e1225ba2","5f60e3c0a3b16e07647b2ff9","5f63803887554506481580ad","false","null","<div style=""align-items: center; display: flex; color: dodgerblue; font-size: 90px""><b>o</b></div>","null","","","","forget_cue","","","","","","","","","","","","","","","",""
"html-keyboard-response","85","790169","0.0-3.0-3.0-0.12","kl5bt2s0kyvdsfw","practice_cue","5f32b358c70f5001e1225ba2","5f60e3c0a3b16e07647b2ff9","5f63803887554506481580ad","false","null","<span style=""color: black; font-size: 48px"">N + M</span>","null","","","","resp_prompt","","","","","","","","","","","","","","","",""
"categorize-image","86","790812","0.0-3.0-3.0-1.12","kl5bt2s0kyvdsfw","practice_cue","5f32b358c70f5001e1225ba2","5f60e3c0a3b16e07647b2ff9","5f63803887554506481580ad","true","618.8499999698251","./Stimuli/ImagesPractice/SN221.jpg","83","","","","test","true","N + M","83","","SN","SN221.jpg","forget","old","29","2","practice_forget","left","","","",""
"html-keyboard-response","87","792831","0.0-3.0-3.0-3.12","kl5bt2s0kyvdsfw","practice_cue","5f32b358c70f5001e1225ba2","5f60e3c0a3b16e07647b2ff9","5f63803887554506481580ad","false","null","<div style=""align-items: center; display: flex; color: darkorange; font-size: 90px""><b>ø</b></div>","null","","","","forget_cue","","","","","","","","","","","","","","","",""
"html-keyboard-response","88","793546","0.0-3.0-3.0-0.13","kl5bt2s0kyvdsfw","practice_cue","5f32b358c70f5001e1225ba2","5f60e3c0a3b16e07647b2ff9","5f63803887554506481580ad","false","null","<span style=""color: black; font-size: 48px"">M + N</span>","null","","","","resp_prompt","","","","","","","","","","","","","","","",""
"categorize-image","89","794386","0.0-3.0-3.0-1.13","kl5bt2s0kyvdsfw","practice_cue","5f32b358c70f5001e1225ba2","5f60e3c0a3b16e07647b2ff9","5f63803887554506481580ad","true","814.2200000002049","./Stimuli/ImagesPractice/LM230.jpg","83","","","","test","true","M + N","83","","LM","LM230.jpg","forget","old","30","2","practice_forget","left","","","",""
"html-keyboard-response","90","796391","0.0-3.0-3.0-3.13","kl5bt2s0kyvdsfw","practice_cue","5f32b358c70f5001e1225ba2","5f60e3c0a3b16e07647b2ff9","5f63803887554506481580ad","false","null","<div style=""align-items: center; display: flex; color: darkorange; font-size: 90px""><b>ø</b></div>","null","","","","forget_cue","","","","","","","","","","","","","","","",""
"html-keyboard-response","91","797107","0.0-3.0-3.0-0.14","kl5bt2s0kyvdsfw","practice_cue","5f32b358c70f5001e1225ba2","5f60e3c0a3b16e07647b2ff9","5f63803887554506481580ad","false","null","<span style=""color: black; font-size: 48px"">M + N</span>","null","","","","resp_prompt","","","","","","","","","","","","","","","",""
"categorize-image","92","797865","0.0-3.0-3.0-1.14","kl5bt2s0kyvdsfw","practice_cue","5f32b358c70f5001e1225ba2","5f60e3c0a3b16e07647b2ff9","5f63803887554506481580ad","true","731.1699999845587","./Stimuli/ImagesPractice/SN222.jpg","76","","","","test","true","M + N","76","","SN","SN222.jpg","forget","old","31","2","practice_forget","right","","","",""
"html-keyboard-response","93","799875","0.0-3.0-3.0-3.14","kl5bt2s0kyvdsfw","practice_cue","5f32b358c70f5001e1225ba2","5f60e3c0a3b16e07647b2ff9","5f63803887554506481580ad","false","null","<div style=""align-items: center; display: flex; color: darkorange; font-size: 90px""><b>ø</b></div>","null","","","","forget_cue","","","","","","","","","","","","","","","",""
"html-keyboard-response","94","800582","0.0-3.0-3.0-0.15","kl5bt2s0kyvdsfw","practice_cue","5f32b358c70f5001e1225ba2","5f60e3c0a3b16e07647b2ff9","5f63803887554506481580ad","false","null","<span style=""color: black; font-size: 48px"">N + M</span>","null","","","","resp_prompt","","","","","","","","","","","","","","","",""
"categorize-image","95","801279","0.0-3.0-3.0-1.15","kl5bt2s0kyvdsfw","practice_cue","5f32b358c70f5001e1225ba2","5f60e3c0a3b16e07647b2ff9","5f63803887554506481580ad","true","670.589999994263","./Stimuli/ImagesPractice/LM55.jpg","76","","","","test","true","N + M","76","","LM","LM55.jpg","forget","old","32","2","practice_forget","right","","","",""
"html-keyboard-response","96","803289","0.0-3.0-3.0-3.15","kl5bt2s0kyvdsfw","practice_cue","5f32b358c70f5001e1225ba2","5f60e3c0a3b16e07647b2ff9","5f63803887554506481580ad","false","null","<div style=""align-items: center; display: flex; color: darkorange; font-size: 90px""><b>ø</b></div>","null","","","","forget_cue","","","","","","","","","","","","","","","",""
"html-keyboard-response","97","806418","0.0-3.0-4.0","kl5bt2s0kyvdsfw","break","5f32b358c70f5001e1225ba2","5f60e3c0a3b16e07647b2ff9","5f63803887554506481580ad","false","3118.4749999665655","<p style='font-size: 32px;'>Break</><br><br><br><br><br><p style='font-size: 24px;'>In the last block, you committed 1 errors and did not respond in time on 1 trials.
</p><p style='font-size: 24px;'>Try to respond as fast and accurately as possible in the next block as well! </p><p style='font-size: 24px;'>Press SPACE to continue.</p>","32","","","","","","","","","","","","","","","","","","","",""
"html-keyboard-response","98","823073","0.0-3.0-5.0","kl5bt2s0kyvdsfw","instructions","5f32b358c70f5001e1225ba2","5f60e3c0a3b16e07647b2ff9","5f63803887554506481580ad","false","16647.624999983236","<div align=left> Now, to practice, we kindly ask you to remember as many of the to-be-remembered pictures<br>of the previous learning phase as possible.<br><br>The pictures you were instructed to remember were the pictures followed by a <span style='color: dodgerblue; font-size: 28px'>O</span>.<br><br>In this memory test phase, you will also see some new pictures.<br>It is your task to remember whether you were presented with this specific picture in this study so far or not.<br>If you recognize an object (you have already seen it in this study), it is an OLD object. <br>If you do not recognize an object (you have NOT seen it in this study), it is a NEW object. <br><strong> Attention</strong>: As already mentioned, <span style='color: darkorange; font-size:28px'>Ø</span>-pictures will <strong>never</strong> appear in this memory test (neither as new objects). <br><br>Press SPACE to continue. </div>","32","","","","","","","","","","","","","","","","","","","",""
"html-keyboard-response","99","870735","0.0-3.0-6.0","kl5bt2s0kyvdsfw","instructions","5f32b358c70f5001e1225ba2","5f60e3c0a3b16e07647b2ff9","5f63803887554506481580ad","false","47653.81500002695","<div align=left> M and N no longer will appear on the left/right of the fixation cross. <br>Instead there will be a note at the bottom of the left or right side  <br>indicating which key you should press for an old or new object:  <br> <br>Press the <strong>right</strong> key to classify an object as <strong>old</strong> and press the <strong>left</strong>, to classify an object as <strong>new</strong>.<br>Please classify the objects as new/old by again placing your index finger on the 'S' and 'L' keys <br>and press them accordingly.<br><br><strong>Old:</strong> This object has been presented before. <br><strong>New:</strong> This object has <strong>not</strong> been presented.<br><br>Now please put your right and left index fingers on the 'S' and 'L' keys of your keyboard. <br>Please respond as fast and as accurately as possible!<br><br>Press SPACE to continue. </div>","32","","","","","","","","","","","","","","","","","","","",""
"categorize-image","100","875454","0.0-3.0-7.0-0.0","kl5bt2s0kyvdsfw","practice_recog","5f32b358c70f5001e1225ba2","5f60e3c0a3b16e07647b2ff9","5f63803887554506481580ad","true","4200.23499999661","./Stimuli/ImagesPractice/SM37.jpg","76","","","","test","true","","76","","SM","SM37.jpg","","old","33","3","practice_recog","right","","","",""
"categorize-image","101","876904","0.0-3.0-7.0-0.1","kl5bt2s0kyvdsfw","practice_recog","5f32b358c70f5001e1225ba2","5f60e3c0a3b16e07647b2ff9","5f63803887554506481580ad","true","918.8699999940582","./Stimuli/ImagesPractice/LM224.jpg","76","","","","test","true","","76","","LM","LM224.jpg","","old","34","3","practice_recog","right","","","",""
"categorize-image","102","878114","0.0-3.0-7.0-0.2","kl5bt2s0kyvdsfw","practice_recog","5f32b358c70f5001e1225ba2","5f60e3c0a3b16e07647b2ff9","5f63803887554506481580ad","true","696.3600000017323","./Stimuli/ImagesPractice/SN205.jpg","83","","","","test","true","","83","","SN","SN205.jpg","","new","35","3","practice_recog","left","","","",""
"categorize-image","103","879270","0.0-3.0-7.0-0.3","kl5bt2s0kyvdsfw","practice_recog","5f32b358c70f5001e1225ba2","5f60e3c0a3b16e07647b2ff9","5f63803887554506481580ad","true","631.6499999957159","./Stimuli/ImagesPractice/SN76.jpg","83","","","","test","true","","83","","SN","SN76.jpg","","new","36","3","practice_recog","left","","","",""
"categorize-image","104","880483","0.0-3.0-7.0-0.4","kl5bt2s0kyvdsfw","practice_recog","5f32b358c70f5001e1225ba2","5f60e3c0a3b16e07647b2ff9","5f63803887554506481580ad","true","701.1949999723583","./Stimuli/ImagesPractice/LM147.jpg","76","","","","test","true","","76","","LM","LM147.jpg","","old","37","3","practice_recog","right","","","",""
"categorize-image","105","881639","0.0-3.0-7.0-0.5","kl5bt2s0kyvdsfw","practice_recog","5f32b358c70f5001e1225ba2","5f60e3c0a3b16e07647b2ff9","5f63803887554506481580ad","true","642.504999996163","./Stimuli/ImagesPractice/SM35.jpg","76","","","","test","true","","76","","SM","SM35.jpg","","old","38","3","practice_recog","right","","","",""
"categorize-image","106","883229","0.0-3.0-7.0-0.6","kl5bt2s0kyvdsfw","practice_recog","5f32b358c70f5001e1225ba2","5f60e3c0a3b16e07647b2ff9","5f63803887554506481580ad","true","1075.2750000101514","./Stimuli/ImagesPractice/SN75.jpg","83","","","","test","false","","76","","SN","SN75.jpg","","old","39","3","practice_recog","left","","","",""
"categorize-image","107","884906","0.0-3.0-7.0-0.7","kl5bt2s0kyvdsfw","practice_recog","5f32b358c70f5001e1225ba2","5f60e3c0a3b16e07647b2ff9","5f63803887554506481580ad","true","1155.754999956116","./Stimuli/ImagesPractice/SM61.jpg","83","","","","test","true","","83","","SM","SM61.jpg","","new","40","3","practice_recog","left","","","",""
"categorize-image","108","886504","0.0-3.0-7.0-0.8","kl5bt2s0kyvdsfw","practice_recog","5f32b358c70f5001e1225ba2","5f60e3c0a3b16e07647b2ff9","5f63803887554506481580ad","true","1086.249999993015","./Stimuli/ImagesPractice/LN72.jpg","83","","","","test","false","","76","","LN","LN72.jpg","","old","41","3","practice_recog","left","","","",""
"categorize-image","109","888569","0.0-3.0-7.0-0.9","kl5bt2s0kyvdsfw","practice_recog","5f32b358c70f5001e1225ba2","5f60e3c0a3b16e07647b2ff9","5f63803887554506481580ad","true","1554.2699999641627","./Stimuli/ImagesPractice/LN109.jpg","83","","","","test","true","","83","","LN","LN109.jpg","","new","42","3","practice_recog","left","","","",""
"categorize-image","110","889861","0.0-3.0-7.0-0.10","kl5bt2s0kyvdsfw","practice_recog","5f32b358c70f5001e1225ba2","5f60e3c0a3b16e07647b2ff9","5f63803887554506481580ad","true","776.7250000033528","./Stimuli/ImagesPractice/SN220.jpg","83","","","","test","true","","83","","SN","SN220.jpg","","new","43","3","practice_recog","left","","","",""
"categorize-image","111","891599","0.0-3.0-7.0-0.11","kl5bt2s0kyvdsfw","practice_recog","5f32b358c70f5001e1225ba2","5f60e3c0a3b16e07647b2ff9","5f63803887554506481580ad","true","1225.109999999404","./Stimuli/ImagesPractice/SM98.jpg","83","","","","test","true","","83","","SM","SM98.jpg","","new","44","3","practice_recog","left","","","",""
"categorize-image","112","892806","0.0-3.0-7.0-0.12","kl5bt2s0kyvdsfw","practice_recog","5f32b358c70f5001e1225ba2","5f60e3c0a3b16e07647b2ff9","5f63803887554506481580ad","true","680.1350000314415","./Stimuli/ImagesPractice/LN4.jpg","83","","","","test","true","","83","","LN","LN4.jpg","","new","45","3","practice_recog","left","","","",""
"categorize-image","113","894075","0.0-3.0-7.0-0.13","kl5bt2s0kyvdsfw","practice_recog","5f32b358c70f5001e1225ba2","5f60e3c0a3b16e07647b2ff9","5f63803887554506481580ad","true","753.9350000442937","./Stimuli/ImagesPractice/LN2.jpg","83","","","","test","true","","83","","LN","LN2.jpg","","new","46","3","practice_recog","left","","","",""
"categorize-image","114","895454","0.0-3.0-7.0-0.14","kl5bt2s0kyvdsfw","practice_recog","5f32b358c70f5001e1225ba2","5f60e3c0a3b16e07647b2ff9","5f63803887554506481580ad","true","866.6299999458715","./Stimuli/ImagesPractice/LN17.jpg","76","","","","test","true","","76","","LN","LN17.jpg","","old","47","3","practice_recog","right","","","",""
"categorize-image","115","896714","0.0-3.0-7.0-0.15","kl5bt2s0kyvdsfw","practice_recog","5f32b358c70f5001e1225ba2","5f60e3c0a3b16e07647b2ff9","5f63803887554506481580ad","true","746.1100000073202","./Stimuli/ImagesPractice/LM239.jpg","76","","","","test","true","","76","","LM","LM239.jpg","","old","48","3","practice_recog","right","","","",""
"html-keyboard-response","116","900366","0.0-3.0-8.0","kl5bt2s0kyvdsfw","instructions","5f32b358c70f5001e1225ba2","5f60e3c0a3b16e07647b2ff9","5f63803887554506481580ad","false","3646.5700000408106","<div align=left> Great!<br><br>Are you ready to continue?<br>If you want to reread the instructions and redo the practice trials, please <br>press „Z“.<br><br>You can proceed when you are ready.<br><br>After the presentation of each object, you will receive an instruction whether to <br>remember or to forget the object.<br>We will test your memory of the following pictures only at the very end of <br>the experiment after all learning blocks are completed. <br><br>Press SPACE to CONTINUE when you are ready. </div>","32","","","","","","","","","","","","","","","","","","","",""
"html-keyboard-response","117","906348","0.0-4.0-0.0","kl5bt2s0kyvdsfw","instructions","5f32b358c70f5001e1225ba2","5f60e3c0a3b16e07647b2ff9","5f63803887554506481580ad","false","5967.535000003409","<div align=left> The actual experiment is about to start.<br>The practice trials are over!<br><br>Please always respond both fast and accurately!<br><br>Remember: <br> <br><li> Please place your index fingers on the <strong>'S'</strong> and <strong>'L'</strong> keys <br>to respond as fast and accurately as possible.</li><li> Every picture can be classified as either mechanical or non-mechanical.</li><li> If you do not respond in time or commit an error, you will receive a corresponding feedback.<br> Please try to respond as <strong> fast </strong> and as <strong> accurately as possible </strong>.</li><li> Remember the <span style='color: dodgerblue; font-size: 28px'>O</span> pictures. <br></li><li> Please minimize distractions and stay focused. </li><br><br>Press SPACE to START.</div>","32","","","","","","","","","","","","","","","","","","","",""
"html-keyboard-response","118","907065","0.0-4.0-1.0-0.0","kl5bt2s0kyvdsfw","prime","5f32b358c70f5001e1225ba2","5f60e3c0a3b16e07647b2ff9","5f63803887554506481580ad","false","null","<span style=""color: black; font-size: 48px"">N + M</span>","null","","","","resp_prompt","","","","","","","","","","","","","","","",""
"categorize-image","119","908065","0.0-4.0-1.0-1.0","kl5bt2s0kyvdsfw","prime","5f32b358c70f5001e1225ba2","5f60e3c0a3b16e07647b2ff9","5f63803887554506481580ad","true","973.6149999662302","./Stimuli/SelectedImages/SN/SN27.bmp","83","","","","test","true","N + M","83","switch","SN","SN27.bmp","remember","","49","3","prime1","left","","","",""
"html-keyboard-response","120","910081","0.0-4.0-1.0-3.0","kl5bt2s0kyvdsfw","prime","5f32b358c70f5001e1225ba2","5f60e3c0a3b16e07647b2ff9","5f63803887554506481580ad","false","null","<div style=""align-items: center; display: flex; color: dodgerblue; font-size: 90px""><b>o</b></div>","null","","","","forget_cue","","","","","","","","","","","","","","","",""
"html-keyboard-response","121","910799","0.0-4.0-1.0-0.1","kl5bt2s0kyvdsfw","prime","5f32b358c70f5001e1225ba2","5f60e3c0a3b16e07647b2ff9","5f63803887554506481580ad","false","null","<span style=""color: black; font-size: 48px"">N + M</span>","null","","","","resp_prompt","","","","","","","","","","","","","","","",""
"categorize-image","122","911794","0.0-4.0-1.0-1.1","kl5bt2s0kyvdsfw","prime","5f32b358c70f5001e1225ba2","5f60e3c0a3b16e07647b2ff9","5f63803887554506481580ad","true","973.9849999896251","./Stimuli/SelectedImages/LN/LN42.bmp","83","","","","test","true","N + M","83","repetition","LN","LN42.bmp","forget","","50","3","prime1","left","","","",""
"html-keyboard-response","123","913802","0.0-4.0-1.0-3.1","kl5bt2s0kyvdsfw","prime","5f32b358c70f5001e1225ba2","5f60e3c0a3b16e07647b2ff9","5f63803887554506481580ad","false","null","<div style=""align-items: center; display: flex; color: darkorange; font-size: 90px""><b>ø</b></div>","null","","","","forget_cue","","","","","","","","","","","","","","","",""
"html-keyboard-response","124","914506","0.0-4.0-1.0-0.2","kl5bt2s0kyvdsfw","prime","5f32b358c70f5001e1225ba2","5f60e3c0a3b16e07647b2ff9","5f63803887554506481580ad","false","null","<span style=""color: black; font-size: 48px"">M + N</span>","null","","","","resp_prompt","","","","","","","","","","","","","","","",""
"categorize-image","125","915276","0.0-4.0-1.0-1.2","kl5bt2s0kyvdsfw","prime","5f32b358c70f5001e1225ba2","5f60e3c0a3b16e07647b2ff9","5f63803887554506481580ad","true","746.8449999578297","./Stimuli/SelectedImages/LN/LN28.bmp","76","","","","test","true","M + N","76","repetition","LN","LN28.bmp","forget","","51","3","prime1","right","","","",""
"html-keyboard-response","126","917292","0.0-4.0-1.0-3.2","kl5bt2s0kyvdsfw","prime","5f32b358c70f5001e1225ba2","5f60e3c0a3b16e07647b2ff9","5f63803887554506481580ad","false","null","<div style=""align-items: center; display: flex; color: darkorange; font-size: 90px""><b>ø</b></div>","null","","","","forget_cue","","","","","","","","","","","","","","","",""
"html-keyboard-response","127","918002","0.0-4.0-1.0-0.3","kl5bt2s0kyvdsfw","prime","5f32b358c70f5001e1225ba2","5f60e3c0a3b16e07647b2ff9","5f63803887554506481580ad","false","null","<span style=""color: black; font-size: 48px"">N + M</span>","null","","","","resp_prompt","","","","","","","","","","","","","","","",""
"categorize-image","128","919102","0.0-4.0-1.0-1.3","kl5bt2s0kyvdsfw","prime","5f32b358c70f5001e1225ba2","5f60e3c0a3b16e07647b2ff9","5f63803887554506481580ad","true","1075.104999996256","./Stimuli/SelectedImages/SN/SN181.bmp","83","","","","test","true","N + M","83","switch","SN","SN181.bmp","forget","","52","3","prime1","left","","","",""
"html-keyboard-response","129","921119","0.0-4.0-1.0-3.3","kl5bt2s0kyvdsfw","prime","5f32b358c70f5001e1225ba2","5f60e3c0a3b16e07647b2ff9","5f63803887554506481580ad","false","null","<div style=""align-items: center; display: flex; color: darkorange; font-size: 90px""><b>ø</b></div>","null","","","","forget_cue","","","","","","","","","","","","","","","",""
"html-keyboard-response","130","921837","0.0-4.0-1.0-0.4","kl5bt2s0kyvdsfw","prime","5f32b358c70f5001e1225ba2","5f60e3c0a3b16e07647b2ff9","5f63803887554506481580ad","false","null","<span style=""color: black; font-size: 48px"">M + N</span>","null","","","","resp_prompt","","","","","","","","","","","","","","","",""
"categorize-image","131","922873","0.0-4.0-1.0-1.4","kl5bt2s0kyvdsfw","prime","5f32b358c70f5001e1225ba2","5f60e3c0a3b16e07647b2ff9","5f63803887554506481580ad","true","1010.2650000480935","./Stimuli/SelectedImages/LN/LN150.bmp","76","","","","test","true","M + N","76","switch","LN","LN150.bmp","forget","","53","3","prime1","right","","","",""
"html-keyboard-response","132","924890","0.0-4.0-1.0-3.4","kl5bt2s0kyvdsfw","prime","5f32b358c70f5001e1225ba2","5f60e3c0a3b16e07647b2ff9","5f63803887554506481580ad","false","null","<div style=""align-items: center; display: flex; color: darkorange; font-size: 90px""><b>ø</b></div>","null","","","","forget_cue","","","","","","","","","","","","","","","",""
"html-keyboard-response","133","925608","0.0-4.0-1.0-0.5","kl5bt2s0kyvdsfw","prime","5f32b358c70f5001e1225ba2","5f60e3c0a3b16e07647b2ff9","5f63803887554506481580ad","false","null","<span style=""color: black; font-size: 48px"">M + N</span>","null","","","","resp_prompt","","","","","","","","","","","","","","","",""
"categorize-image","134","926302","0.0-4.0-1.0-1.5","kl5bt2s0kyvdsfw","prime","5f32b358c70f5001e1225ba2","5f60e3c0a3b16e07647b2ff9","5f63803887554506481580ad","true","669.4550000247546","./Stimuli/SelectedImages/LM/LM59.bmp","83","","","","test","true","M + N","83","repetition","LM","LM59.bmp","remember","","54","3","prime1","left","","","",""
"html-keyboard-response","135","928312","0.0-4.0-1.0-3.5","kl5bt2s0kyvdsfw","prime","5f32b358c70f5001e1225ba2","5f60e3c0a3b16e07647b2ff9","5f63803887554506481580ad","false","null","<div style=""align-items: center; display: flex; color: dodgerblue; font-size: 90px""><b>o</b></div>","null","","","","forget_cue","","","","","","","","","","","","","","","",""
"html-keyboard-response","136","929030","0.0-4.0-1.0-0.6","kl5bt2s0kyvdsfw","prime","5f32b358c70f5001e1225ba2","5f60e3c0a3b16e07647b2ff9","5f63803887554506481580ad","false","null","<span style=""color: black; font-size: 48px"">N + M</span>","null","","","","resp_prompt","","","","","","","","","","","","","","","",""
"categorize-image","137","929689","0.0-4.0-1.0-1.6","kl5bt2s0kyvdsfw","prime","5f32b358c70f5001e1225ba2","5f60e3c0a3b16e07647b2ff9","5f63803887554506481580ad","true","633.7799999746494","./Stimuli/SelectedImages/LN/LN59.bmp","83","","","","test","true","N + M","83","repetition","LN","LN59.bmp","forget","","55","3","prime1","left","","","",""
"html-keyboard-response","138","931703","0.0-4.0-1.0-3.6","kl5bt2s0kyvdsfw","prime","5f32b358c70f5001e1225ba2","5f60e3c0a3b16e07647b2ff9","5f63803887554506481580ad","false","null","<div style=""align-items: center; display: flex; color: darkorange; font-size: 90px""><b>ø</b></div>","null","","","","forget_cue","","","","","","","","","","","","","","","",""
"html-keyboard-response","139","932409","0.0-4.0-1.0-0.7","kl5bt2s0kyvdsfw","prime","5f32b358c70f5001e1225ba2","5f60e3c0a3b16e07647b2ff9","5f63803887554506481580ad","false","null","<span style=""color: black; font-size: 48px"">N + M</span>","null","","","","resp_prompt","","","","","","","","","","","","","","","",""
"categorize-image","140","933488","0.0-4.0-1.0-1.7","kl5bt2s0kyvdsfw","prime","5f32b358c70f5001e1225ba2","5f60e3c0a3b16e07647b2ff9","5f63803887554506481580ad","true","1056.0199999599718","./Stimuli/SelectedImages/SM/SM108.bmp","76","","","","test","true","N + M","76","switch","SM","SM108.bmp","remember","","56","3","prime1","right","","","",""
"html-keyboard-response","141","935496","0.0-4.0-1.0-3.7","kl5bt2s0kyvdsfw","prime","5f32b358c70f5001e1225ba2","5f60e3c0a3b16e07647b2ff9","5f63803887554506481580ad","false","null","<div style=""align-items: center; display: flex; color: dodgerblue; font-size: 90px""><b>o</b></div>","null","","","","forget_cue","","","","","","","","","","","","","","","",""
"html-keyboard-response","142","936212","0.0-4.0-1.0-0.8","kl5bt2s0kyvdsfw","prime","5f32b358c70f5001e1225ba2","5f60e3c0a3b16e07647b2ff9","5f63803887554506481580ad","false","null","<span style=""color: black; font-size: 48px"">N + M</span>","null","","","","resp_prompt","","","","","","","","","","","","","","","",""
"categorize-image","143","936887","0.0-4.0-1.0-1.8","kl5bt2s0kyvdsfw","prime","5f32b358c70f5001e1225ba2","5f60e3c0a3b16e07647b2ff9","5f63803887554506481580ad","true","652.5450000190176","./Stimuli/SelectedImages/LM/LM129.bmp","76","","","","test","true","N + M","76","repetition","LM","LM129.bmp","remember","","57","3","prime1","right","","","",""
"html-keyboard-response","144","938895","0.0-4.0-1.0-3.8","kl5bt2s0kyvdsfw","prime","5f32b358c70f5001e1225ba2","5f60e3c0a3b16e07647b2ff9","5f63803887554506481580ad","false","null","<div style=""align-items: center; display: flex; color: dodgerblue; font-size: 90px""><b>o</b></div>","null","","","","forget_cue","","","","","","","","","","","","","","","",""
"html-keyboard-response","145","939608","0.0-4.0-1.0-0.9","kl5bt2s0kyvdsfw","prime","5f32b358c70f5001e1225ba2","5f60e3c0a3b16e07647b2ff9","5f63803887554506481580ad","false","null","<span style=""color: black; font-size: 48px"">M + N</span>","null","","","","resp_prompt","","","","","","","","","","","","","","","",""
"categorize-image","146","940251","0.0-4.0-1.0-1.9","kl5bt2s0kyvdsfw","prime","5f32b358c70f5001e1225ba2","5f60e3c0a3b16e07647b2ff9","5f63803887554506481580ad","true","618.1349999969825","./Stimuli/SelectedImages/SN/SN240.bmp","76","","","","test","true","M + N","76","repetition","SN","SN240.bmp","remember","","58","3","prime1","right","","","",""
"html-keyboard-response","147","942270","0.0-4.0-1.0-3.9","kl5bt2s0kyvdsfw","prime","5f32b358c70f5001e1225ba2","5f60e3c0a3b16e07647b2ff9","5f63803887554506481580ad","false","null","<div style=""align-items: center; display: flex; color: dodgerblue; font-size: 90px""><b>o</b></div>","null","","","","forget_cue","","","","","","","","","","","","","","","",""
"html-keyboard-response","148","942976","0.0-4.0-1.0-0.10","kl5bt2s0kyvdsfw","prime","5f32b358c70f5001e1225ba2","5f60e3c0a3b16e07647b2ff9","5f63803887554506481580ad","false","null","<span style=""color: black; font-size: 48px"">M + N</span>","null","","","","resp_prompt","","","","","","","","","","","","","","","",""
"categorize-image","149","943538","0.0-4.0-1.0-1.10","kl5bt2s0kyvdsfw","prime","5f32b358c70f5001e1225ba2","5f60e3c0a3b16e07647b2ff9","5f63803887554506481580ad","true","539.7849999717437","./Stimuli/SelectedImages/LM/LM157.bmp","83","","","","test","true","M + N","83","switch","LM","LM157.bmp","remember","","59","3","prime1","left","","","",""
"html-keyboard-response","150","945545","0.0-4.0-1.0-3.10","kl5bt2s0kyvdsfw","prime","5f32b358c70f5001e1225ba2","5f60e3c0a3b16e07647b2ff9","5f63803887554506481580ad","false","null","<div style=""align-items: center; display: flex; color: dodgerblue; font-size: 90px""><b>o</b></div>","null","","","","forget_cue","","","","","","","","","","","","","","","",""
"html-keyboard-response","151","946252","0.0-4.0-1.0-0.11","kl5bt2s0kyvdsfw","prime","5f32b358c70f5001e1225ba2","5f60e3c0a3b16e07647b2ff9","5f63803887554506481580ad","false","null","<span style=""color: black; font-size: 48px"">M + N</span>","null","","","","resp_prompt","","","","","","","","","","","","","","","",""
"categorize-image","152","946825","0.0-4.0-1.0-1.11","kl5bt2s0kyvdsfw","prime","5f32b358c70f5001e1225ba2","5f60e3c0a3b16e07647b2ff9","5f63803887554506481580ad","true","550.1850000000559","./Stimuli/SelectedImages/SN/SN18.bmp","76","","","","test","true","M + N","76","switch","SN","SN18.bmp","forget","","60","3","prime1","right","","","",""
"html-keyboard-response","153","948833","0.0-4.0-1.0-3.11","kl5bt2s0kyvdsfw","prime","5f32b358c70f5001e1225ba2","5f60e3c0a3b16e07647b2ff9","5f63803887554506481580ad","false","null","<div style=""align-items: center; display: flex; color: darkorange; font-size: 90px""><b>ø</b></div>","null","","","","forget_cue","","","","","","","","","","","","","","","",""
"html-keyboard-response","154","949538","0.0-4.0-1.0-0.12","kl5bt2s0kyvdsfw","prime","5f32b358c70f5001e1225ba2","5f60e3c0a3b16e07647b2ff9","5f63803887554506481580ad","false","null","<span style=""color: black; font-size: 48px"">M + N</span>","null","","","","resp_prompt","","","","","","","","","","","","","","","",""
"categorize-image","155","950167","0.0-4.0-1.0-1.12","kl5bt2s0kyvdsfw","prime","5f32b358c70f5001e1225ba2","5f60e3c0a3b16e07647b2ff9","5f63803887554506481580ad","true","605.5849999538623","./Stimuli/SelectedImages/SM/SM128.bmp","83","","","","test","true","M + N","83","switch","SM","SM128.bmp","forget","","61","3","prime1","left","","","",""
"html-keyboard-response","156","952187","0.0-4.0-1.0-3.12","kl5bt2s0kyvdsfw","prime","5f32b358c70f5001e1225ba2","5f60e3c0a3b16e07647b2ff9","5f63803887554506481580ad","false","null","<div style=""align-items: center; display: flex; color: darkorange; font-size: 90px""><b>ø</b></div>","null","","","","forget_cue","","","","","","","","","","","","","","","",""
"html-keyboard-response","157","952892","0.0-4.0-1.0-0.13","kl5bt2s0kyvdsfw","prime","5f32b358c70f5001e1225ba2","5f60e3c0a3b16e07647b2ff9","5f63803887554506481580ad","false","null","<span style=""color: black; font-size: 48px"">N + M</span>","null","","","","resp_prompt","","","","","","","","","","","","","","","",""
"categorize-image","158","953624","0.0-4.0-1.0-1.13","kl5bt2s0kyvdsfw","prime","5f32b358c70f5001e1225ba2","5f60e3c0a3b16e07647b2ff9","5f63803887554506481580ad","true","713.3250000188127","./Stimuli/SelectedImages/LN/LN13.bmp","76","","","","test","false","N + M","83","switch","LN","LN13.bmp","remember","","62","3","prime1","right","","","",""
"html-keyboard-response","159","954141","0.0-4.0-1.0-2.13-0.13","kl5bt2s0kyvdsfw","prime","5f32b358c70f5001e1225ba2","5f60e3c0a3b16e07647b2ff9","5f63803887554506481580ad","false","null","<span style=""color: red; font-size: 48px"">Error!</span>","null","","","","feedback","","","","","","","","","","","","","","","",""
"html-keyboard-response","160","956150","0.0-4.0-1.0-3.13","kl5bt2s0kyvdsfw","prime","5f32b358c70f5001e1225ba2","5f60e3c0a3b16e07647b2ff9","5f63803887554506481580ad","false","null","<div style=""align-items: center; display: flex; color: dodgerblue; font-size: 90px""><b>o</b></div>","null","","","","forget_cue","","","","","","","","","","","","","","","",""
"html-keyboard-response","161","956868","0.0-4.0-1.0-0.14","kl5bt2s0kyvdsfw","prime","5f32b358c70f5001e1225ba2","5f60e3c0a3b16e07647b2ff9","5f63803887554506481580ad","false","null","<span style=""color: black; font-size: 48px"">N + M</span>","null","","","","resp_prompt","","","","","","","","","","","","","","","",""
"categorize-image","162","957447","0.0-4.0-1.0-1.14","kl5bt2s0kyvdsfw","prime","5f32b358c70f5001e1225ba2","5f60e3c0a3b16e07647b2ff9","5f63803887554506481580ad","true","554.8500000149943","./Stimuli/SelectedImages/SN/SN93.bmp","83","","","","test","true","N + M","83","repetition","SN","SN93.bmp","remember","","63","3","prime1","left","","","",""
"html-keyboard-response","163","959469","0.0-4.0-1.0-3.14","kl5bt2s0kyvdsfw","prime","5f32b358c70f5001e1225ba2","5f60e3c0a3b16e07647b2ff9","5f63803887554506481580ad","false","null","<div style=""align-items: center; display: flex; color: dodgerblue; font-size: 90px""><b>o</b></div>","null","","","","forget_cue","","","","","","","","","","","","","","","",""
"html-keyboard-response","164","960180","0.0-4.0-1.0-0.15","kl5bt2s0kyvdsfw","prime","5f32b358c70f5001e1225ba2","5f60e3c0a3b16e07647b2ff9","5f63803887554506481580ad","false","null","<span style=""color: black; font-size: 48px"">N + M</span>","null","","","","resp_prompt","","","","","","","","","","","","","","","",""
"categorize-image","165","960709","0.0-4.0-1.0-1.15","kl5bt2s0kyvdsfw","prime","5f32b358c70f5001e1225ba2","5f60e3c0a3b16e07647b2ff9","5f63803887554506481580ad","true","501.1950000189245","./Stimuli/SelectedImages/LM/LM179.bmp","76","","","","test","true","N + M","76","switch","LM","LM179.bmp","remember","","64","3","prime1","right","","","",""
"html-keyboard-response","166","962717","0.0-4.0-1.0-3.15","kl5bt2s0kyvdsfw","prime","5f32b358c70f5001e1225ba2","5f60e3c0a3b16e07647b2ff9","5f63803887554506481580ad","false","null","<div style=""align-items: center; display: flex; color: dodgerblue; font-size: 90px""><b>o</b></div>","null","","","","forget_cue","","","","","","","","","","","","","","","",""
"html-keyboard-response","167","963421","0.0-4.0-1.0-0.16","kl5bt2s0kyvdsfw","prime","5f32b358c70f5001e1225ba2","5f60e3c0a3b16e07647b2ff9","5f63803887554506481580ad","false","null","<span style=""color: black; font-size: 48px"">M + N</span>","null","","","","resp_prompt","","","","","","","","","","","","","","","",""
"categorize-image","168","964002","0.0-4.0-1.0-1.16","kl5bt2s0kyvdsfw","prime","5f32b358c70f5001e1225ba2","5f60e3c0a3b16e07647b2ff9","5f63803887554506481580ad","true","556.4950000261888","./Stimuli/SelectedImages/LN/LN149.bmp","76","","","","test","true","M + N","76","switch","LN","LN149.bmp","remember","","65","3","prime1","right","","","",""
"html-keyboard-response","169","966013","0.0-4.0-1.0-3.16","kl5bt2s0kyvdsfw","prime","5f32b358c70f5001e1225ba2","5f60e3c0a3b16e07647b2ff9","5f63803887554506481580ad","false","null","<div style=""align-items: center; display: flex; color: dodgerblue; font-size: 90px""><b>o</b></div>","null","","","","forget_cue","","","","","","","","","","","","","","","",""
"html-keyboard-response","170","966719","0.0-4.0-1.0-0.17","kl5bt2s0kyvdsfw","prime","5f32b358c70f5001e1225ba2","5f60e3c0a3b16e07647b2ff9","5f63803887554506481580ad","false","null","<span style=""color: black; font-size: 48px"">M + N</span>","null","","","","resp_prompt","","","","","","","","","","","","","","","",""
"categorize-image","171","967458","0.0-4.0-1.0-1.17","kl5bt2s0kyvdsfw","prime","5f32b358c70f5001e1225ba2","5f60e3c0a3b16e07647b2ff9","5f63803887554506481580ad","true","716.6549999965355","./Stimuli/SelectedImages/LN/LN82.bmp","76","","","","test","true","M + N","76","repetition","LN","LN82.bmp","forget","","66","3","prime1","right","","","",""
"html-keyboard-response","172","969471","0.0-4.0-1.0-3.17","kl5bt2s0kyvdsfw","prime","5f32b358c70f5001e1225ba2","5f60e3c0a3b16e07647b2ff9","5f63803887554506481580ad","false","null","<div style=""align-items: center; display: flex; color: darkorange; font-size: 90px""><b>ø</b></div>","null","","","","forget_cue","","","","","","","","","","","","","","","",""
"html-keyboard-response","173","970177","0.0-4.0-1.0-0.18","kl5bt2s0kyvdsfw","prime","5f32b358c70f5001e1225ba2","5f60e3c0a3b16e07647b2ff9","5f63803887554506481580ad","false","null","<span style=""color: black; font-size: 48px"">M + N</span>","null","","","","resp_prompt","","","","","","","","","","","","","","","",""
"categorize-image","174","970832","0.0-4.0-1.0-1.18","kl5bt2s0kyvdsfw","prime","5f32b358c70f5001e1225ba2","5f60e3c0a3b16e07647b2ff9","5f63803887554506481580ad","true","630.0100000225939","./Stimuli/SelectedImages/LN/LN101.bmp","76","","","","test","true","M + N","76","repetition","LN","LN101.bmp","remember","","67","3","prime1","right","","","",""
"html-keyboard-response","175","972852","0.0-4.0-1.0-3.18","kl5bt2s0kyvdsfw","prime","5f32b358c70f5001e1225ba2","5f60e3c0a3b16e07647b2ff9","5f63803887554506481580ad","false","null","<div style=""align-items: center; display: flex; color: dodgerblue; font-size: 90px""><b>o</b></div>","null","","","","forget_cue","","","","","","","","","","","","","","","",""
"html-keyboard-response","176","973558","0.0-4.0-1.0-0.19","kl5bt2s0kyvdsfw","prime","5f32b358c70f5001e1225ba2","5f60e3c0a3b16e07647b2ff9","5f63803887554506481580ad","false","null","<span style=""color: black; font-size: 48px"">N + M</span>","null","","","","resp_prompt","","","","","","","","","","","","","","","",""
"categorize-image","177","974120","0.0-4.0-1.0-1.19","kl5bt2s0kyvdsfw","prime","5f32b358c70f5001e1225ba2","5f60e3c0a3b16e07647b2ff9","5f63803887554506481580ad","true","533.9999999850988","./Stimuli/SelectedImages/LM/LM167.bmp","76","","","","test","true","N + M","76","switch","LM","LM167.bmp","forget","","68","3","prime1","right","","","",""
"html-keyboard-response","178","976128","0.0-4.0-1.0-3.19","kl5bt2s0kyvdsfw","prime","5f32b358c70f5001e1225ba2","5f60e3c0a3b16e07647b2ff9","5f63803887554506481580ad","false","null","<div style=""align-items: center; display: flex; color: darkorange; font-size: 90px""><b>ø</b></div>","null","","","","forget_cue","","","","","","","","","","","","","","","",""
"html-keyboard-response","179","976851","0.0-4.0-1.0-0.20","kl5bt2s0kyvdsfw","prime","5f32b358c70f5001e1225ba2","5f60e3c0a3b16e07647b2ff9","5f63803887554506481580ad","false","null","<span style=""color: black; font-size: 48px"">N + M</span>","null","","","","resp_prompt","","","","","","","","","","","","","","","",""
"categorize-image","180","977404","0.0-4.0-1.0-1.20","kl5bt2s0kyvdsfw","prime","5f32b358c70f5001e1225ba2","5f60e3c0a3b16e07647b2ff9","5f63803887554506481580ad","true","523.2449999894015","./Stimuli/SelectedImages/LN/LN92.bmp","83","","","","test","true","N + M","83","switch","LN","LN92.bmp","forget","","69","3","prime1","left","","","",""
"html-keyboard-response","181","979411","0.0-4.0-1.0-3.20","kl5bt2s0kyvdsfw","prime","5f32b358c70f5001e1225ba2","5f60e3c0a3b16e07647b2ff9","5f63803887554506481580ad","false","null","<div style=""align-items: center; display: flex; color: darkorange; font-size: 90px""><b>ø</b></div>","null","","","","forget_cue","","","","","","","","","","","","","","","",""
"html-keyboard-response","182","980123","0.0-4.0-1.0-0.21","kl5bt2s0kyvdsfw","prime","5f32b358c70f5001e1225ba2","5f60e3c0a3b16e07647b2ff9","5f63803887554506481580ad","false","null","<span style=""color: black; font-size: 48px"">M + N</span>","null","","","","resp_prompt","","","","","","","","","","","","","","","",""
"categorize-image","183","980763","0.0-4.0-1.0-1.21","kl5bt2s0kyvdsfw","prime","5f32b358c70f5001e1225ba2","5f60e3c0a3b16e07647b2ff9","5f63803887554506481580ad","true","615.224999957718","./Stimuli/SelectedImages/LM/LM100.bmp","83","","","","test","true","M + N","83","repetition","LM","LM100.bmp","forget","","70","3","prime1","left","","","",""
"html-keyboard-response","184","982783","0.0-4.0-1.0-3.21","kl5bt2s0kyvdsfw","prime","5f32b358c70f5001e1225ba2","5f60e3c0a3b16e07647b2ff9","5f63803887554506481580ad","false","null","<div style=""align-items: center; display: flex; color: darkorange; font-size: 90px""><b>ø</b></div>","null","","","","forget_cue","","","","","","","","","","","","","","","",""
"html-keyboard-response","185","983487","0.0-4.0-1.0-0.22","kl5bt2s0kyvdsfw","prime","5f32b358c70f5001e1225ba2","5f60e3c0a3b16e07647b2ff9","5f63803887554506481580ad","false","null","<span style=""color: black; font-size: 48px"">M + N</span>","null","","","","resp_prompt","","","","","","","","","","","","","","","",""
"categorize-image","186","984042","0.0-4.0-1.0-1.22","kl5bt2s0kyvdsfw","prime","5f32b358c70f5001e1225ba2","5f60e3c0a3b16e07647b2ff9","5f63803887554506481580ad","true","531.0900000040419","./Stimuli/SelectedImages/LN/LN111.bmp","76","","","","test","true","M + N","76","switch","LN","LN111.bmp","forget","","71","3","prime1","right","","","",""
"html-keyboard-response","187","986058","0.0-4.0-1.0-3.22","kl5bt2s0kyvdsfw","prime","5f32b358c70f5001e1225ba2","5f60e3c0a3b16e07647b2ff9","5f63803887554506481580ad","false","null","<div style=""align-items: center; display: flex; color: darkorange; font-size: 90px""><b>ø</b></div>","null","","","","forget_cue","","","","","","","","","","","","","","","",""
"html-keyboard-response","188","986767","0.0-4.0-1.0-0.23","kl5bt2s0kyvdsfw","prime","5f32b358c70f5001e1225ba2","5f60e3c0a3b16e07647b2ff9","5f63803887554506481580ad","false","null","<span style=""color: black; font-size: 48px"">N + M</span>","null","","","","resp_prompt","","","","","","","","","","","","","","","",""
"categorize-image","189","987416","0.0-4.0-1.0-1.23","kl5bt2s0kyvdsfw","prime","5f32b358c70f5001e1225ba2","5f60e3c0a3b16e07647b2ff9","5f63803887554506481580ad","true","628.4299999824725","./Stimuli/SelectedImages/SM/SM148.bmp","76","","","","test","true","N + M","76","repetition","SM","SM148.bmp","remember","","72","3","prime1","right","","","",""
"html-keyboard-response","190","989423","0.0-4.0-1.0-3.23","kl5bt2s0kyvdsfw","prime","5f32b358c70f5001e1225ba2","5f60e3c0a3b16e07647b2ff9","5f63803887554506481580ad","false","null","<div style=""align-items: center; display: flex; color: dodgerblue; font-size: 90px""><b>o</b></div>","null","","","","forget_cue","","","","","","","","","","","","","","","",""
"html-keyboard-response","191","990130","0.0-4.0-1.0-0.24","kl5bt2s0kyvdsfw","prime","5f32b358c70f5001e1225ba2","5f60e3c0a3b16e07647b2ff9","5f63803887554506481580ad","false","null","<span style=""color: black; font-size: 48px"">N + M</span>","null","","","","resp_prompt","","","","","","","","","","","","","","","",""
"categorize-image","192","990926","0.0-4.0-1.0-1.24","kl5bt2s0kyvdsfw","prime","5f32b358c70f5001e1225ba2","5f60e3c0a3b16e07647b2ff9","5f63803887554506481580ad","true","771.3949999888428","./Stimuli/SelectedImages/LM/LM48.bmp","83","","","","test","false","N + M","76","repetition","LM","LM48.bmp","forget","","73","3","prime1","left","","","",""
"html-keyboard-response","193","991432","0.0-4.0-1.0-2.24-0.24","kl5bt2s0kyvdsfw","prime","5f32b358c70f5001e1225ba2","5f60e3c0a3b16e07647b2ff9","5f63803887554506481580ad","false","null","<span style=""color: red; font-size: 48px"">Error!</span>","null","","","","feedback","","","","","","","","","","","","","","","",""
"html-keyboard-response","194","993436","0.0-4.0-1.0-3.24","kl5bt2s0kyvdsfw","prime","5f32b358c70f5001e1225ba2","5f60e3c0a3b16e07647b2ff9","5f63803887554506481580ad","false","null","<div style=""align-items: center; display: flex; color: darkorange; font-size: 90px""><b>ø</b></div>","null","","","","forget_cue","","","","","","","","","","","","","","","",""
"html-keyboard-response","195","994141","0.0-4.0-1.0-0.25","kl5bt2s0kyvdsfw","prime","5f32b358c70f5001e1225ba2","5f60e3c0a3b16e07647b2ff9","5f63803887554506481580ad","false","null","<span style=""color: black; font-size: 48px"">N + M</span>","null","","","","resp_prompt","","","","","","","","","","","","","","","",""
"categorize-image","196","994754","0.0-4.0-1.0-1.25","kl5bt2s0kyvdsfw","prime","5f32b358c70f5001e1225ba2","5f60e3c0a3b16e07647b2ff9","5f63803887554506481580ad","true","585.0249999784864","./Stimuli/SelectedImages/LN/LN166.bmp","83","","","","test","true","N + M","83","switch","LN","LN166.bmp","remember","","74","3","prime1","left","","","",""
"html-keyboard-response","197","996764","0.0-4.0-1.0-3.25","kl5bt2s0kyvdsfw","prime","5f32b358c70f5001e1225ba2","5f60e3c0a3b16e07647b2ff9","5f63803887554506481580ad","false","null","<div style=""align-items: center; display: flex; color: dodgerblue; font-size: 90px""><b>o</b></div>","null","","","","forget_cue","","","","","","","","","","","","","","","",""
"html-keyboard-response","198","997470","0.0-4.0-1.0-0.26","kl5bt2s0kyvdsfw","prime","5f32b358c70f5001e1225ba2","5f60e3c0a3b16e07647b2ff9","5f63803887554506481580ad","false","null","<span style=""color: black; font-size: 48px"">M + N</span>","null","","","","resp_prompt","","","","","","","","","","","","","","","",""
"categorize-image","199","998003","0.0-4.0-1.0-1.26","kl5bt2s0kyvdsfw","prime","5f32b358c70f5001e1225ba2","5f60e3c0a3b16e07647b2ff9","5f63803887554506481580ad","true","508.8349999859929","./Stimuli/SelectedImages/SM/SM184.bmp","83","","","","test","true","M + N","83","repetition","SM","SM184.bmp","forget","","75","3","prime1","left","","","",""
"html-keyboard-response","200","1000026","0.0-4.0-1.0-3.26","kl5bt2s0kyvdsfw","prime","5f32b358c70f5001e1225ba2","5f60e3c0a3b16e07647b2ff9","5f63803887554506481580ad","false","null","<div style=""align-items: center; display: flex; color: darkorange; font-size: 90px""><b>ø</b></div>","null","","","","forget_cue","","","","","","","","","","","","","","","",""
"html-keyboard-response","201","1000733","0.0-4.0-1.0-0.27","kl5bt2s0kyvdsfw","prime","5f32b358c70f5001e1225ba2","5f60e3c0a3b16e07647b2ff9","5f63803887554506481580ad","false","null","<span style=""color: black; font-size: 48px"">N + M</span>","null","","","","resp_prompt","","","","","","","","","","","","","","","",""
"categorize-image","202","1001411","0.0-4.0-1.0-1.27","kl5bt2s0kyvdsfw","prime","5f32b358c70f5001e1225ba2","5f60e3c0a3b16e07647b2ff9","5f63803887554506481580ad","true","657.210000033956","./Stimuli/SelectedImages/LM/LM209.bmp","76","","","","test","true","N + M","76","repetition","LM","LM209.bmp","forget","","76","3","prime1","right","","","",""
"html-keyboard-response","203","1003420","0.0-4.0-1.0-3.27","kl5bt2s0kyvdsfw","prime","5f32b358c70f5001e1225ba2","5f60e3c0a3b16e07647b2ff9","5f63803887554506481580ad","false","null","<div style=""align-items: center; display: flex; color: darkorange; font-size: 90px""><b>ø</b></div>","null","","","","forget_cue","","","","","","","","","","","","","","","",""
"html-keyboard-response","204","1004135","0.0-4.0-1.0-0.28","kl5bt2s0kyvdsfw","prime","5f32b358c70f5001e1225ba2","5f60e3c0a3b16e07647b2ff9","5f63803887554506481580ad","false","null","<span style=""color: black; font-size: 48px"">M + N</span>","null","","","","resp_prompt","","","","","","","","","","","","","","","",""
"categorize-image","205","1004648","0.0-4.0-1.0-1.28","kl5bt2s0kyvdsfw","prime","5f32b358c70f5001e1225ba2","5f60e3c0a3b16e07647b2ff9","5f63803887554506481580ad","true","489.7249999921769","./Stimuli/SelectedImages/LM/LM216.bmp","83","","","","test","true","M + N","83","switch","LM","LM216.bmp","forget","","77","3","prime1","left","","","",""
"html-keyboard-response","206","1006659","0.0-4.0-1.0-3.28","kl5bt2s0kyvdsfw","prime","5f32b358c70f5001e1225ba2","5f60e3c0a3b16e07647b2ff9","5f63803887554506481580ad","false","null","<div style=""align-items: center; display: flex; color: darkorange; font-size: 90px""><b>ø</b></div>","null","","","","forget_cue","","","","","","","","","","","","","","","",""
"html-keyboard-response","207","1007364","0.0-4.0-1.0-0.29","kl5bt2s0kyvdsfw","prime","5f32b358c70f5001e1225ba2","5f60e3c0a3b16e07647b2ff9","5f63803887554506481580ad","false","null","<span style=""color: black; font-size: 48px"">M + N</span>","null","","","","resp_prompt","","","","","","","","","","","","","","","",""
"categorize-image","208","1008004","0.0-4.0-1.0-1.29","kl5bt2s0kyvdsfw","prime","5f32b358c70f5001e1225ba2","5f60e3c0a3b16e07647b2ff9","5f63803887554506481580ad","true","622.4800000200048","./Stimuli/SelectedImages/LM/LM103.bmp","83","","","","test","true","M + N","83","switch","LM","LM103.bmp","forget","","78","3","prime1","left","","","",""
"html-keyboard-response","209","1010015","0.0-4.0-1.0-3.29","kl5bt2s0kyvdsfw","prime","5f32b358c70f5001e1225ba2","5f60e3c0a3b16e07647b2ff9","5f63803887554506481580ad","false","null","<div style=""align-items: center; display: flex; color: darkorange; font-size: 90px""><b>ø</b></div>","null","","","","forget_cue","","","","","","","","","","","","","","","",""
"html-keyboard-response","210","1010720","0.0-4.0-1.0-0.30","kl5bt2s0kyvdsfw","prime","5f32b358c70f5001e1225ba2","5f60e3c0a3b16e07647b2ff9","5f63803887554506481580ad","false","null","<span style=""color: black; font-size: 48px"">N + M</span>","null","","","","resp_prompt","","","","","","","","","","","","","","","",""
"categorize-image","211","1011364","0.0-4.0-1.0-1.30","kl5bt2s0kyvdsfw","prime","5f32b358c70f5001e1225ba2","5f60e3c0a3b16e07647b2ff9","5f63803887554506481580ad","true","613.3050000062212","./Stimuli/SelectedImages/SM/SM195.bmp","76","","","","test","true","N + M","76","switch","SM","SM195.bmp","remember","","79","3","prime1","right","","","",""
"html-keyboard-response","212","1013371","0.0-4.0-1.0-3.30","kl5bt2s0kyvdsfw","prime","5f32b358c70f5001e1225ba2","5f60e3c0a3b16e07647b2ff9","5f63803887554506481580ad","false","null","<div style=""align-items: center; display: flex; color: dodgerblue; font-size: 90px""><b>o</b></div>","null","","","","forget_cue","","","","","","","","","","","","","","","",""
"html-keyboard-response","213","1014090","0.0-4.0-1.0-0.31","kl5bt2s0kyvdsfw","prime","5f32b358c70f5001e1225ba2","5f60e3c0a3b16e07647b2ff9","5f63803887554506481580ad","false","null","<span style=""color: black; font-size: 48px"">N + M</span>","null","","","","resp_prompt","","","","","","","","","","","","","","","",""
"categorize-image","214","1014658","0.0-4.0-1.0-1.31","kl5bt2s0kyvdsfw","prime","5f32b358c70f5001e1225ba2","5f60e3c0a3b16e07647b2ff9","5f63803887554506481580ad","true","544.3549999617971","./Stimuli/SelectedImages/SN/SN60.bmp","83","","","","test","true","N + M","83","switch","SN","SN60.bmp","remember","","80","3","prime1","left","","","",""
"html-keyboard-response","215","1016669","0.0-4.0-1.0-3.31","kl5bt2s0kyvdsfw","prime","5f32b358c70f5001e1225ba2","5f60e3c0a3b16e07647b2ff9","5f63803887554506481580ad","false","null","<div style=""align-items: center; display: flex; color: dodgerblue; font-size: 90px""><b>o</b></div>","null","","","","forget_cue","","","","","","","","","","","","","","","",""
"html-keyboard-response","216","1017375","0.0-4.0-1.0-0.32","kl5bt2s0kyvdsfw","prime","5f32b358c70f5001e1225ba2","5f60e3c0a3b16e07647b2ff9","5f63803887554506481580ad","false","null","<span style=""color: black; font-size: 48px"">M + N</span>","null","","","","resp_prompt","","","","","","","","","","","","","","","",""
"categorize-image","217","1017986","0.0-4.0-1.0-1.32","kl5bt2s0kyvdsfw","prime","5f32b358c70f5001e1225ba2","5f60e3c0a3b16e07647b2ff9","5f63803887554506481580ad","true","587.6949999947101","./Stimuli/SelectedImages/SN/SN49.bmp","76","","","","test","true","M + N","76","switch","SN","SN49.bmp","remember","","81","3","prime1","right","","","",""
"html-keyboard-response","218","1020001","0.0-4.0-1.0-3.32","kl5bt2s0kyvdsfw","prime","5f32b358c70f5001e1225ba2","5f60e3c0a3b16e07647b2ff9","5f63803887554506481580ad","false","null","<div style=""align-items: center; display: flex; color: dodgerblue; font-size: 90px""><b>o</b></div>","null","","","","forget_cue","","","","","","","","","","","","","","","",""
"html-keyboard-response","219","1020711","0.0-4.0-1.0-0.33","kl5bt2s0kyvdsfw","prime","5f32b358c70f5001e1225ba2","5f60e3c0a3b16e07647b2ff9","5f63803887554506481580ad","false","null","<span style=""color: black; font-size: 48px"">M + N</span>","null","","","","resp_prompt","","","","","","","","","","","","","","","",""
"categorize-image","220","1021349","0.0-4.0-1.0-1.33","kl5bt2s0kyvdsfw","prime","5f32b358c70f5001e1225ba2","5f60e3c0a3b16e07647b2ff9","5f63803887554506481580ad","true","614.9800000130199","./Stimuli/SelectedImages/SN/SN64.bmp","76","","","","test","true","M + N","76","repetition","SN","SN64.bmp","forget","","82","3","prime1","right","","","",""
"html-keyboard-response","221","1023359","0.0-4.0-1.0-3.33","kl5bt2s0kyvdsfw","prime","5f32b358c70f5001e1225ba2","5f60e3c0a3b16e07647b2ff9","5f63803887554506481580ad","false","null","<div style=""align-items: center; display: flex; color: darkorange; font-size: 90px""><b>ø</b></div>","null","","","","forget_cue","","","","","","","","","","","","","","","",""
"html-keyboard-response","222","1024074","0.0-4.0-1.0-0.34","kl5bt2s0kyvdsfw","prime","5f32b358c70f5001e1225ba2","5f60e3c0a3b16e07647b2ff9","5f63803887554506481580ad","false","null","<span style=""color: black; font-size: 48px"">M + N</span>","null","","","","resp_prompt","","","","","","","","","","","","","","","",""
"categorize-image","223","1024806","0.0-4.0-1.0-1.34","kl5bt2s0kyvdsfw","prime","5f32b358c70f5001e1225ba2","5f60e3c0a3b16e07647b2ff9","5f63803887554506481580ad","true","706.6349999513477","./Stimuli/SelectedImages/LN/LN9.bmp","76","","","","test","true","M + N","76","switch","LN","LN9.bmp","remember","","83","3","prime1","right","","","",""
"html-keyboard-response","224","1026814","0.0-4.0-1.0-3.34","kl5bt2s0kyvdsfw","prime","5f32b358c70f5001e1225ba2","5f60e3c0a3b16e07647b2ff9","5f63803887554506481580ad","false","null","<div style=""align-items: center; display: flex; color: dodgerblue; font-size: 90px""><b>o</b></div>","null","","","","forget_cue","","","","","","","","","","","","","","","",""
"html-keyboard-response","225","1027531","0.0-4.0-1.0-0.35","kl5bt2s0kyvdsfw","prime","5f32b358c70f5001e1225ba2","5f60e3c0a3b16e07647b2ff9","5f63803887554506481580ad","false","null","<span style=""color: black; font-size: 48px"">N + M</span>","null","","","","resp_prompt","","","","","","","","","","","","","","","",""
"categorize-image","226","1028298","0.0-4.0-1.0-1.35","kl5bt2s0kyvdsfw","prime","5f32b358c70f5001e1225ba2","5f60e3c0a3b16e07647b2ff9","5f63803887554506481580ad","true","742.6400000113063","./Stimuli/SelectedImages/SM/SM207.bmp","76","","","","test","true","N + M","76","switch","SM","SM207.bmp","forget","","84","3","prime1","right","","","",""
"html-keyboard-response","227","1030311","0.0-4.0-1.0-3.35","kl5bt2s0kyvdsfw","prime","5f32b358c70f5001e1225ba2","5f60e3c0a3b16e07647b2ff9","5f63803887554506481580ad","false","null","<div style=""align-items: center; display: flex; color: darkorange; font-size: 90px""><b>ø</b></div>","null","","","","forget_cue","","","","","","","","","","","","","","","",""
"html-keyboard-response","228","1031017","0.0-4.0-1.0-0.36","kl5bt2s0kyvdsfw","prime","5f32b358c70f5001e1225ba2","5f60e3c0a3b16e07647b2ff9","5f63803887554506481580ad","false","null","<span style=""color: black; font-size: 48px"">M + N</span>","null","","","","resp_prompt","","","","","","","","","","","","","","","",""
"categorize-image","229","1031624","0.0-4.0-1.0-1.36","kl5bt2s0kyvdsfw","prime","5f32b358c70f5001e1225ba2","5f60e3c0a3b16e07647b2ff9","5f63803887554506481580ad","true","585.0600000121631","./Stimuli/SelectedImages/SM/SM213.bmp","83","","","","test","true","M + N","83","switch","SM","SM213.bmp","remember","","85","3","prime1","left","","","",""
"html-keyboard-response","230","1033634","0.0-4.0-1.0-3.36","kl5bt2s0kyvdsfw","prime","5f32b358c70f5001e1225ba2","5f60e3c0a3b16e07647b2ff9","5f63803887554506481580ad","false","null","<div style=""align-items: center; display: flex; color: dodgerblue; font-size: 90px""><b>o</b></div>","null","","","","forget_cue","","","","","","","","","","","","","","","",""
"html-keyboard-response","231","1034351","0.0-4.0-1.0-0.37","kl5bt2s0kyvdsfw","prime","5f32b358c70f5001e1225ba2","5f60e3c0a3b16e07647b2ff9","5f63803887554506481580ad","false","null","<span style=""color: black; font-size: 48px"">M + N</span>","null","","","","resp_prompt","","","","","","","","","","","","","","","",""
"categorize-image","232","1034907","0.0-4.0-1.0-1.37","kl5bt2s0kyvdsfw","prime","5f32b358c70f5001e1225ba2","5f60e3c0a3b16e07647b2ff9","5f63803887554506481580ad","true","529.6450000023469","./Stimuli/SelectedImages/LN/LN131.bmp","76","","","","test","true","M + N","76","repetition","LN","LN131.bmp","remember","","86","3","prime1","right","","","",""
"html-keyboard-response","233","1036917","0.0-4.0-1.0-3.37","kl5bt2s0kyvdsfw","prime","5f32b358c70f5001e1225ba2","5f60e3c0a3b16e07647b2ff9","5f63803887554506481580ad","false","null","<div style=""align-items: center; display: flex; color: dodgerblue; font-size: 90px""><b>o</b></div>","null","","","","forget_cue","","","","","","","","","","","","","","","",""
"html-keyboard-response","234","1037629","0.0-4.0-1.0-0.38","kl5bt2s0kyvdsfw","prime","5f32b358c70f5001e1225ba2","5f60e3c0a3b16e07647b2ff9","5f63803887554506481580ad","false","null","<span style=""color: black; font-size: 48px"">N + M</span>","null","","","","resp_prompt","","","","","","","","","","","","","","","",""
"categorize-image","235","1038269","0.0-4.0-1.0-1.38","kl5bt2s0kyvdsfw","prime","5f32b358c70f5001e1225ba2","5f60e3c0a3b16e07647b2ff9","5f63803887554506481580ad","true","616.7699999641627","./Stimuli/SelectedImages/LM/LM235.bmp","76","","","","test","true","N + M","76","repetition","LM","LM235.bmp","remember","","87","3","prime1","right","","","",""
"html-keyboard-response","236","1040288","0.0-4.0-1.0-3.38","kl5bt2s0kyvdsfw","prime","5f32b358c70f5001e1225ba2","5f60e3c0a3b16e07647b2ff9","5f63803887554506481580ad","false","null","<div style=""align-items: center; display: flex; color: dodgerblue; font-size: 90px""><b>o</b></div>","null","","","","forget_cue","","","","","","","","","","","","","","","",""
"html-keyboard-response","237","1040997","0.0-4.0-1.0-0.39","kl5bt2s0kyvdsfw","prime","5f32b358c70f5001e1225ba2","5f60e3c0a3b16e07647b2ff9","5f63803887554506481580ad","false","null","<span style=""color: black; font-size: 48px"">M + N</span>","null","","","","resp_prompt","","","","","","","","","","","","","","","",""
"categorize-image","238","1041519","0.0-4.0-1.0-1.39","kl5bt2s0kyvdsfw","prime","5f32b358c70f5001e1225ba2","5f60e3c0a3b16e07647b2ff9","5f63803887554506481580ad","true","501.5049999929033","./Stimuli/SelectedImages/SM/SM200.bmp","83","","","","test","true","M + N","83","repetition","SM","SM200.bmp","remember","","88","3","prime1","left","","","",""
"html-keyboard-response","239","1043530","0.0-4.0-1.0-3.39","kl5bt2s0kyvdsfw","prime","5f32b358c70f5001e1225ba2","5f60e3c0a3b16e07647b2ff9","5f63803887554506481580ad","false","null","<div style=""align-items: center; display: flex; color: dodgerblue; font-size: 90px""><b>o</b></div>","null","","","","forget_cue","","","","","","","","","","","","","","","",""
"html-keyboard-response","240","1044244","0.0-4.0-1.0-0.40","kl5bt2s0kyvdsfw","prime","5f32b358c70f5001e1225ba2","5f60e3c0a3b16e07647b2ff9","5f63803887554506481580ad","false","null","<span style=""color: black; font-size: 48px"">M + N</span>","null","","","","resp_prompt","","","","","","","","","","","","","","","",""
"categorize-image","241","1044879","0.0-4.0-1.0-1.40","kl5bt2s0kyvdsfw","prime","5f32b358c70f5001e1225ba2","5f60e3c0a3b16e07647b2ff9","5f63803887554506481580ad","true","611.1400000518188","./Stimuli/SelectedImages/SN/SN128.bmp","76","","","","test","true","M + N","76","switch","SN","SN128.bmp","forget","","89","3","prime1","right","","","",""
"html-keyboard-response","242","1046895","0.0-4.0-1.0-3.40","kl5bt2s0kyvdsfw","prime","5f32b358c70f5001e1225ba2","5f60e3c0a3b16e07647b2ff9","5f63803887554506481580ad","false","null","<div style=""align-items: center; display: flex; color: darkorange; font-size: 90px""><b>ø</b></div>","null","","","","forget_cue","","","","","","","","","","","","","","","",""
"html-keyboard-response","243","1047600","0.0-4.0-1.0-0.41","kl5bt2s0kyvdsfw","prime","5f32b358c70f5001e1225ba2","5f60e3c0a3b16e07647b2ff9","5f63803887554506481580ad","false","null","<span style=""color: black; font-size: 48px"">M + N</span>","null","","","","resp_prompt","","","","","","","","","","","","","","","",""
"categorize-image","244","1048094","0.0-4.0-1.0-1.41","kl5bt2s0kyvdsfw","prime","5f32b358c70f5001e1225ba2","5f60e3c0a3b16e07647b2ff9","5f63803887554506481580ad","true","468.9399999915622","./Stimuli/SelectedImages/LM/LM58.bmp","83","","","","test","true","M + N","83","repetition","LM","LM58.bmp","forget","","90","3","prime1","left","","","",""
"html-keyboard-response","245","1050113","0.0-4.0-1.0-3.41","kl5bt2s0kyvdsfw","prime","5f32b358c70f5001e1225ba2","5f60e3c0a3b16e07647b2ff9","5f63803887554506481580ad","false","null","<div style=""align-items: center; display: flex; color: darkorange; font-size: 90px""><b>ø</b></div>","null","","","","forget_cue","","","","","","","","","","","","","","","",""
"html-keyboard-response","246","1050824","0.0-4.0-1.0-0.42","kl5bt2s0kyvdsfw","prime","5f32b358c70f5001e1225ba2","5f60e3c0a3b16e07647b2ff9","5f63803887554506481580ad","false","null","<span style=""color: black; font-size: 48px"">M + N</span>","null","","","","resp_prompt","","","","","","","","","","","","","","","",""
"categorize-image","247","1051456","0.0-4.0-1.0-1.42","kl5bt2s0kyvdsfw","prime","5f32b358c70f5001e1225ba2","5f60e3c0a3b16e07647b2ff9","5f63803887554506481580ad","true","610.5950000346638","./Stimuli/SelectedImages/SN/SN52.bmp","76","","","","test","true","M + N","76","repetition","SN","SN52.bmp","forget","","91","3","prime1","right","","","",""
"html-keyboard-response","248","1053463","0.0-4.0-1.0-3.42","kl5bt2s0kyvdsfw","prime","5f32b358c70f5001e1225ba2","5f60e3c0a3b16e07647b2ff9","5f63803887554506481580ad","false","null","<div style=""align-items: center; display: flex; color: darkorange; font-size: 90px""><b>ø</b></div>","null","","","","forget_cue","","","","","","","","","","","","","","","",""
"html-keyboard-response","249","1054174","0.0-4.0-1.0-0.43","kl5bt2s0kyvdsfw","prime","5f32b358c70f5001e1225ba2","5f60e3c0a3b16e07647b2ff9","5f63803887554506481580ad","false","null","<span style=""color: black; font-size: 48px"">N + M</span>","null","","","","resp_prompt","","","","","","","","","","","","","","","",""
"categorize-image","250","1054731","0.0-4.0-1.0-1.43","kl5bt2s0kyvdsfw","prime","5f32b358c70f5001e1225ba2","5f60e3c0a3b16e07647b2ff9","5f63803887554506481580ad","true","532.6099999947473","./Stimuli/SelectedImages/SN/SN182.bmp","83","","","","test","true","N + M","83","switch","SN","SN182.bmp","forget","","92","3","prime1","left","","","",""
"html-keyboard-response","251","1056749","0.0-4.0-1.0-3.43","kl5bt2s0kyvdsfw","prime","5f32b358c70f5001e1225ba2","5f60e3c0a3b16e07647b2ff9","5f63803887554506481580ad","false","null","<div style=""align-items: center; display: flex; color: darkorange; font-size: 90px""><b>ø</b></div>","null","","","","forget_cue","","","","","","","","","","","","","","","",""
"html-keyboard-response","252","1057469","0.0-4.0-1.0-0.44","kl5bt2s0kyvdsfw","prime","5f32b358c70f5001e1225ba2","5f60e3c0a3b16e07647b2ff9","5f63803887554506481580ad","false","null","<span style=""color: black; font-size: 48px"">M + N</span>","null","","","","resp_prompt","","","","","","","","","","","","","","","",""
