"trial_type","trial_index","time_elapsed","internal_node_id","subject","exp_part","prolific_PID","study_ID","session_ID","use","rt","stimulus","key_press","button_pressed","responses","question_order","trial_part","correct","resp_map","correct_resp","probe_condition","category","image","forget_condition","list","trial_num","block_num","block","response","test_part","n_span","sequence","num_spaces"
"pavlovia","0","4","0.0-0.0","yxob5ykwd04gyzv","","5de3c83c2033793be6591e53","5f60e3c0a3b16e07647b2ff9","5f64c2c26284b702c93d0bf6","false","","","","","","","","","","","","","","","","","","","","","","",""
"html-keyboard-response","1","25415","0.0-1.0-0.0-0.0","yxob5ykwd04gyzv","welcome","5de3c83c2033793be6591e53","5f60e3c0a3b16e07647b2ff9","5f64c2c26284b702c93d0bf6","false","25409.894999989774","<div align=left>Dear participant, <br> thank you for participating in an online study of the Cognition, Action, and Sustainability Unit of the University of Freiburg! <br> <br>The aim of this study is to examine our ability to remember previously learned information. <br>Our goal is to find out, whether our memory improves, when we only remember information that is relevant to us. <br>The experiment will take about 35 minutes to complete. <br> <br>Please, note that you can only participate in this study if you are using a device with a keyboard (PC, Laptop etc.) <br>and not if you are using a mobile device such as a tablet or smartphone.<br> <br>Press 'SPACE' to proceed to the experiment. </div>","32","","","","","","","","","","","","","","","","","","","",""
"html-keyboard-response","2","52970","0.0-1.0-0.0-1.0","yxob5ykwd04gyzv","welcome","5de3c83c2033793be6591e53","5f60e3c0a3b16e07647b2ff9","5f64c2c26284b702c93d0bf6","false","27551.65500001749","<div align=left><strong> Time Course of this experiment: </strong> <br><br> <strong> 1.</strong>  First, please fill in some information regarding your demographic data. <br><br> <strong> 2.</strong>  Next, your task will be to classify everyday objects. <br>In addition, you will be asked to remember certain objects and recall them later. <br>Working on these tasks requires your undivided attention and concentration.<br>It is therefore essential that you eliminate any sources of distraction in your  <br>environment and ensure that you will not be disturbed. <br><br><strong> 3.</strong>  At the end of the experiment, you will be asked to answer a few additional questions. <br> <br><strong> Important:</strong> After finishing the experiment, only close the browser window <br> by clicking on the 'end the experiment'-button when you are asked to do so. <br>Closing the browser window prematurely will make the allocation of your participation credit impossible. <br><br> Press 'SPACE' to start the experiment. </div>","32","","","","","","","","","","","","","","","","","","","",""
"html-button-response","3","58333","0.0-1.0-0.0-2.0","yxob5ykwd04gyzv","welcome","5de3c83c2033793be6591e53","5f60e3c0a3b16e07647b2ff9","5f64c2c26284b702c93d0bf6","true","5360.834999999497","<div align=left><strong> Informed consent </strong>  <br>The aim of our research is to better understand human behavior and mental processes. <br>In the following study your behavior (e.g. choices, reaction times) will be studied. <br> <br><strong> Voluntariness and Anonymity </strong> <br>Your participation in this study is  <strong> voluntary</strong>.<br>You may withdraw your consent to participate at any time without providing a reason for doing so and without fear of prejudice. <br><br>As no personal data will be collected, <strong>your data and your person cannot be connected after data collection</strong> – the data-set is anonymous. <br>Respectively, deletion of your data will not be possible after data collection has been completed, as we cannot retrace your data-set.<br>The results and anonymized data collected in this study will be published as a scientific publication. <br>This will happen in an <strong>anonymized format</strong>, so that no data can be traced back to a specific person. <br> <br>The anonymized data of this study will be made available to other researchers and/or in a data archive on the Internet as a means of transparency and to enable subsequent re-use. By doing so, this study follows the recommendations of the Deutsche Forschungsgemeinschaft (DFG, German Research Foundation) and Deutsche Gesellschaft für Psychologie (DGPS, German Psychological Society) regarding quality assurance in research.<br>If you have any questions now or after the experiment, please contact our team (experiments@cs.uni-freiburg.de).<br><br><br>I hereby declare, that I understand the above described conditions of participation and I agree to participate under these conditions. <br><br> </div>","","0","","","","","","","","","","","","","","","","","","",""
"html-keyboard-response","4","82000","0.0-1.0-0.0-3.0","yxob5ykwd04gyzv","welcome","5de3c83c2033793be6591e53","5f60e3c0a3b16e07647b2ff9","5f64c2c26284b702c93d0bf6","false","23663.860000000568","<div align=left><strong> General information concerning the experiment </strong>  <br> <br>Please follow the instructions:<ol> <li><strong> Do not leave this tab (your browser window) during the experiment and do not reload this tab! </strong>  <br>If you do switch tabs/windows during the experiment (to check your mail or visit another website, for example), <br>the experiment will end automatically and you will <strong>not receive credit</strong> for your participation. <br>Repeated participation or resumption of the experiment is impossible.</li> <br><li>Please close all other programs for the duration of your participation. </li> <br><li>Please mute or turn off your phone and put it out of your reach. </li> <br><li>Please also take off any disturbing accessories (such as wristwatches, bracelets, etc.). </li> <br><li>If you have music playing in the background, please turn it off now. </li> <br></ol>Thank you! <br>Press 'SPACE' to continue. </div>","32","","","","","","","","","","","","","","","","","","","",""
"survey-text","5","85501","0.0-1.0-1.0-0.0","yxob5ykwd04gyzv","demographics","5de3c83c2033793be6591e53","5f60e3c0a3b16e07647b2ff9","5f64c2c26284b702c93d0bf6","true","3497.0999999786727","","","","{""age"":""37""}","","","","","","","","","","","","","","","","","",""
"survey-multi-choice","6","111081","0.0-1.0-1.0-1.0","yxob5ykwd04gyzv","demographics","5de3c83c2033793be6591e53","5f60e3c0a3b16e07647b2ff9","5f64c2c26284b702c93d0bf6","true","25576.585000002524","","","","{""gender"":""male"",""school"":""high school"",""education"":""Completed university degree or equivalent""}","[0,1,2]","","","","","","","","","","","","","","","","",""
"html-keyboard-response","7","124827","0.0-1.0-2.0","yxob5ykwd04gyzv","instructions","5de3c83c2033793be6591e53","5f60e3c0a3b16e07647b2ff9","5f64c2c26284b702c93d0bf6","false","13739.329999982147","<div align=left> The experiment is now about to start: <br> <br>In the following part, you will be presented pictures of everyday objects. <br>Your first task is to <strong>classify these objects. </strong> <br> <br> You will classify them either as mechanical or non-mechanical objects. <br> <br>Objects that include any kind of technical mechanism (for example, wheels, switches, levers, <br> electronic components) fall under the category of <strong>mechanical</strong> objects. <br>Only objects without any kind of technical mechanism should be classified as <strong>non-mechanical</strong>. <br><br>Press 'SPACE' to continue. </div>","32","","","","","","","","","","","","","","","","","","","",""
"html-keyboard-response","8","157767","0.0-2.0-0.0","yxob5ykwd04gyzv","instructions","5de3c83c2033793be6591e53","5f60e3c0a3b16e07647b2ff9","5f64c2c26284b702c93d0bf6","false","32938.12499998603","<div align=justify>You will classify the objects using the <strong>'S'</strong> and the <strong>'L'</strong> keys on your keyboard.<br>For doing so, please place your <strong>left index finger</strong> on the <strong>'S'</strong> key and place your <strong>right index finger</strong> on the <strong>'L'</strong> key. <br><br> Each trial starts with an instruction, indicating which key ('S'/'L') you need to press to classify <br>the object as mechanical (letter M) or non-mechanical (letter N).<br>The instruction <strong>M + N</strong> indicates that, in the current trial, by pressing the left key ('S') you classify the displayed object as mechanical (M) <br> and by pressing the right key ('L') you classify the object as non-mechanical (N). <br>The instruction <strong>N + M</strong> on the other hand indicates that by pressing the left key ('S') you classify the displayed object as non-mechanical (N) <br> and by pressing the right key ('L') you classify the object as mechanical (M). <br><br>Please press the key corresponding to the correct classification as fast as possible as soon as the object is displayed and try to avoid making mistakes.<br>If you do not respond within a 2 second window, a corresponding feedback will be displayed and the next trial will start.<br> The experiment is divided into multiple blocks to give you the opportunity to take a break after each block. <br>First, you can now practice this task. <br><br>Please place your <strong>LEFT INDEX FINGER</strong> on the 'S' key and your <strong>RIGHT INDEX FINGER</strong> on the 'L' key now. <br><br>Press SPACE to continue.</div>","32","","","","","","","","","","","","","","","","","","","",""
"html-keyboard-response","9","173723","0.0-2.0-1.0","yxob5ykwd04gyzv","instructions","5de3c83c2033793be6591e53","5f60e3c0a3b16e07647b2ff9","5f64c2c26284b702c93d0bf6","false","15954.744999995455","<div align=left> You will now have time to practice this task.<br><br>Remember: <br> <br><li>Please place your index fingers on the <strong>'S'</strong> and <strong>'L'</strong> keys <br>to respond as fast and accurately as possible.</li><li>Every picture can be classified as either mechanical or non-mechanical.</li><li>If you do not respond in time or commit an error, you will receive a corresponding feedback. </li><li> Please try to respond as <strong> fast </strong> and as <strong> accurately as possible </strong> .<br><li>To ensure optimal results, please minimize distractions and stay focused. </li><br><br>Press SPACE to continue.</div>","32","","","","","","","","","","","","","","","","","","","",""
"html-keyboard-response","10","174428","0.0-2.0-2.0-0.0","yxob5ykwd04gyzv","practice_no_cue","5de3c83c2033793be6591e53","5f60e3c0a3b16e07647b2ff9","5f64c2c26284b702c93d0bf6","false","null","<span style=""color: black; font-size: 48px"">M + N</span>","null","","","","resp_prompt","","","","","","","","","","","","","","","",""
"categorize-image","11","175798","0.0-2.0-2.0-1.0","yxob5ykwd04gyzv","practice_no_cue","5de3c83c2033793be6591e53","5f60e3c0a3b16e07647b2ff9","5f64c2c26284b702c93d0bf6","true","867.4100000062026","./Stimuli/ImagesPractice/LN17.jpg","76","","","","test","true","M + N","76","","LN","LN17.jpg","forget","old","1","1","start","right","","","",""
"html-keyboard-response","12","176500","0.0-2.0-2.0-0.1","yxob5ykwd04gyzv","practice_no_cue","5de3c83c2033793be6591e53","5f60e3c0a3b16e07647b2ff9","5f64c2c26284b702c93d0bf6","false","null","<span style=""color: black; font-size: 48px"">M + N</span>","null","","","","resp_prompt","","","","","","","","","","","","","","","",""
"categorize-image","13","177490","0.0-2.0-2.0-1.1","yxob5ykwd04gyzv","practice_no_cue","5de3c83c2033793be6591e53","5f60e3c0a3b16e07647b2ff9","5f64c2c26284b702c93d0bf6","true","484.5649999915622","./Stimuli/ImagesPractice/LM143.jpg","83","","","","test","true","M + N","83","","LM","LM143.jpg","forget","old","2","1","start","left","","","",""
"html-keyboard-response","14","178196","0.0-2.0-2.0-0.2","yxob5ykwd04gyzv","practice_no_cue","5de3c83c2033793be6591e53","5f60e3c0a3b16e07647b2ff9","5f64c2c26284b702c93d0bf6","false","null","<span style=""color: black; font-size: 48px"">N + M</span>","null","","","","resp_prompt","","","","","","","","","","","","","","","",""
"categorize-image","15","179468","0.0-2.0-2.0-1.2","yxob5ykwd04gyzv","practice_no_cue","5de3c83c2033793be6591e53","5f60e3c0a3b16e07647b2ff9","5f64c2c26284b702c93d0bf6","true","769.7900000202935","./Stimuli/ImagesPractice/SM61.jpg","83","","","","test","false","N + M","76","","SM","SM61.jpg","forget","old","3","1","start","left","","","",""
"html-keyboard-response","16","180169","0.0-2.0-2.0-0.3","yxob5ykwd04gyzv","practice_no_cue","5de3c83c2033793be6591e53","5f60e3c0a3b16e07647b2ff9","5f64c2c26284b702c93d0bf6","false","null","<span style=""color: black; font-size: 48px"">N + M</span>","null","","","","resp_prompt","","","","","","","","","","","","","","","",""
"categorize-image","17","181347","0.0-2.0-2.0-1.3","yxob5ykwd04gyzv","practice_no_cue","5de3c83c2033793be6591e53","5f60e3c0a3b16e07647b2ff9","5f64c2c26284b702c93d0bf6","true","675.9049999818671","./Stimuli/ImagesPractice/SM35.jpg","76","","","","test","true","N + M","76","","SM","SM35.jpg","remember","old","4","1","start","right","","","",""
"html-keyboard-response","18","182049","0.0-2.0-2.0-0.4","yxob5ykwd04gyzv","practice_no_cue","5de3c83c2033793be6591e53","5f60e3c0a3b16e07647b2ff9","5f64c2c26284b702c93d0bf6","false","null","<span style=""color: black; font-size: 48px"">N + M</span>","null","","","","resp_prompt","","","","","","","","","","","","","","","",""
"categorize-image","19","183171","0.0-2.0-2.0-1.4","yxob5ykwd04gyzv","practice_no_cue","5de3c83c2033793be6591e53","5f60e3c0a3b16e07647b2ff9","5f64c2c26284b702c93d0bf6","true","620.295000000624","./Stimuli/ImagesPractice/SM97.jpg","83","","","","test","false","N + M","76","","SM","SM97.jpg","remember","old","5","1","start","left","","","",""
"html-keyboard-response","20","183874","0.0-2.0-2.0-0.5","yxob5ykwd04gyzv","practice_no_cue","5de3c83c2033793be6591e53","5f60e3c0a3b16e07647b2ff9","5f64c2c26284b702c93d0bf6","false","null","<span style=""color: black; font-size: 48px"">M + N</span>","null","","","","resp_prompt","","","","","","","","","","","","","","","",""
"categorize-image","21","185133","0.0-2.0-2.0-1.5","yxob5ykwd04gyzv","practice_no_cue","5de3c83c2033793be6591e53","5f60e3c0a3b16e07647b2ff9","5f64c2c26284b702c93d0bf6","true","755.925000004936","./Stimuli/ImagesPractice/SM98.jpg","83","","","","test","true","M + N","83","","SM","SM98.jpg","remember","old","6","1","start","left","","","",""
"html-keyboard-response","22","185834","0.0-2.0-2.0-0.6","yxob5ykwd04gyzv","practice_no_cue","5de3c83c2033793be6591e53","5f60e3c0a3b16e07647b2ff9","5f64c2c26284b702c93d0bf6","false","null","<span style=""color: black; font-size: 48px"">M + N</span>","null","","","","resp_prompt","","","","","","","","","","","","","","","",""
"categorize-image","23","187073","0.0-2.0-2.0-1.6","yxob5ykwd04gyzv","practice_no_cue","5de3c83c2033793be6591e53","5f60e3c0a3b16e07647b2ff9","5f64c2c26284b702c93d0bf6","true","734.6200000029057","./Stimuli/ImagesPractice/SN205.jpg","76","","","","test","true","M + N","76","","SN","SN205.jpg","remember","old","7","1","start","right","","","",""
"html-keyboard-response","24","187780","0.0-2.0-2.0-0.7","yxob5ykwd04gyzv","practice_no_cue","5de3c83c2033793be6591e53","5f60e3c0a3b16e07647b2ff9","5f64c2c26284b702c93d0bf6","false","null","<span style=""color: black; font-size: 48px"">N + M</span>","null","","","","resp_prompt","","","","","","","","","","","","","","","",""
"categorize-image","25","188930","0.0-2.0-2.0-1.7","yxob5ykwd04gyzv","practice_no_cue","5de3c83c2033793be6591e53","5f60e3c0a3b16e07647b2ff9","5f64c2c26284b702c93d0bf6","true","648.8100000133272","./Stimuli/ImagesPractice/LM239.jpg","76","","","","test","true","N + M","76","","LM","LM239.jpg","remember","old","8","1","start","right","","","",""
"html-keyboard-response","26","189632","0.0-2.0-2.0-0.8","yxob5ykwd04gyzv","practice_no_cue","5de3c83c2033793be6591e53","5f60e3c0a3b16e07647b2ff9","5f64c2c26284b702c93d0bf6","false","null","<span style=""color: black; font-size: 48px"">N + M</span>","null","","","","resp_prompt","","","","","","","","","","","","","","","",""
"categorize-image","27","190730","0.0-2.0-2.0-1.8","yxob5ykwd04gyzv","practice_no_cue","5de3c83c2033793be6591e53","5f60e3c0a3b16e07647b2ff9","5f64c2c26284b702c93d0bf6","true","591.7999999946915","./Stimuli/ImagesPractice/SN221.jpg","76","","","","test","false","N + M","83","","SN","SN221.jpg","forget","old","9","1","start","right","","","",""
"html-keyboard-response","28","191432","0.0-2.0-2.0-0.9","yxob5ykwd04gyzv","practice_no_cue","5de3c83c2033793be6591e53","5f60e3c0a3b16e07647b2ff9","5f64c2c26284b702c93d0bf6","false","null","<span style=""color: black; font-size: 48px"">N + M</span>","null","","","","resp_prompt","","","","","","","","","","","","","","","",""
"categorize-image","29","192565","0.0-2.0-2.0-1.9","yxob5ykwd04gyzv","practice_no_cue","5de3c83c2033793be6591e53","5f60e3c0a3b16e07647b2ff9","5f64c2c26284b702c93d0bf6","true","631.1299999943003","./Stimuli/ImagesPractice/SM62.jpg","83","","","","test","false","N + M","76","","SM","SM62.jpg","remember","old","10","1","start","left","","","",""
"html-keyboard-response","30","193266","0.0-2.0-2.0-0.10","yxob5ykwd04gyzv","practice_no_cue","5de3c83c2033793be6591e53","5f60e3c0a3b16e07647b2ff9","5f64c2c26284b702c93d0bf6","false","null","<span style=""color: black; font-size: 48px"">M + N</span>","null","","","","resp_prompt","","","","","","","","","","","","","","","",""
"categorize-image","31","194438","0.0-2.0-2.0-1.10","yxob5ykwd04gyzv","practice_no_cue","5de3c83c2033793be6591e53","5f60e3c0a3b16e07647b2ff9","5f64c2c26284b702c93d0bf6","true","668.4450000175275","./Stimuli/ImagesPractice/LN2.jpg","76","","","","test","true","M + N","76","","LN","LN2.jpg","remember","old","11","1","start","right","","","",""
"html-keyboard-response","32","195144","0.0-2.0-2.0-0.11","yxob5ykwd04gyzv","practice_no_cue","5de3c83c2033793be6591e53","5f60e3c0a3b16e07647b2ff9","5f64c2c26284b702c93d0bf6","false","null","<span style=""color: black; font-size: 48px"">N + M</span>","null","","","","resp_prompt","","","","","","","","","","","","","","","",""
"categorize-image","33","196148","0.0-2.0-2.0-1.11","yxob5ykwd04gyzv","practice_no_cue","5de3c83c2033793be6591e53","5f60e3c0a3b16e07647b2ff9","5f64c2c26284b702c93d0bf6","true","502.87500000558794","./Stimuli/ImagesPractice/SN76.jpg","76","","","","test","false","N + M","83","","SN","SN76.jpg","forget","old","12","1","start","right","","","",""
"html-keyboard-response","34","196850","0.0-2.0-2.0-0.12","yxob5ykwd04gyzv","practice_no_cue","5de3c83c2033793be6591e53","5f60e3c0a3b16e07647b2ff9","5f64c2c26284b702c93d0bf6","false","null","<span style=""color: black; font-size: 48px"">M + N</span>","null","","","","resp_prompt","","","","","","","","","","","","","","","",""
"categorize-image","35","197800","0.0-2.0-2.0-1.12","yxob5ykwd04gyzv","practice_no_cue","5de3c83c2033793be6591e53","5f60e3c0a3b16e07647b2ff9","5f64c2c26284b702c93d0bf6","true","445.14499997603707","./Stimuli/ImagesPractice/LM55.jpg","76","","","","test","false","M + N","83","","LM","LM55.jpg","remember","old","13","1","start","right","","","",""
"html-keyboard-response","36","198501","0.0-2.0-2.0-0.13","yxob5ykwd04gyzv","practice_no_cue","5de3c83c2033793be6591e53","5f60e3c0a3b16e07647b2ff9","5f64c2c26284b702c93d0bf6","false","null","<span style=""color: black; font-size: 48px"">N + M</span>","null","","","","resp_prompt","","","","","","","","","","","","","","","",""
"categorize-image","37","199547","0.0-2.0-2.0-1.13","yxob5ykwd04gyzv","practice_no_cue","5de3c83c2033793be6591e53","5f60e3c0a3b16e07647b2ff9","5f64c2c26284b702c93d0bf6","true","544.0099999832455","./Stimuli/ImagesPractice/LM224.jpg","83","","","","test","false","N + M","76","","LM","LM224.jpg","forget","old","14","1","start","left","","","",""
"html-keyboard-response","38","200250","0.0-2.0-2.0-0.14","yxob5ykwd04gyzv","practice_no_cue","5de3c83c2033793be6591e53","5f60e3c0a3b16e07647b2ff9","5f64c2c26284b702c93d0bf6","false","null","<span style=""color: black; font-size: 48px"">M + N</span>","null","","","","resp_prompt","","","","","","","","","","","","","","","",""
"categorize-image","39","201312","0.0-2.0-2.0-1.14","yxob5ykwd04gyzv","practice_no_cue","5de3c83c2033793be6591e53","5f60e3c0a3b16e07647b2ff9","5f64c2c26284b702c93d0bf6","true","558.3850000111852","./Stimuli/ImagesPractice/SM37.jpg","76","","","","test","false","M + N","83","","SM","SM37.jpg","forget","old","15","1","start","right","","","",""
"html-keyboard-response","40","202014","0.0-2.0-2.0-0.15","yxob5ykwd04gyzv","practice_no_cue","5de3c83c2033793be6591e53","5f60e3c0a3b16e07647b2ff9","5f64c2c26284b702c93d0bf6","false","null","<span style=""color: black; font-size: 48px"">M + N</span>","null","","","","resp_prompt","","","","","","","","","","","","","","","",""
"categorize-image","41","203081","0.0-2.0-2.0-1.15","yxob5ykwd04gyzv","practice_no_cue","5de3c83c2033793be6591e53","5f60e3c0a3b16e07647b2ff9","5f64c2c26284b702c93d0bf6","true","564.2299999890383","./Stimuli/ImagesPractice/SN222.jpg","83","","","","test","false","M + N","76","","SN","SN222.jpg","forget","old","16","1","start","left","","","",""
"html-keyboard-response","42","209858","0.0-2.0-3.0","yxob5ykwd04gyzv","break","5de3c83c2033793be6591e53","5f60e3c0a3b16e07647b2ff9","5f64c2c26284b702c93d0bf6","false","6774.719999986701","<p style='font-size: 32px;'>Break</><br><br><br><br><br><p style='font-size: 24px;'>In the last block, you committed 9 errors and did not respond in time on 0 trials.
</p><p style='font-size: 24px;'>Try to respond as fast and accurately as possible in the next block as well! </p><p style='font-size: 24px;'>Press SPACE to continue.</p>","32","","","","","","","","","","","","","","","","","","","",""
"html-keyboard-response","43","214808","0.0-2.0-4.0","yxob5ykwd04gyzv","instructions","5de3c83c2033793be6591e53","5f60e3c0a3b16e07647b2ff9","5f64c2c26284b702c93d0bf6","false","4948.559999989811","<div align=left> Great!<br><br>Are you ready to continue?<br><br>If you want to reread the instructions and redo the practice trials, <br>please press „Z“. <br><br>Press SPACE to CONTINUE with the experiment when you are ready. </div>","32","","","","","","","","","","","","","","","","","","","",""
"html-keyboard-response","44","253546","0.0-3.0-0.0","yxob5ykwd04gyzv","instructions","5de3c83c2033793be6591e53","5f60e3c0a3b16e07647b2ff9","5f64c2c26284b702c93d0bf6","false","38736.07000001357","<div align=left>Great!<br> <strong>Attention</strong>! You will now receive a second, additional task! <br><br>To this point it was you <strong>first task</strong> to correctly <strong>classify objects</strong>. <br><br>As mentioned in the beginning, we aim to examine how well humans can remember previously learned information.<br>We would like to find out whether our memory improves if we only remember information that is relevant to us. <br><br>Therefore, your <strong>second task</strong> will be to <strong>remember</strong> the pictures you are to categorize. <br> After the learning phase, there will be a memory test phase, in which you will be asked to indicate whether you have seen a picture before or not. <br>Some, but not all pictures shown in the learning phase will appear in the memory test phase.<br>After classifying a picture, you will be told whether you should remember it for the memory test phase or not. <br>Thus, some pictures can be forgotten, whereas others have to be remembered. <br><br>Note: From now on, feedback will only be displayed if you responded incorrectly or not in time.<br><br>Press SPACE to continue.</div>","32","","","","","","","","","","","","","","","","","","","",""
"html-keyboard-response","45","267181","0.0-3.0-1.0","yxob5ykwd04gyzv","instructions","5de3c83c2033793be6591e53","5f60e3c0a3b16e07647b2ff9","5f64c2c26284b702c93d0bf6","false","13633.82499999716","<div align=left>In the following part, you will thus have to remember only some pictures. <br>Immediately after seeing and classifying the picture, a symbol will be displayed, indicating whether you should remember or forget the previous picture. <br><br>A <span style='color: dodgerblue; font-size: 28px'>O</span> indicates REMEMBER. That means, you have to remember this picture, because it will be tested later. <br><br>A <span style='color: darkorange; font-size:28px'>Ø</span> indicates FORGET. You do not have to remember this picture. <br><br> As you will have to remember a lot of pictures, it will be hard for you to remember all of them. <br>It will put you at an advantage if you instantly forget the pictures you are not asked to remember. <br> This will make it easier for you to remember the pictures that will be tested afterwards. <br><br>Press SPACE to continue.</div>","32","","","","","","","","","","","","","","","","","","","",""
"html-keyboard-response","46","278552","0.0-3.0-2.0","yxob5ykwd04gyzv","instructions","5de3c83c2033793be6591e53","5f60e3c0a3b16e07647b2ff9","5f64c2c26284b702c93d0bf6","false","11369.899999990594","<div align=left> Now you have the chance to practice both tasks together.<br><br>Remember: <br> <br><li>Please place your index fingers on the <strong>'S'</strong> and <strong>'L'</strong> keys <br>to respond as fast and accurately as possible.</li><li>Every picture can be classified as either mechanical or non-mechanical.</li><li>If you do not respond in time or commit an error, you will receive a corresponding feedback. <br>Please try to respond as <strong> fast </strong> and as <strong> accurately as possible </strong>.</li><li> Please remember only the to-be-remembered <span style='color: dodgerblue; font-size: 28px'>O</span> pictures. <br></li><li> Please minimize distractions and stay focused. </li><br><br>Press SPACE to START</div>","32","","","","","","","","","","","","","","","","","","","",""
"html-keyboard-response","47","279259","0.0-3.0-3.0-0.0","yxob5ykwd04gyzv","practice_cue","5de3c83c2033793be6591e53","5f60e3c0a3b16e07647b2ff9","5f64c2c26284b702c93d0bf6","false","null","<span style=""color: black; font-size: 48px"">M + N</span>","null","","","","resp_prompt","","","","","","","","","","","","","","","",""
"categorize-image","48","279842","0.0-3.0-3.0-1.0","yxob5ykwd04gyzv","practice_cue","5de3c83c2033793be6591e53","5f60e3c0a3b16e07647b2ff9","5f64c2c26284b702c93d0bf6","true","579.7350000066217","./Stimuli/ImagesPractice/SN222.jpg","76","","","","test","true","M + N","76","","SN","SN222.jpg","forget","old","17","2","practice_forget","right","","","",""
"html-keyboard-response","49","281845","0.0-3.0-3.0-3.0","yxob5ykwd04gyzv","practice_cue","5de3c83c2033793be6591e53","5f60e3c0a3b16e07647b2ff9","5f64c2c26284b702c93d0bf6","false","null","<div style=""align-items: center; display: flex; color: darkorange; font-size: 90px""><b>ø</b></div>","null","","","","forget_cue","","","","","","","","","","","","","","","",""
"html-keyboard-response","50","282549","0.0-3.0-3.0-0.1","yxob5ykwd04gyzv","practice_cue","5de3c83c2033793be6591e53","5f60e3c0a3b16e07647b2ff9","5f64c2c26284b702c93d0bf6","false","null","<span style=""color: black; font-size: 48px"">M + N</span>","null","","","","resp_prompt","","","","","","","","","","","","","","","",""
"categorize-image","51","283194","0.0-3.0-3.0-1.1","yxob5ykwd04gyzv","practice_cue","5de3c83c2033793be6591e53","5f60e3c0a3b16e07647b2ff9","5f64c2c26284b702c93d0bf6","true","642.5799999851733","./Stimuli/ImagesPractice/LM55.jpg","83","","","","test","true","M + N","83","","LM","LM55.jpg","remember","old","18","2","practice_forget","left","","","",""
"html-keyboard-response","52","285196","0.0-3.0-3.0-3.1","yxob5ykwd04gyzv","practice_cue","5de3c83c2033793be6591e53","5f60e3c0a3b16e07647b2ff9","5f64c2c26284b702c93d0bf6","false","null","<div style=""align-items: center; display: flex; color: dodgerblue; font-size: 90px""><b>o</b></div>","null","","","","forget_cue","","","","","","","","","","","","","","","",""
"html-keyboard-response","53","285897","0.0-3.0-3.0-0.2","yxob5ykwd04gyzv","practice_cue","5de3c83c2033793be6591e53","5f60e3c0a3b16e07647b2ff9","5f64c2c26284b702c93d0bf6","false","null","<span style=""color: black; font-size: 48px"">N + M</span>","null","","","","resp_prompt","","","","","","","","","","","","","","","",""
"categorize-image","54","286420","0.0-3.0-3.0-1.2","yxob5ykwd04gyzv","practice_cue","5de3c83c2033793be6591e53","5f60e3c0a3b16e07647b2ff9","5f64c2c26284b702c93d0bf6","true","519.9550000252202","./Stimuli/ImagesPractice/SN221.jpg","76","","","","test","false","N + M","83","","SN","SN221.jpg","forget","old","19","2","practice_forget","right","","","",""
"html-keyboard-response","55","286923","0.0-3.0-3.0-2.2-0.2","yxob5ykwd04gyzv","practice_cue","5de3c83c2033793be6591e53","5f60e3c0a3b16e07647b2ff9","5f64c2c26284b702c93d0bf6","false","null","<span style=""color: red; font-size: 48px"">Error!</span>","null","","","","feedback","","","","","","","","","","","","","","","",""
"html-keyboard-response","56","288927","0.0-3.0-3.0-3.2","yxob5ykwd04gyzv","practice_cue","5de3c83c2033793be6591e53","5f60e3c0a3b16e07647b2ff9","5f64c2c26284b702c93d0bf6","false","null","<div style=""align-items: center; display: flex; color: darkorange; font-size: 90px""><b>ø</b></div>","null","","","","forget_cue","","","","","","","","","","","","","","","",""
"html-keyboard-response","57","289628","0.0-3.0-3.0-0.3","yxob5ykwd04gyzv","practice_cue","5de3c83c2033793be6591e53","5f60e3c0a3b16e07647b2ff9","5f64c2c26284b702c93d0bf6","false","null","<span style=""color: black; font-size: 48px"">M + N</span>","null","","","","resp_prompt","","","","","","","","","","","","","","","",""
"categorize-image","58","290341","0.0-3.0-3.0-1.3","yxob5ykwd04gyzv","practice_cue","5de3c83c2033793be6591e53","5f60e3c0a3b16e07647b2ff9","5f64c2c26284b702c93d0bf6","true","710.045000014361","./Stimuli/ImagesPractice/SM37.jpg","83","","","","test","true","M + N","83","","SM","SM37.jpg","forget","old","20","2","practice_forget","left","","","",""
"html-keyboard-response","59","292343","0.0-3.0-3.0-3.3","yxob5ykwd04gyzv","practice_cue","5de3c83c2033793be6591e53","5f60e3c0a3b16e07647b2ff9","5f64c2c26284b702c93d0bf6","false","null","<div style=""align-items: center; display: flex; color: darkorange; font-size: 90px""><b>ø</b></div>","null","","","","forget_cue","","","","","","","","","","","","","","","",""
"html-keyboard-response","60","293045","0.0-3.0-3.0-0.4","yxob5ykwd04gyzv","practice_cue","5de3c83c2033793be6591e53","5f60e3c0a3b16e07647b2ff9","5f64c2c26284b702c93d0bf6","false","null","<span style=""color: black; font-size: 48px"">N + M</span>","null","","","","resp_prompt","","","","","","","","","","","","","","","",""
"categorize-image","61","293734","0.0-3.0-3.0-1.4","yxob5ykwd04gyzv","practice_cue","5de3c83c2033793be6591e53","5f60e3c0a3b16e07647b2ff9","5f64c2c26284b702c93d0bf6","true","686.0149999847636","./Stimuli/ImagesPractice/SM62.jpg","76","","","","test","true","N + M","76","","SM","SM62.jpg","remember","old","21","2","practice_forget","right","","","",""
"html-keyboard-response","62","295740","0.0-3.0-3.0-3.4","yxob5ykwd04gyzv","practice_cue","5de3c83c2033793be6591e53","5f60e3c0a3b16e07647b2ff9","5f64c2c26284b702c93d0bf6","false","null","<div style=""align-items: center; display: flex; color: dodgerblue; font-size: 90px""><b>o</b></div>","null","","","","forget_cue","","","","","","","","","","","","","","","",""
"html-keyboard-response","63","296442","0.0-3.0-3.0-0.5","yxob5ykwd04gyzv","practice_cue","5de3c83c2033793be6591e53","5f60e3c0a3b16e07647b2ff9","5f64c2c26284b702c93d0bf6","false","null","<span style=""color: black; font-size: 48px"">M + N</span>","null","","","","resp_prompt","","","","","","","","","","","","","","","",""
"categorize-image","64","297147","0.0-3.0-3.0-1.5","yxob5ykwd04gyzv","practice_cue","5de3c83c2033793be6591e53","5f60e3c0a3b16e07647b2ff9","5f64c2c26284b702c93d0bf6","true","703.125","./Stimuli/ImagesPractice/LM143.jpg","83","","","","test","true","M + N","83","","LM","LM143.jpg","forget","old","22","2","practice_forget","left","","","",""
"html-keyboard-response","65","299150","0.0-3.0-3.0-3.5","yxob5ykwd04gyzv","practice_cue","5de3c83c2033793be6591e53","5f60e3c0a3b16e07647b2ff9","5f64c2c26284b702c93d0bf6","false","null","<div style=""align-items: center; display: flex; color: darkorange; font-size: 90px""><b>ø</b></div>","null","","","","forget_cue","","","","","","","","","","","","","","","",""
"html-keyboard-response","66","299854","0.0-3.0-3.0-0.6","yxob5ykwd04gyzv","practice_cue","5de3c83c2033793be6591e53","5f60e3c0a3b16e07647b2ff9","5f64c2c26284b702c93d0bf6","false","null","<span style=""color: black; font-size: 48px"">M + N</span>","null","","","","resp_prompt","","","","","","","","","","","","","","","",""
"categorize-image","67","300541","0.0-3.0-3.0-1.6","yxob5ykwd04gyzv","practice_cue","5de3c83c2033793be6591e53","5f60e3c0a3b16e07647b2ff9","5f64c2c26284b702c93d0bf6","true","683.2899999863002","./Stimuli/ImagesPractice/SN205.jpg","76","","","","test","true","M + N","76","","SN","SN205.jpg","remember","old","23","2","practice_forget","right","","","",""
"html-keyboard-response","68","302543","0.0-3.0-3.0-3.6","yxob5ykwd04gyzv","practice_cue","5de3c83c2033793be6591e53","5f60e3c0a3b16e07647b2ff9","5f64c2c26284b702c93d0bf6","false","null","<div style=""align-items: center; display: flex; color: dodgerblue; font-size: 90px""><b>o</b></div>","null","","","","forget_cue","","","","","","","","","","","","","","","",""
"html-keyboard-response","69","303244","0.0-3.0-3.0-0.7","yxob5ykwd04gyzv","practice_cue","5de3c83c2033793be6591e53","5f60e3c0a3b16e07647b2ff9","5f64c2c26284b702c93d0bf6","false","null","<span style=""color: black; font-size: 48px"">N + M</span>","null","","","","resp_prompt","","","","","","","","","","","","","","","",""
"categorize-image","70","304163","0.0-3.0-3.0-1.7","yxob5ykwd04gyzv","practice_cue","5de3c83c2033793be6591e53","5f60e3c0a3b16e07647b2ff9","5f64c2c26284b702c93d0bf6","true","915.7199999899603","./Stimuli/ImagesPractice/SM61.jpg","83","","","","test","false","N + M","76","","SM","SM61.jpg","forget","old","24","2","practice_forget","left","","","",""
"html-keyboard-response","71","304665","0.0-3.0-3.0-2.7-0.7","yxob5ykwd04gyzv","practice_cue","5de3c83c2033793be6591e53","5f60e3c0a3b16e07647b2ff9","5f64c2c26284b702c93d0bf6","false","null","<span style=""color: red; font-size: 48px"">Error!</span>","null","","","","feedback","","","","","","","","","","","","","","","",""
"html-keyboard-response","72","306671","0.0-3.0-3.0-3.7","yxob5ykwd04gyzv","practice_cue","5de3c83c2033793be6591e53","5f60e3c0a3b16e07647b2ff9","5f64c2c26284b702c93d0bf6","false","null","<div style=""align-items: center; display: flex; color: darkorange; font-size: 90px""><b>ø</b></div>","null","","","","forget_cue","","","","","","","","","","","","","","","",""
"html-keyboard-response","73","307373","0.0-3.0-3.0-0.8","yxob5ykwd04gyzv","practice_cue","5de3c83c2033793be6591e53","5f60e3c0a3b16e07647b2ff9","5f64c2c26284b702c93d0bf6","false","null","<span style=""color: black; font-size: 48px"">N + M</span>","null","","","","resp_prompt","","","","","","","","","","","","","","","",""
"categorize-image","74","308183","0.0-3.0-3.0-1.8","yxob5ykwd04gyzv","practice_cue","5de3c83c2033793be6591e53","5f60e3c0a3b16e07647b2ff9","5f64c2c26284b702c93d0bf6","true","805.755000008503","./Stimuli/ImagesPractice/LM239.jpg","76","","","","test","true","N + M","76","","LM","LM239.jpg","remember","old","25","2","practice_forget","right","","","",""
"html-keyboard-response","75","310187","0.0-3.0-3.0-3.8","yxob5ykwd04gyzv","practice_cue","5de3c83c2033793be6591e53","5f60e3c0a3b16e07647b2ff9","5f64c2c26284b702c93d0bf6","false","null","<div style=""align-items: center; display: flex; color: dodgerblue; font-size: 90px""><b>o</b></div>","null","","","","forget_cue","","","","","","","","","","","","","","","",""
"html-keyboard-response","76","310888","0.0-3.0-3.0-0.9","yxob5ykwd04gyzv","practice_cue","5de3c83c2033793be6591e53","5f60e3c0a3b16e07647b2ff9","5f64c2c26284b702c93d0bf6","false","null","<span style=""color: black; font-size: 48px"">N + M</span>","null","","","","resp_prompt","","","","","","","","","","","","","","","",""
"categorize-image","77","311411","0.0-3.0-3.0-1.9","yxob5ykwd04gyzv","practice_cue","5de3c83c2033793be6591e53","5f60e3c0a3b16e07647b2ff9","5f64c2c26284b702c93d0bf6","true","519.7749999933876","./Stimuli/ImagesPractice/SN76.jpg","76","","","","test","false","N + M","83","","SN","SN76.jpg","forget","old","26","2","practice_forget","right","","","",""
"html-keyboard-response","78","311912","0.0-3.0-3.0-2.9-0.9","yxob5ykwd04gyzv","practice_cue","5de3c83c2033793be6591e53","5f60e3c0a3b16e07647b2ff9","5f64c2c26284b702c93d0bf6","false","null","<span style=""color: red; font-size: 48px"">Error!</span>","null","","","","feedback","","","","","","","","","","","","","","","",""
"html-keyboard-response","79","313913","0.0-3.0-3.0-3.9","yxob5ykwd04gyzv","practice_cue","5de3c83c2033793be6591e53","5f60e3c0a3b16e07647b2ff9","5f64c2c26284b702c93d0bf6","false","null","<div style=""align-items: center; display: flex; color: darkorange; font-size: 90px""><b>ø</b></div>","null","","","","forget_cue","","","","","","","","","","","","","","","",""
"html-keyboard-response","80","314619","0.0-3.0-3.0-0.10","yxob5ykwd04gyzv","practice_cue","5de3c83c2033793be6591e53","5f60e3c0a3b16e07647b2ff9","5f64c2c26284b702c93d0bf6","false","null","<span style=""color: black; font-size: 48px"">N + M</span>","null","","","","resp_prompt","","","","","","","","","","","","","","","",""
"categorize-image","81","315169","0.0-3.0-3.0-1.10","yxob5ykwd04gyzv","practice_cue","5de3c83c2033793be6591e53","5f60e3c0a3b16e07647b2ff9","5f64c2c26284b702c93d0bf6","true","545.6899999990128","./Stimuli/ImagesPractice/SM97.jpg","83","","","","test","false","N + M","76","","SM","SM97.jpg","remember","old","27","2","practice_forget","left","","","",""
"html-keyboard-response","82","315671","0.0-3.0-3.0-2.10-0.10","yxob5ykwd04gyzv","practice_cue","5de3c83c2033793be6591e53","5f60e3c0a3b16e07647b2ff9","5f64c2c26284b702c93d0bf6","false","null","<span style=""color: red; font-size: 48px"">Error!</span>","null","","","","feedback","","","","","","","","","","","","","","","",""
"html-keyboard-response","83","317676","0.0-3.0-3.0-3.10","yxob5ykwd04gyzv","practice_cue","5de3c83c2033793be6591e53","5f60e3c0a3b16e07647b2ff9","5f64c2c26284b702c93d0bf6","false","null","<div style=""align-items: center; display: flex; color: dodgerblue; font-size: 90px""><b>o</b></div>","null","","","","forget_cue","","","","","","","","","","","","","","","",""
"html-keyboard-response","84","318380","0.0-3.0-3.0-0.11","yxob5ykwd04gyzv","practice_cue","5de3c83c2033793be6591e53","5f60e3c0a3b16e07647b2ff9","5f64c2c26284b702c93d0bf6","false","null","<span style=""color: black; font-size: 48px"">N + M</span>","null","","","","resp_prompt","","","","","","","","","","","","","","","",""
"categorize-image","85","319025","0.0-3.0-3.0-1.11","yxob5ykwd04gyzv","practice_cue","5de3c83c2033793be6591e53","5f60e3c0a3b16e07647b2ff9","5f64c2c26284b702c93d0bf6","true","639.8150000022724","./Stimuli/ImagesPractice/SM35.jpg","76","","","","test","true","N + M","76","","SM","SM35.jpg","remember","old","28","2","practice_forget","right","","","",""
"html-keyboard-response","86","321029","0.0-3.0-3.0-3.11","yxob5ykwd04gyzv","practice_cue","5de3c83c2033793be6591e53","5f60e3c0a3b16e07647b2ff9","5f64c2c26284b702c93d0bf6","false","null","<div style=""align-items: center; display: flex; color: dodgerblue; font-size: 90px""><b>o</b></div>","null","","","","forget_cue","","","","","","","","","","","","","","","",""
"html-keyboard-response","87","321731","0.0-3.0-3.0-0.12","yxob5ykwd04gyzv","practice_cue","5de3c83c2033793be6591e53","5f60e3c0a3b16e07647b2ff9","5f64c2c26284b702c93d0bf6","false","null","<span style=""color: black; font-size: 48px"">M + N</span>","null","","","","resp_prompt","","","","","","","","","","","","","","","",""
"categorize-image","88","322398","0.0-3.0-3.0-1.12","yxob5ykwd04gyzv","practice_cue","5de3c83c2033793be6591e53","5f60e3c0a3b16e07647b2ff9","5f64c2c26284b702c93d0bf6","true","664.4850000157021","./Stimuli/ImagesPractice/LN17.jpg","76","","","","test","true","M + N","76","","LN","LN17.jpg","forget","old","29","2","practice_forget","right","","","",""
"html-keyboard-response","89","324402","0.0-3.0-3.0-3.12","yxob5ykwd04gyzv","practice_cue","5de3c83c2033793be6591e53","5f60e3c0a3b16e07647b2ff9","5f64c2c26284b702c93d0bf6","false","null","<div style=""align-items: center; display: flex; color: darkorange; font-size: 90px""><b>ø</b></div>","null","","","","forget_cue","","","","","","","","","","","","","","","",""
"html-keyboard-response","90","325104","0.0-3.0-3.0-0.13","yxob5ykwd04gyzv","practice_cue","5de3c83c2033793be6591e53","5f60e3c0a3b16e07647b2ff9","5f64c2c26284b702c93d0bf6","false","null","<span style=""color: black; font-size: 48px"">M + N</span>","null","","","","resp_prompt","","","","","","","","","","","","","","","",""
"categorize-image","91","325790","0.0-3.0-3.0-1.13","yxob5ykwd04gyzv","practice_cue","5de3c83c2033793be6591e53","5f60e3c0a3b16e07647b2ff9","5f64c2c26284b702c93d0bf6","true","683.5900000005495","./Stimuli/ImagesPractice/SM98.jpg","83","","","","test","true","M + N","83","","SM","SM98.jpg","remember","old","30","2","practice_forget","left","","","",""
"html-keyboard-response","92","327791","0.0-3.0-3.0-3.13","yxob5ykwd04gyzv","practice_cue","5de3c83c2033793be6591e53","5f60e3c0a3b16e07647b2ff9","5f64c2c26284b702c93d0bf6","false","null","<div style=""align-items: center; display: flex; color: dodgerblue; font-size: 90px""><b>o</b></div>","null","","","","forget_cue","","","","","","","","","","","","","","","",""
"html-keyboard-response","93","328493","0.0-3.0-3.0-0.14","yxob5ykwd04gyzv","practice_cue","5de3c83c2033793be6591e53","5f60e3c0a3b16e07647b2ff9","5f64c2c26284b702c93d0bf6","false","null","<span style=""color: black; font-size: 48px"">M + N</span>","null","","","","resp_prompt","","","","","","","","","","","","","","","",""
"categorize-image","94","329253","0.0-3.0-3.0-1.14","yxob5ykwd04gyzv","practice_cue","5de3c83c2033793be6591e53","5f60e3c0a3b16e07647b2ff9","5f64c2c26284b702c93d0bf6","true","757.1549999993294","./Stimuli/ImagesPractice/LN2.jpg","76","","","","test","true","M + N","76","","LN","LN2.jpg","remember","old","31","2","practice_forget","right","","","",""
"html-keyboard-response","95","331258","0.0-3.0-3.0-3.14","yxob5ykwd04gyzv","practice_cue","5de3c83c2033793be6591e53","5f60e3c0a3b16e07647b2ff9","5f64c2c26284b702c93d0bf6","false","null","<div style=""align-items: center; display: flex; color: dodgerblue; font-size: 90px""><b>o</b></div>","null","","","","forget_cue","","","","","","","","","","","","","","","",""
"html-keyboard-response","96","331960","0.0-3.0-3.0-0.15","yxob5ykwd04gyzv","practice_cue","5de3c83c2033793be6591e53","5f60e3c0a3b16e07647b2ff9","5f64c2c26284b702c93d0bf6","false","null","<span style=""color: black; font-size: 48px"">N + M</span>","null","","","","resp_prompt","","","","","","","","","","","","","","","",""
"categorize-image","97","332648","0.0-3.0-3.0-1.15","yxob5ykwd04gyzv","practice_cue","5de3c83c2033793be6591e53","5f60e3c0a3b16e07647b2ff9","5f64c2c26284b702c93d0bf6","true","684.5399999874644","./Stimuli/ImagesPractice/LM224.jpg","83","","","","test","false","N + M","76","","LM","LM224.jpg","forget","old","32","2","practice_forget","left","","","",""
"html-keyboard-response","98","333150","0.0-3.0-3.0-2.15-0.15","yxob5ykwd04gyzv","practice_cue","5de3c83c2033793be6591e53","5f60e3c0a3b16e07647b2ff9","5f64c2c26284b702c93d0bf6","false","null","<span style=""color: red; font-size: 48px"">Error!</span>","null","","","","feedback","","","","","","","","","","","","","","","",""
"html-keyboard-response","99","335152","0.0-3.0-3.0-3.15","yxob5ykwd04gyzv","practice_cue","5de3c83c2033793be6591e53","5f60e3c0a3b16e07647b2ff9","5f64c2c26284b702c93d0bf6","false","null","<div style=""align-items: center; display: flex; color: darkorange; font-size: 90px""><b>ø</b></div>","null","","","","forget_cue","","","","","","","","","","","","","","","",""
"html-keyboard-response","100","339670","0.0-3.0-4.0","yxob5ykwd04gyzv","break","5de3c83c2033793be6591e53","5f60e3c0a3b16e07647b2ff9","5f64c2c26284b702c93d0bf6","false","4516.904999996768","<p style='font-size: 32px;'>Break</><br><br><br><br><br><p style='font-size: 24px;'>In the last block, you committed 5 errors and did not respond in time on 0 trials.
</p><p style='font-size: 24px;'>Try to respond as fast and accurately as possible in the next block as well! </p><p style='font-size: 24px;'>Press SPACE to continue.</p>","32","","","","","","","","","","","","","","","","","","","",""
"html-keyboard-response","101","357700","0.0-3.0-5.0","yxob5ykwd04gyzv","instructions","5de3c83c2033793be6591e53","5f60e3c0a3b16e07647b2ff9","5f64c2c26284b702c93d0bf6","false","18028.82999999565","<div align=left> Now, to practice, we kindly ask you to remember as many of the to-be-remembered pictures<br>of the previous learning phase as possible.<br><br>The pictures you were instructed to remember were the pictures followed by a <span style='color: dodgerblue; font-size: 28px'>O</span>.<br><br>In this memory test phase, you will also see some new pictures.<br>It is your task to remember whether you were presented with this specific picture in this study so far or not.<br>If you recognize an object (you have already seen it in this study), it is an OLD object. <br>If you do not recognize an object (you have NOT seen it in this study), it is a NEW object. <br><strong> Attention</strong>: As already mentioned, <span style='color: darkorange; font-size:28px'>Ø</span>-pictures will <strong>never</strong> appear in this memory test (neither as new objects). <br><br>Press SPACE to continue. </div>","32","","","","","","","","","","","","","","","","","","","",""
"html-keyboard-response","102","373459","0.0-3.0-6.0","yxob5ykwd04gyzv","instructions","5de3c83c2033793be6591e53","5f60e3c0a3b16e07647b2ff9","5f64c2c26284b702c93d0bf6","false","15757.385000004433","<div align=left> M and N no longer will appear on the left/right of the fixation cross. <br>Instead there will be a note at the bottom of the left or right side  <br>indicating which key you should press for an old or new object:  <br> <br>Press the <strong>right</strong> key to classify an object as <strong>old</strong> and press the <strong>left</strong>, to classify an object as <strong>new</strong>.<br>Please classify the objects as new/old by again placing your index finger on the 'S' and 'L' keys <br>and press them accordingly.<br><br><strong>Old:</strong> This object has been presented before. <br><strong>New:</strong> This object has <strong>not</strong> been presented.<br><br>Now please put your right and left index fingers on the 'S' and 'L' keys of your keyboard. <br>Please respond as fast and as accurately as possible!<br><br>Press SPACE to continue. </div>","32","","","","","","","","","","","","","","","","","","","",""
"categorize-image","103","374848","0.0-3.0-7.0-0.0","yxob5ykwd04gyzv","practice_recog","5de3c83c2033793be6591e53","5f60e3c0a3b16e07647b2ff9","5f64c2c26284b702c93d0bf6","true","884.9000000045635","./Stimuli/ImagesPractice/LM239.jpg","76","","","","test","false","","83","","LM","LM239.jpg","","old","33","3","practice_recog","right","","","",""
"categorize-image","104","377009","0.0-3.0-7.0-0.1","yxob5ykwd04gyzv","practice_recog","5de3c83c2033793be6591e53","5f60e3c0a3b16e07647b2ff9","5f64c2c26284b702c93d0bf6","true","1655.1150000013877","./Stimuli/ImagesPractice/LN15.jpg","76","","","","test","true","","76","","LN","LN15.jpg","","new","34","3","practice_recog","right","","","",""
"categorize-image","105","378255","0.0-3.0-7.0-0.2","yxob5ykwd04gyzv","practice_recog","5de3c83c2033793be6591e53","5f60e3c0a3b16e07647b2ff9","5f64c2c26284b702c93d0bf6","true","741.0300000046846","./Stimuli/ImagesPractice/SM35.jpg","83","","","","test","true","","83","","SM","SM35.jpg","","old","35","3","practice_recog","left","","","",""
"categorize-image","106","379627","0.0-3.0-7.0-0.3","yxob5ykwd04gyzv","practice_recog","5de3c83c2033793be6591e53","5f60e3c0a3b16e07647b2ff9","5f64c2c26284b702c93d0bf6","true","869.4599999871571","./Stimuli/ImagesPractice/SN75.jpg","76","","","","test","true","","76","","SN","SN75.jpg","","new","36","3","practice_recog","right","","","",""
"categorize-image","107","380883","0.0-3.0-7.0-0.4","yxob5ykwd04gyzv","practice_recog","5de3c83c2033793be6591e53","5f60e3c0a3b16e07647b2ff9","5f64c2c26284b702c93d0bf6","true","753.3300000068266","./Stimuli/ImagesPractice/LN72.jpg","76","","","","test","true","","76","","LN","LN72.jpg","","new","37","3","practice_recog","right","","","",""
"categorize-image","108","382037","0.0-3.0-7.0-0.5","yxob5ykwd04gyzv","practice_recog","5de3c83c2033793be6591e53","5f60e3c0a3b16e07647b2ff9","5f64c2c26284b702c93d0bf6","true","647.5150000187568","./Stimuli/ImagesPractice/LN2.jpg","83","","","","test","true","","83","","LN","LN2.jpg","","old","38","3","practice_recog","left","","","",""
"categorize-image","109","383248","0.0-3.0-7.0-0.6","yxob5ykwd04gyzv","practice_recog","5de3c83c2033793be6591e53","5f60e3c0a3b16e07647b2ff9","5f64c2c26284b702c93d0bf6","true","706.7399999941699","./Stimuli/ImagesPractice/LM55.jpg","83","","","","test","true","","83","","LM","LM55.jpg","","old","39","3","practice_recog","left","","","",""
"categorize-image","110","384428","0.0-3.0-7.0-0.7","yxob5ykwd04gyzv","practice_recog","5de3c83c2033793be6591e53","5f60e3c0a3b16e07647b2ff9","5f64c2c26284b702c93d0bf6","true","677.1350000053644","./Stimuli/ImagesPractice/LN109.jpg","76","","","","test","true","","76","","LN","LN109.jpg","","new","40","3","practice_recog","right","","","",""
"categorize-image","111","385841","0.0-3.0-7.0-0.8","yxob5ykwd04gyzv","practice_recog","5de3c83c2033793be6591e53","5f60e3c0a3b16e07647b2ff9","5f64c2c26284b702c93d0bf6","true","910.8249999990221","./Stimuli/ImagesPractice/LN4.jpg","76","","","","test","true","","76","","LN","LN4.jpg","","new","41","3","practice_recog","right","","","",""
"categorize-image","112","386994","0.0-3.0-7.0-0.9","yxob5ykwd04gyzv","practice_recog","5de3c83c2033793be6591e53","5f60e3c0a3b16e07647b2ff9","5f64c2c26284b702c93d0bf6","true","650.8949999988545","./Stimuli/ImagesPractice/LM147.jpg","76","","","","test","true","","76","","LM","LM147.jpg","","new","42","3","practice_recog","right","","","",""
"categorize-image","113","388099","0.0-3.0-7.0-0.10","yxob5ykwd04gyzv","practice_recog","5de3c83c2033793be6591e53","5f60e3c0a3b16e07647b2ff9","5f64c2c26284b702c93d0bf6","true","602.7849999954924","./Stimuli/ImagesPractice/SM62.jpg","83","","","","test","true","","83","","SM","SM62.jpg","","old","43","3","practice_recog","left","","","",""
"categorize-image","114","389261","0.0-3.0-7.0-0.11","yxob5ykwd04gyzv","practice_recog","5de3c83c2033793be6591e53","5f60e3c0a3b16e07647b2ff9","5f64c2c26284b702c93d0bf6","true","657.3750000097789","./Stimuli/ImagesPractice/SM98.jpg","83","","","","test","true","","83","","SM","SM98.jpg","","old","44","3","practice_recog","left","","","",""
"categorize-image","115","390559","0.0-3.0-7.0-0.12","yxob5ykwd04gyzv","practice_recog","5de3c83c2033793be6591e53","5f60e3c0a3b16e07647b2ff9","5f64c2c26284b702c93d0bf6","true","795.4050000116695","./Stimuli/ImagesPractice/SM97.jpg","83","","","","test","true","","83","","SM","SM97.jpg","","old","45","3","practice_recog","left","","","",""
"categorize-image","116","391907","0.0-3.0-7.0-0.13","yxob5ykwd04gyzv","practice_recog","5de3c83c2033793be6591e53","5f60e3c0a3b16e07647b2ff9","5f64c2c26284b702c93d0bf6","true","843.8749999913853","./Stimuli/ImagesPractice/LM230.jpg","76","","","","test","true","","76","","LM","LM230.jpg","","new","46","3","practice_recog","right","","","",""
"categorize-image","117","393353","0.0-3.0-7.0-0.14","yxob5ykwd04gyzv","practice_recog","5de3c83c2033793be6591e53","5f60e3c0a3b16e07647b2ff9","5f64c2c26284b702c93d0bf6","true","938.7750000169035","./Stimuli/ImagesPractice/SN220.jpg","76","","","","test","true","","76","","SN","SN220.jpg","","new","47","3","practice_recog","right","","","",""
"categorize-image","118","394512","0.0-3.0-7.0-0.15","yxob5ykwd04gyzv","practice_recog","5de3c83c2033793be6591e53","5f60e3c0a3b16e07647b2ff9","5f64c2c26284b702c93d0bf6","true","654.4149999972433","./Stimuli/ImagesPractice/SN205.jpg","83","","","","test","true","","83","","SN","SN205.jpg","","old","48","3","practice_recog","left","","","",""
"html-keyboard-response","119","405899","0.0-3.0-8.0","yxob5ykwd04gyzv","instructions","5de3c83c2033793be6591e53","5f60e3c0a3b16e07647b2ff9","5f64c2c26284b702c93d0bf6","false","11385.895000013988","<div align=left> Great!<br><br>Are you ready to continue?<br>If you want to reread the instructions and redo the practice trials, please <br>press „Z“.<br><br>You can proceed when you are ready.<br><br>After the presentation of each object, you will receive an instruction whether to <br>remember or to forget the object.<br>We will test your memory of the following pictures only at the very end of <br>the experiment after all learning blocks are completed. <br><br>Press SPACE to CONTINUE when you are ready. </div>","32","","","","","","","","","","","","","","","","","","","",""
"html-keyboard-response","120","414162","0.0-4.0-0.0","yxob5ykwd04gyzv","instructions","5de3c83c2033793be6591e53","5f60e3c0a3b16e07647b2ff9","5f64c2c26284b702c93d0bf6","false","8261.834999982966","<div align=left> The actual experiment is about to start.<br>The practice trials are over!<br><br>Please always respond both fast and accurately!<br><br>Remember: <br> <br><li> Please place your index fingers on the <strong>'S'</strong> and <strong>'L'</strong> keys <br>to respond as fast and accurately as possible.</li><li> Every picture can be classified as either mechanical or non-mechanical.</li><li> If you do not respond in time or commit an error, you will receive a corresponding feedback.<br> Please try to respond as <strong> fast </strong> and as <strong> accurately as possible </strong>.</li><li> Remember the <span style='color: dodgerblue; font-size: 28px'>O</span> pictures. <br></li><li> Please minimize distractions and stay focused. </li><br><br>Press SPACE to START.</div>","32","","","","","","","","","","","","","","","","","","","",""
"html-keyboard-response","121","414868","0.0-4.0-1.0-0.0","yxob5ykwd04gyzv","prime","5de3c83c2033793be6591e53","5f60e3c0a3b16e07647b2ff9","5f64c2c26284b702c93d0bf6","false","null","<span style=""color: black; font-size: 48px"">M + N</span>","null","","","","resp_prompt","","","","","","","","","","","","","","","",""
"categorize-image","122","415589","0.0-4.0-1.0-1.0","yxob5ykwd04gyzv","prime","5de3c83c2033793be6591e53","5f60e3c0a3b16e07647b2ff9","5f64c2c26284b702c93d0bf6","true","717.1700000180863","./Stimuli/SelectedImages/SN/SN155.bmp","76","","","","test","true","M + N","76","switch","SN","SN155.bmp","remember","","49","3","prime1","right","","","",""
"html-keyboard-response","123","417593","0.0-4.0-1.0-3.0","yxob5ykwd04gyzv","prime","5de3c83c2033793be6591e53","5f60e3c0a3b16e07647b2ff9","5f64c2c26284b702c93d0bf6","false","null","<div style=""align-items: center; display: flex; color: dodgerblue; font-size: 90px""><b>o</b></div>","null","","","","forget_cue","","","","","","","","","","","","","","","",""
"html-keyboard-response","124","418296","0.0-4.0-1.0-0.1","yxob5ykwd04gyzv","prime","5de3c83c2033793be6591e53","5f60e3c0a3b16e07647b2ff9","5f64c2c26284b702c93d0bf6","false","null","<span style=""color: black; font-size: 48px"">M + N</span>","null","","","","resp_prompt","","","","","","","","","","","","","","","",""
"categorize-image","125","419119","0.0-4.0-1.0-1.1","yxob5ykwd04gyzv","prime","5de3c83c2033793be6591e53","5f60e3c0a3b16e07647b2ff9","5f64c2c26284b702c93d0bf6","true","819.534999987809","./Stimuli/SelectedImages/SN/SN27.bmp","76","","","","test","true","M + N","76","repetition","SN","SN27.bmp","remember","","50","3","prime1","right","","","",""
"html-keyboard-response","126","421124","0.0-4.0-1.0-3.1","yxob5ykwd04gyzv","prime","5de3c83c2033793be6591e53","5f60e3c0a3b16e07647b2ff9","5f64c2c26284b702c93d0bf6","false","null","<div style=""align-items: center; display: flex; color: dodgerblue; font-size: 90px""><b>o</b></div>","null","","","","forget_cue","","","","","","","","","","","","","","","",""
"html-keyboard-response","127","421826","0.0-4.0-1.0-0.2","yxob5ykwd04gyzv","prime","5de3c83c2033793be6591e53","5f60e3c0a3b16e07647b2ff9","5f64c2c26284b702c93d0bf6","false","null","<span style=""color: black; font-size: 48px"">M + N</span>","null","","","","resp_prompt","","","","","","","","","","","","","","","",""
"categorize-image","128","422472","0.0-4.0-1.0-1.2","yxob5ykwd04gyzv","prime","5de3c83c2033793be6591e53","5f60e3c0a3b16e07647b2ff9","5f64c2c26284b702c93d0bf6","true","643.1100000045262","./Stimuli/SelectedImages/SM/SM195.bmp","83","","","","test","true","M + N","83","switch","SM","SM195.bmp","forget","","51","3","prime1","left","","","",""
"html-keyboard-response","129","424475","0.0-4.0-1.0-3.2","yxob5ykwd04gyzv","prime","5de3c83c2033793be6591e53","5f60e3c0a3b16e07647b2ff9","5f64c2c26284b702c93d0bf6","false","null","<div style=""align-items: center; display: flex; color: darkorange; font-size: 90px""><b>ø</b></div>","null","","","","forget_cue","","","","","","","","","","","","","","","",""
"html-keyboard-response","130","425176","0.0-4.0-1.0-0.3","yxob5ykwd04gyzv","prime","5de3c83c2033793be6591e53","5f60e3c0a3b16e07647b2ff9","5f64c2c26284b702c93d0bf6","false","null","<span style=""color: black; font-size: 48px"">M + N</span>","null","","","","resp_prompt","","","","","","","","","","","","","","","",""
"categorize-image","131","425853","0.0-4.0-1.0-1.3","yxob5ykwd04gyzv","prime","5de3c83c2033793be6591e53","5f60e3c0a3b16e07647b2ff9","5f64c2c26284b702c93d0bf6","true","674.1400000173599","./Stimuli/SelectedImages/LN/LN42.bmp","76","","","","test","true","M + N","76","switch","LN","LN42.bmp","remember","","52","3","prime1","right","","","",""
"html-keyboard-response","132","427857","0.0-4.0-1.0-3.3","yxob5ykwd04gyzv","prime","5de3c83c2033793be6591e53","5f60e3c0a3b16e07647b2ff9","5f64c2c26284b702c93d0bf6","false","null","<div style=""align-items: center; display: flex; color: dodgerblue; font-size: 90px""><b>o</b></div>","null","","","","forget_cue","","","","","","","","","","","","","","","",""
"html-keyboard-response","133","428560","0.0-4.0-1.0-0.4","yxob5ykwd04gyzv","prime","5de3c83c2033793be6591e53","5f60e3c0a3b16e07647b2ff9","5f64c2c26284b702c93d0bf6","false","null","<span style=""color: black; font-size: 48px"">M + N</span>","null","","","","resp_prompt","","","","","","","","","","","","","","","",""
"categorize-image","134","429883","0.0-4.0-1.0-1.4","yxob5ykwd04gyzv","prime","5de3c83c2033793be6591e53","5f60e3c0a3b16e07647b2ff9","5f64c2c26284b702c93d0bf6","true","1319.8100000154227","./Stimuli/SelectedImages/LN/LN150.bmp","76","","","","test","true","M + N","76","repetition","LN","LN150.bmp","forget","","53","3","prime1","right","","","",""
"html-keyboard-response","135","431887","0.0-4.0-1.0-3.4","yxob5ykwd04gyzv","prime","5de3c83c2033793be6591e53","5f60e3c0a3b16e07647b2ff9","5f64c2c26284b702c93d0bf6","false","null","<div style=""align-items: center; display: flex; color: darkorange; font-size: 90px""><b>ø</b></div>","null","","","","forget_cue","","","","","","","","","","","","","","","",""
"html-keyboard-response","136","432590","0.0-4.0-1.0-0.5","yxob5ykwd04gyzv","prime","5de3c83c2033793be6591e53","5f60e3c0a3b16e07647b2ff9","5f64c2c26284b702c93d0bf6","false","null","<span style=""color: black; font-size: 48px"">M + N</span>","null","","","","resp_prompt","","","","","","","","","","","","","","","",""
"categorize-image","137","433287","0.0-4.0-1.0-1.5","yxob5ykwd04gyzv","prime","5de3c83c2033793be6591e53","5f60e3c0a3b16e07647b2ff9","5f64c2c26284b702c93d0bf6","true","693.6850000056438","./Stimuli/SelectedImages/LM/LM100.bmp","83","","","","test","true","M + N","83","repetition","LM","LM100.bmp","forget","","54","3","prime1","left","","","",""
"html-keyboard-response","138","435289","0.0-4.0-1.0-3.5","yxob5ykwd04gyzv","prime","5de3c83c2033793be6591e53","5f60e3c0a3b16e07647b2ff9","5f64c2c26284b702c93d0bf6","false","null","<div style=""align-items: center; display: flex; color: darkorange; font-size: 90px""><b>ø</b></div>","null","","","","forget_cue","","","","","","","","","","","","","","","",""
"html-keyboard-response","139","435991","0.0-4.0-1.0-0.6","yxob5ykwd04gyzv","prime","5de3c83c2033793be6591e53","5f60e3c0a3b16e07647b2ff9","5f64c2c26284b702c93d0bf6","false","null","<span style=""color: black; font-size: 48px"">M + N</span>","null","","","","resp_prompt","","","","","","","","","","","","","","","",""
"categorize-image","140","436635","0.0-4.0-1.0-1.6","yxob5ykwd04gyzv","prime","5de3c83c2033793be6591e53","5f60e3c0a3b16e07647b2ff9","5f64c2c26284b702c93d0bf6","true","641.0199999809265","./Stimuli/SelectedImages/LN/LN177.bmp","76","","","","test","true","M + N","76","repetition","LN","LN177.bmp","forget","","55","3","prime1","right","","","",""
"html-keyboard-response","141","438638","0.0-4.0-1.0-3.6","yxob5ykwd04gyzv","prime","5de3c83c2033793be6591e53","5f60e3c0a3b16e07647b2ff9","5f64c2c26284b702c93d0bf6","false","null","<div style=""align-items: center; display: flex; color: darkorange; font-size: 90px""><b>ø</b></div>","null","","","","forget_cue","","","","","","","","","","","","","","","",""
"html-keyboard-response","142","439340","0.0-4.0-1.0-0.7","yxob5ykwd04gyzv","prime","5de3c83c2033793be6591e53","5f60e3c0a3b16e07647b2ff9","5f64c2c26284b702c93d0bf6","false","null","<span style=""color: black; font-size: 48px"">N + M</span>","null","","","","resp_prompt","","","","","","","","","","","","","","","",""
"categorize-image","143","440013","0.0-4.0-1.0-1.7","yxob5ykwd04gyzv","prime","5de3c83c2033793be6591e53","5f60e3c0a3b16e07647b2ff9","5f64c2c26284b702c93d0bf6","true","668.904999998631","./Stimuli/SelectedImages/SN/SN64.bmp","76","","","","test","false","N + M","83","repetition","SN","SN64.bmp","forget","","56","3","prime1","right","","","",""
"html-keyboard-response","144","440516","0.0-4.0-1.0-2.7-0.7","yxob5ykwd04gyzv","prime","5de3c83c2033793be6591e53","5f60e3c0a3b16e07647b2ff9","5f64c2c26284b702c93d0bf6","false","null","<span style=""color: red; font-size: 48px"">Error!</span>","null","","","","feedback","","","","","","","","","","","","","","","",""
"html-keyboard-response","145","442520","0.0-4.0-1.0-3.7","yxob5ykwd04gyzv","prime","5de3c83c2033793be6591e53","5f60e3c0a3b16e07647b2ff9","5f64c2c26284b702c93d0bf6","false","null","<div style=""align-items: center; display: flex; color: darkorange; font-size: 90px""><b>ø</b></div>","null","","","","forget_cue","","","","","","","","","","","","","","","",""
"html-keyboard-response","146","443224","0.0-4.0-1.0-0.8","yxob5ykwd04gyzv","prime","5de3c83c2033793be6591e53","5f60e3c0a3b16e07647b2ff9","5f64c2c26284b702c93d0bf6","false","null","<span style=""color: black; font-size: 48px"">M + N</span>","null","","","","resp_prompt","","","","","","","","","","","","","","","",""
"categorize-image","147","443797","0.0-4.0-1.0-1.8","yxob5ykwd04gyzv","prime","5de3c83c2033793be6591e53","5f60e3c0a3b16e07647b2ff9","5f64c2c26284b702c93d0bf6","true","568.3699999935925","./Stimuli/SelectedImages/LN/LN9.bmp","76","","","","test","true","M + N","76","switch","LN","LN9.bmp","forget","","57","3","prime1","right","","","",""
"html-keyboard-response","148","445799","0.0-4.0-1.0-3.8","yxob5ykwd04gyzv","prime","5de3c83c2033793be6591e53","5f60e3c0a3b16e07647b2ff9","5f64c2c26284b702c93d0bf6","false","null","<div style=""align-items: center; display: flex; color: darkorange; font-size: 90px""><b>ø</b></div>","null","","","","forget_cue","","","","","","","","","","","","","","","",""
"html-keyboard-response","149","446500","0.0-4.0-1.0-0.9","yxob5ykwd04gyzv","prime","5de3c83c2033793be6591e53","5f60e3c0a3b16e07647b2ff9","5f64c2c26284b702c93d0bf6","false","null","<span style=""color: black; font-size: 48px"">N + M</span>","null","","","","resp_prompt","","","","","","","","","","","","","","","",""
"categorize-image","150","447004","0.0-4.0-1.0-1.9","yxob5ykwd04gyzv","prime","5de3c83c2033793be6591e53","5f60e3c0a3b16e07647b2ff9","5f64c2c26284b702c93d0bf6","true","500.3300000098534","./Stimuli/SelectedImages/LN/LN92.bmp","76","","","","test","false","N + M","83","repetition","LN","LN92.bmp","forget","","58","3","prime1","right","","","",""
"html-keyboard-response","151","447505","0.0-4.0-1.0-2.9-0.9","yxob5ykwd04gyzv","prime","5de3c83c2033793be6591e53","5f60e3c0a3b16e07647b2ff9","5f64c2c26284b702c93d0bf6","false","null","<span style=""color: red; font-size: 48px"">Error!</span>","null","","","","feedback","","","","","","","","","","","","","","","",""
"html-keyboard-response","152","449507","0.0-4.0-1.0-3.9","yxob5ykwd04gyzv","prime","5de3c83c2033793be6591e53","5f60e3c0a3b16e07647b2ff9","5f64c2c26284b702c93d0bf6","false","null","<div style=""align-items: center; display: flex; color: darkorange; font-size: 90px""><b>ø</b></div>","null","","","","forget_cue","","","","","","","","","","","","","","","",""
"html-keyboard-response","153","450208","0.0-4.0-1.0-0.10","yxob5ykwd04gyzv","prime","5de3c83c2033793be6591e53","5f60e3c0a3b16e07647b2ff9","5f64c2c26284b702c93d0bf6","false","null","<span style=""color: black; font-size: 48px"">N + M</span>","null","","","","resp_prompt","","","","","","","","","","","","","","","",""
"categorize-image","154","450777","0.0-4.0-1.0-1.10","yxob5ykwd04gyzv","prime","5de3c83c2033793be6591e53","5f60e3c0a3b16e07647b2ff9","5f64c2c26284b702c93d0bf6","true","562.355000001844","./Stimuli/SelectedImages/SN/SN60.bmp","76","","","","test","false","N + M","83","switch","SN","SN60.bmp","forget","","59","3","prime1","right","","","",""
"html-keyboard-response","155","451279","0.0-4.0-1.0-2.10-0.10","yxob5ykwd04gyzv","prime","5de3c83c2033793be6591e53","5f60e3c0a3b16e07647b2ff9","5f64c2c26284b702c93d0bf6","false","null","<span style=""color: red; font-size: 48px"">Error!</span>","null","","","","feedback","","","","","","","","","","","","","","","",""
"html-keyboard-response","156","453281","0.0-4.0-1.0-3.10","yxob5ykwd04gyzv","prime","5de3c83c2033793be6591e53","5f60e3c0a3b16e07647b2ff9","5f64c2c26284b702c93d0bf6","false","null","<div style=""align-items: center; display: flex; color: darkorange; font-size: 90px""><b>ø</b></div>","null","","","","forget_cue","","","","","","","","","","","","","","","",""
"html-keyboard-response","157","453987","0.0-4.0-1.0-0.11","yxob5ykwd04gyzv","prime","5de3c83c2033793be6591e53","5f60e3c0a3b16e07647b2ff9","5f64c2c26284b702c93d0bf6","false","null","<span style=""color: black; font-size: 48px"">N + M</span>","null","","","","resp_prompt","","","","","","","","","","","","","","","",""
"categorize-image","158","454610","0.0-4.0-1.0-1.11","yxob5ykwd04gyzv","prime","5de3c83c2033793be6591e53","5f60e3c0a3b16e07647b2ff9","5f64c2c26284b702c93d0bf6","true","620.1799999980722","./Stimuli/SelectedImages/LM/LM167.bmp","83","","","","test","false","N + M","76","repetition","LM","LM167.bmp","remember","","60","3","prime1","left","","","",""
"html-keyboard-response","159","455112","0.0-4.0-1.0-2.11-0.11","yxob5ykwd04gyzv","prime","5de3c83c2033793be6591e53","5f60e3c0a3b16e07647b2ff9","5f64c2c26284b702c93d0bf6","false","null","<span style=""color: red; font-size: 48px"">Error!</span>","null","","","","feedback","","","","","","","","","","","","","","","",""
"html-keyboard-response","160","457115","0.0-4.0-1.0-3.11","yxob5ykwd04gyzv","prime","5de3c83c2033793be6591e53","5f60e3c0a3b16e07647b2ff9","5f64c2c26284b702c93d0bf6","false","null","<div style=""align-items: center; display: flex; color: dodgerblue; font-size: 90px""><b>o</b></div>","null","","","","forget_cue","","","","","","","","","","","","","","","",""
"html-keyboard-response","161","457821","0.0-4.0-1.0-0.12","yxob5ykwd04gyzv","prime","5de3c83c2033793be6591e53","5f60e3c0a3b16e07647b2ff9","5f64c2c26284b702c93d0bf6","false","null","<span style=""color: black; font-size: 48px"">M + N</span>","null","","","","resp_prompt","","","","","","","","","","","","","","","",""
"categorize-image","162","458458","0.0-4.0-1.0-1.12","yxob5ykwd04gyzv","prime","5de3c83c2033793be6591e53","5f60e3c0a3b16e07647b2ff9","5f64c2c26284b702c93d0bf6","true","633.2200000179","./Stimuli/SelectedImages/SN/SN182.bmp","76","","","","test","true","M + N","76","repetition","SN","SN182.bmp","forget","","61","3","prime1","right","","","",""
"html-keyboard-response","163","460459","0.0-4.0-1.0-3.12","yxob5ykwd04gyzv","prime","5de3c83c2033793be6591e53","5f60e3c0a3b16e07647b2ff9","5f64c2c26284b702c93d0bf6","false","null","<div style=""align-items: center; display: flex; color: darkorange; font-size: 90px""><b>ø</b></div>","null","","","","forget_cue","","","","","","","","","","","","","","","",""
"html-keyboard-response","164","461165","0.0-4.0-1.0-0.13","yxob5ykwd04gyzv","prime","5de3c83c2033793be6591e53","5f60e3c0a3b16e07647b2ff9","5f64c2c26284b702c93d0bf6","false","null","<span style=""color: black; font-size: 48px"">N + M</span>","null","","","","resp_prompt","","","","","","","","","","","","","","","",""
"categorize-image","165","461882","0.0-4.0-1.0-1.13","yxob5ykwd04gyzv","prime","5de3c83c2033793be6591e53","5f60e3c0a3b16e07647b2ff9","5f64c2c26284b702c93d0bf6","true","713.9199999801349","./Stimuli/SelectedImages/SM/SM213.bmp","83","","","","test","false","N + M","76","switch","SM","SM213.bmp","remember","","62","3","prime1","left","","","",""
"html-keyboard-response","166","462383","0.0-4.0-1.0-2.13-0.13","yxob5ykwd04gyzv","prime","5de3c83c2033793be6591e53","5f60e3c0a3b16e07647b2ff9","5f64c2c26284b702c93d0bf6","false","null","<span style=""color: red; font-size: 48px"">Error!</span>","null","","","","feedback","","","","","","","","","","","","","","","",""
"html-keyboard-response","167","464387","0.0-4.0-1.0-3.13","yxob5ykwd04gyzv","prime","5de3c83c2033793be6591e53","5f60e3c0a3b16e07647b2ff9","5f64c2c26284b702c93d0bf6","false","null","<div style=""align-items: center; display: flex; color: dodgerblue; font-size: 90px""><b>o</b></div>","null","","","","forget_cue","","","","","","","","","","","","","","","",""
"html-keyboard-response","168","465090","0.0-4.0-1.0-0.14","yxob5ykwd04gyzv","prime","5de3c83c2033793be6591e53","5f60e3c0a3b16e07647b2ff9","5f64c2c26284b702c93d0bf6","false","null","<span style=""color: black; font-size: 48px"">M + N</span>","null","","","","resp_prompt","","","","","","","","","","","","","","","",""
"categorize-image","169","465865","0.0-4.0-1.0-1.14","yxob5ykwd04gyzv","prime","5de3c83c2033793be6591e53","5f60e3c0a3b16e07647b2ff9","5f64c2c26284b702c93d0bf6","true","770.7999999984168","./Stimuli/SelectedImages/SM/SM74.bmp","83","","","","test","true","M + N","83","repetition","SM","SM74.bmp","forget","","63","3","prime1","left","","","",""
"html-keyboard-response","170","467869","0.0-4.0-1.0-3.14","yxob5ykwd04gyzv","prime","5de3c83c2033793be6591e53","5f60e3c0a3b16e07647b2ff9","5f64c2c26284b702c93d0bf6","false","null","<div style=""align-items: center; display: flex; color: darkorange; font-size: 90px""><b>ø</b></div>","null","","","","forget_cue","","","","","","","","","","","","","","","",""
"html-keyboard-response","171","468571","0.0-4.0-1.0-0.15","yxob5ykwd04gyzv","prime","5de3c83c2033793be6591e53","5f60e3c0a3b16e07647b2ff9","5f64c2c26284b702c93d0bf6","false","null","<span style=""color: black; font-size: 48px"">M + N</span>","null","","","","resp_prompt","","","","","","","","","","","","","","","",""
"categorize-image","172","469033","0.0-4.0-1.0-1.15","yxob5ykwd04gyzv","prime","5de3c83c2033793be6591e53","5f60e3c0a3b16e07647b2ff9","5f64c2c26284b702c93d0bf6","true","458.5500000102911","./Stimuli/SelectedImages/SN/SN93.bmp","76","","","","test","true","M + N","76","switch","SN","SN93.bmp","remember","","64","3","prime1","right","","","",""
"html-keyboard-response","173","471038","0.0-4.0-1.0-3.15","yxob5ykwd04gyzv","prime","5de3c83c2033793be6591e53","5f60e3c0a3b16e07647b2ff9","5f64c2c26284b702c93d0bf6","false","null","<div style=""align-items: center; display: flex; color: dodgerblue; font-size: 90px""><b>o</b></div>","null","","","","forget_cue","","","","","","","","","","","","","","","",""
"html-keyboard-response","174","471739","0.0-4.0-1.0-0.16","yxob5ykwd04gyzv","prime","5de3c83c2033793be6591e53","5f60e3c0a3b16e07647b2ff9","5f64c2c26284b702c93d0bf6","false","null","<span style=""color: black; font-size: 48px"">N + M</span>","null","","","","resp_prompt","","","","","","","","","","","","","","","",""
"categorize-image","175","472212","0.0-4.0-1.0-1.16","yxob5ykwd04gyzv","prime","5de3c83c2033793be6591e53","5f60e3c0a3b16e07647b2ff9","5f64c2c26284b702c93d0bf6","true","469.3099999858532","./Stimuli/SelectedImages/LN/LN13.bmp","76","","","","test","false","N + M","83","repetition","LN","LN13.bmp","remember","","65","3","prime1","right","","","",""
"html-keyboard-response","176","472712","0.0-4.0-1.0-2.16-0.16","yxob5ykwd04gyzv","prime","5de3c83c2033793be6591e53","5f60e3c0a3b16e07647b2ff9","5f64c2c26284b702c93d0bf6","false","null","<span style=""color: red; font-size: 48px"">Error!</span>","null","","","","feedback","","","","","","","","","","","","","","","",""
"html-keyboard-response","177","474715","0.0-4.0-1.0-3.16","yxob5ykwd04gyzv","prime","5de3c83c2033793be6591e53","5f60e3c0a3b16e07647b2ff9","5f64c2c26284b702c93d0bf6","false","null","<div style=""align-items: center; display: flex; color: dodgerblue; font-size: 90px""><b>o</b></div>","null","","","","forget_cue","","","","","","","","","","","","","","","",""
"html-keyboard-response","178","475419","0.0-4.0-1.0-0.17","yxob5ykwd04gyzv","prime","5de3c83c2033793be6591e53","5f60e3c0a3b16e07647b2ff9","5f64c2c26284b702c93d0bf6","false","null","<span style=""color: black; font-size: 48px"">M + N</span>","null","","","","resp_prompt","","","","","","","","","","","","","","","",""
"categorize-image","179","476023","0.0-4.0-1.0-1.17","yxob5ykwd04gyzv","prime","5de3c83c2033793be6591e53","5f60e3c0a3b16e07647b2ff9","5f64c2c26284b702c93d0bf6","true","600.7700000191107","./Stimuli/SelectedImages/LM/LM57.bmp","76","","","","test","false","M + N","83","repetition","LM","LM57.bmp","remember","","66","3","prime1","right","","","",""
"html-keyboard-response","180","476525","0.0-4.0-1.0-2.17-0.17","yxob5ykwd04gyzv","prime","5de3c83c2033793be6591e53","5f60e3c0a3b16e07647b2ff9","5f64c2c26284b702c93d0bf6","false","null","<span style=""color: red; font-size: 48px"">Error!</span>","null","","","","feedback","","","","","","","","","","","","","","","",""
"html-keyboard-response","181","478530","0.0-4.0-1.0-3.17","yxob5ykwd04gyzv","prime","5de3c83c2033793be6591e53","5f60e3c0a3b16e07647b2ff9","5f64c2c26284b702c93d0bf6","false","null","<div style=""align-items: center; display: flex; color: dodgerblue; font-size: 90px""><b>o</b></div>","null","","","","forget_cue","","","","","","","","","","","","","","","",""
"html-keyboard-response","182","479232","0.0-4.0-1.0-0.18","yxob5ykwd04gyzv","prime","5de3c83c2033793be6591e53","5f60e3c0a3b16e07647b2ff9","5f64c2c26284b702c93d0bf6","false","null","<span style=""color: black; font-size: 48px"">N + M</span>","null","","","","resp_prompt","","","","","","","","","","","","","","","",""
"categorize-image","183","479903","0.0-4.0-1.0-1.18","yxob5ykwd04gyzv","prime","5de3c83c2033793be6591e53","5f60e3c0a3b16e07647b2ff9","5f64c2c26284b702c93d0bf6","true","666.8199999839999","./Stimuli/SelectedImages/LN/LN111.bmp","76","","","","test","false","N + M","83","switch","LN","LN111.bmp","forget","","67","3","prime1","right","","","",""
"html-keyboard-response","184","480405","0.0-4.0-1.0-2.18-0.18","yxob5ykwd04gyzv","prime","5de3c83c2033793be6591e53","5f60e3c0a3b16e07647b2ff9","5f64c2c26284b702c93d0bf6","false","null","<span style=""color: red; font-size: 48px"">Error!</span>","null","","","","feedback","","","","","","","","","","","","","","","",""
"html-keyboard-response","185","482408","0.0-4.0-1.0-3.18","yxob5ykwd04gyzv","prime","5de3c83c2033793be6591e53","5f60e3c0a3b16e07647b2ff9","5f64c2c26284b702c93d0bf6","false","null","<div style=""align-items: center; display: flex; color: darkorange; font-size: 90px""><b>ø</b></div>","null","","","","forget_cue","","","","","","","","","","","","","","","",""
"html-keyboard-response","186","483112","0.0-4.0-1.0-0.19","yxob5ykwd04gyzv","prime","5de3c83c2033793be6591e53","5f60e3c0a3b16e07647b2ff9","5f64c2c26284b702c93d0bf6","false","null","<span style=""color: black; font-size: 48px"">N + M</span>","null","","","","resp_prompt","","","","","","","","","","","","","","","",""
"categorize-image","187","483692","0.0-4.0-1.0-1.19","yxob5ykwd04gyzv","prime","5de3c83c2033793be6591e53","5f60e3c0a3b16e07647b2ff9","5f64c2c26284b702c93d0bf6","true","577.3349999799393","./Stimuli/SelectedImages/LM/LM216.bmp","83","","","","test","false","N + M","76","repetition","LM","LM216.bmp","forget","","68","3","prime1","left","","","",""
"html-keyboard-response","188","484195","0.0-4.0-1.0-2.19-0.19","yxob5ykwd04gyzv","prime","5de3c83c2033793be6591e53","5f60e3c0a3b16e07647b2ff9","5f64c2c26284b702c93d0bf6","false","null","<span style=""color: red; font-size: 48px"">Error!</span>","null","","","","feedback","","","","","","","","","","","","","","","",""
"html-keyboard-response","189","486199","0.0-4.0-1.0-3.19","yxob5ykwd04gyzv","prime","5de3c83c2033793be6591e53","5f60e3c0a3b16e07647b2ff9","5f64c2c26284b702c93d0bf6","false","null","<div style=""align-items: center; display: flex; color: darkorange; font-size: 90px""><b>ø</b></div>","null","","","","forget_cue","","","","","","","","","","","","","","","",""
"html-keyboard-response","190","486901","0.0-4.0-1.0-0.20","yxob5ykwd04gyzv","prime","5de3c83c2033793be6591e53","5f60e3c0a3b16e07647b2ff9","5f64c2c26284b702c93d0bf6","false","null","<span style=""color: black; font-size: 48px"">N + M</span>","null","","","","resp_prompt","","","","","","","","","","","","","","","",""
"categorize-image","191","487531","0.0-4.0-1.0-1.20","yxob5ykwd04gyzv","prime","5de3c83c2033793be6591e53","5f60e3c0a3b16e07647b2ff9","5f64c2c26284b702c93d0bf6","true","626.3949999993201","./Stimuli/SelectedImages/SM/SM184.bmp","83","","","","test","false","N + M","76","switch","SM","SM184.bmp","forget","","69","3","prime1","left","","","",""
"html-keyboard-response","192","488032","0.0-4.0-1.0-2.20-0.20","yxob5ykwd04gyzv","prime","5de3c83c2033793be6591e53","5f60e3c0a3b16e07647b2ff9","5f64c2c26284b702c93d0bf6","false","null","<span style=""color: red; font-size: 48px"">Error!</span>","null","","","","feedback","","","","","","","","","","","","","","","",""
"html-keyboard-response","193","490039","0.0-4.0-1.0-3.20","yxob5ykwd04gyzv","prime","5de3c83c2033793be6591e53","5f60e3c0a3b16e07647b2ff9","5f64c2c26284b702c93d0bf6","false","null","<div style=""align-items: center; display: flex; color: darkorange; font-size: 90px""><b>ø</b></div>","null","","","","forget_cue","","","","","","","","","","","","","","","",""
"html-keyboard-response","194","490740","0.0-4.0-1.0-0.21","yxob5ykwd04gyzv","prime","5de3c83c2033793be6591e53","5f60e3c0a3b16e07647b2ff9","5f64c2c26284b702c93d0bf6","false","null","<span style=""color: black; font-size: 48px"">N + M</span>","null","","","","resp_prompt","","","","","","","","","","","","","","","",""
"categorize-image","195","491578","0.0-4.0-1.0-1.21","yxob5ykwd04gyzv","prime","5de3c83c2033793be6591e53","5f60e3c0a3b16e07647b2ff9","5f64c2c26284b702c93d0bf6","true","835.2600000216626","./Stimuli/SelectedImages/LM/LM157.bmp","83","","","","test","false","N + M","76","repetition","LM","LM157.bmp","forget","","70","3","prime1","left","","","",""
"html-keyboard-response","196","492081","0.0-4.0-1.0-2.21-0.21","yxob5ykwd04gyzv","prime","5de3c83c2033793be6591e53","5f60e3c0a3b16e07647b2ff9","5f64c2c26284b702c93d0bf6","false","null","<span style=""color: red; font-size: 48px"">Error!</span>","null","","","","feedback","","","","","","","","","","","","","","","",""
"html-keyboard-response","197","494086","0.0-4.0-1.0-3.21","yxob5ykwd04gyzv","prime","5de3c83c2033793be6591e53","5f60e3c0a3b16e07647b2ff9","5f64c2c26284b702c93d0bf6","false","null","<div style=""align-items: center; display: flex; color: darkorange; font-size: 90px""><b>ø</b></div>","null","","","","forget_cue","","","","","","","","","","","","","","","",""
"html-keyboard-response","198","494789","0.0-4.0-1.0-0.22","yxob5ykwd04gyzv","prime","5de3c83c2033793be6591e53","5f60e3c0a3b16e07647b2ff9","5f64c2c26284b702c93d0bf6","false","null","<span style=""color: black; font-size: 48px"">M + N</span>","null","","","","resp_prompt","","","","","","","","","","","","","","","",""
"categorize-image","199","495643","0.0-4.0-1.0-1.22","yxob5ykwd04gyzv","prime","5de3c83c2033793be6591e53","5f60e3c0a3b16e07647b2ff9","5f64c2c26284b702c93d0bf6","true","850.6699999852572","./Stimuli/SelectedImages/LM/LM75.bmp","83","","","","test","true","M + N","83","switch","LM","LM75.bmp","forget","","71","3","prime1","left","","","",""
"html-keyboard-response","200","497645","0.0-4.0-1.0-3.22","yxob5ykwd04gyzv","prime","5de3c83c2033793be6591e53","5f60e3c0a3b16e07647b2ff9","5f64c2c26284b702c93d0bf6","false","null","<div style=""align-items: center; display: flex; color: darkorange; font-size: 90px""><b>ø</b></div>","null","","","","forget_cue","","","","","","","","","","","","","","","",""
"html-keyboard-response","201","498349","0.0-4.0-1.0-0.23","yxob5ykwd04gyzv","prime","5de3c83c2033793be6591e53","5f60e3c0a3b16e07647b2ff9","5f64c2c26284b702c93d0bf6","false","null","<span style=""color: black; font-size: 48px"">N + M</span>","null","","","","resp_prompt","","","","","","","","","","","","","","","",""
"categorize-image","202","498993","0.0-4.0-1.0-1.23","yxob5ykwd04gyzv","prime","5de3c83c2033793be6591e53","5f60e3c0a3b16e07647b2ff9","5f64c2c26284b702c93d0bf6","true","640.9950000233948","./Stimuli/SelectedImages/LN/LN82.bmp","76","","","","test","false","N + M","83","switch","LN","LN82.bmp","remember","","72","3","prime1","right","","","",""
"html-keyboard-response","203","499495","0.0-4.0-1.0-2.23-0.23","yxob5ykwd04gyzv","prime","5de3c83c2033793be6591e53","5f60e3c0a3b16e07647b2ff9","5f64c2c26284b702c93d0bf6","false","null","<span style=""color: red; font-size: 48px"">Error!</span>","null","","","","feedback","","","","","","","","","","","","","","","",""
"html-keyboard-response","204","501502","0.0-4.0-1.0-3.23","yxob5ykwd04gyzv","prime","5de3c83c2033793be6591e53","5f60e3c0a3b16e07647b2ff9","5f64c2c26284b702c93d0bf6","false","null","<div style=""align-items: center; display: flex; color: dodgerblue; font-size: 90px""><b>o</b></div>","null","","","","forget_cue","","","","","","","","","","","","","","","",""
"html-keyboard-response","205","502204","0.0-4.0-1.0-0.24","yxob5ykwd04gyzv","prime","5de3c83c2033793be6591e53","5f60e3c0a3b16e07647b2ff9","5f64c2c26284b702c93d0bf6","false","null","<span style=""color: black; font-size: 48px"">M + N</span>","null","","","","resp_prompt","","","","","","","","","","","","","","","",""
"categorize-image","206","503057","0.0-4.0-1.0-1.24","yxob5ykwd04gyzv","prime","5de3c83c2033793be6591e53","5f60e3c0a3b16e07647b2ff9","5f64c2c26284b702c93d0bf6","true","850.1049999904353","./Stimuli/SelectedImages/LM/LM48.bmp","83","","","","test","true","M + N","83","switch","LM","LM48.bmp","remember","","73","3","prime1","left","","","",""
"html-keyboard-response","207","505059","0.0-4.0-1.0-3.24","yxob5ykwd04gyzv","prime","5de3c83c2033793be6591e53","5f60e3c0a3b16e07647b2ff9","5f64c2c26284b702c93d0bf6","false","null","<div style=""align-items: center; display: flex; color: dodgerblue; font-size: 90px""><b>o</b></div>","null","","","","forget_cue","","","","","","","","","","","","","","","",""
"html-keyboard-response","208","505765","0.0-4.0-1.0-0.25","yxob5ykwd04gyzv","prime","5de3c83c2033793be6591e53","5f60e3c0a3b16e07647b2ff9","5f64c2c26284b702c93d0bf6","false","null","<span style=""color: black; font-size: 48px"">N + M</span>","null","","","","resp_prompt","","","","","","","","","","","","","","","",""
"categorize-image","209","506379","0.0-4.0-1.0-1.25","yxob5ykwd04gyzv","prime","5de3c83c2033793be6591e53","5f60e3c0a3b16e07647b2ff9","5f64c2c26284b702c93d0bf6","true","609.4199999934062","./Stimuli/SelectedImages/LM/LM103.bmp","83","","","","test","false","N + M","76","switch","LM","LM103.bmp","forget","","74","3","prime1","left","","","",""
"html-keyboard-response","210","506882","0.0-4.0-1.0-2.25-0.25","yxob5ykwd04gyzv","prime","5de3c83c2033793be6591e53","5f60e3c0a3b16e07647b2ff9","5f64c2c26284b702c93d0bf6","false","null","<span style=""color: red; font-size: 48px"">Error!</span>","null","","","","feedback","","","","","","","","","","","","","","","",""
"html-keyboard-response","211","508884","0.0-4.0-1.0-3.25","yxob5ykwd04gyzv","prime","5de3c83c2033793be6591e53","5f60e3c0a3b16e07647b2ff9","5f64c2c26284b702c93d0bf6","false","null","<div style=""align-items: center; display: flex; color: darkorange; font-size: 90px""><b>ø</b></div>","null","","","","forget_cue","","","","","","","","","","","","","","","",""
"html-keyboard-response","212","509588","0.0-4.0-1.0-0.26","yxob5ykwd04gyzv","prime","5de3c83c2033793be6591e53","5f60e3c0a3b16e07647b2ff9","5f64c2c26284b702c93d0bf6","false","null","<span style=""color: black; font-size: 48px"">M + N</span>","null","","","","resp_prompt","","","","","","","","","","","","","","","",""
"categorize-image","213","510230","0.0-4.0-1.0-1.26","yxob5ykwd04gyzv","prime","5de3c83c2033793be6591e53","5f60e3c0a3b16e07647b2ff9","5f64c2c26284b702c93d0bf6","true","639.40499999444","./Stimuli/SelectedImages/SN/SN240.bmp","76","","","","test","true","M + N","76","repetition","SN","SN240.bmp","forget","","75","3","prime1","right","","","",""
"html-keyboard-response","214","512232","0.0-4.0-1.0-3.26","yxob5ykwd04gyzv","prime","5de3c83c2033793be6591e53","5f60e3c0a3b16e07647b2ff9","5f64c2c26284b702c93d0bf6","false","null","<div style=""align-items: center; display: flex; color: darkorange; font-size: 90px""><b>ø</b></div>","null","","","","forget_cue","","","","","","","","","","","","","","","",""
"html-keyboard-response","215","512937","0.0-4.0-1.0-0.27","yxob5ykwd04gyzv","prime","5de3c83c2033793be6591e53","5f60e3c0a3b16e07647b2ff9","5f64c2c26284b702c93d0bf6","false","null","<span style=""color: black; font-size: 48px"">N + M</span>","null","","","","resp_prompt","","","","","","","","","","","","","","","",""
"categorize-image","216","513855","0.0-4.0-1.0-1.27","yxob5ykwd04gyzv","prime","5de3c83c2033793be6591e53","5f60e3c0a3b16e07647b2ff9","5f64c2c26284b702c93d0bf6","true","914.2649999994319","./Stimuli/SelectedImages/SM/SM17.bmp","83","","","","test","false","N + M","76","switch","SM","SM17.bmp","remember","","76","3","prime1","left","","","",""
"html-keyboard-response","217","514357","0.0-4.0-1.0-2.27-0.27","yxob5ykwd04gyzv","prime","5de3c83c2033793be6591e53","5f60e3c0a3b16e07647b2ff9","5f64c2c26284b702c93d0bf6","false","null","<span style=""color: red; font-size: 48px"">Error!</span>","null","","","","feedback","","","","","","","","","","","","","","","",""
"html-keyboard-response","218","516359","0.0-4.0-1.0-3.27","yxob5ykwd04gyzv","prime","5de3c83c2033793be6591e53","5f60e3c0a3b16e07647b2ff9","5f64c2c26284b702c93d0bf6","false","null","<div style=""align-items: center; display: flex; color: dodgerblue; font-size: 90px""><b>o</b></div>","null","","","","forget_cue","","","","","","","","","","","","","","","",""
"html-keyboard-response","219","517060","0.0-4.0-1.0-0.28","yxob5ykwd04gyzv","prime","5de3c83c2033793be6591e53","5f60e3c0a3b16e07647b2ff9","5f64c2c26284b702c93d0bf6","false","null","<span style=""color: black; font-size: 48px"">N + M</span>","null","","","","resp_prompt","","","","","","","","","","","","","","","",""
"categorize-image","220","517654","0.0-4.0-1.0-1.28","yxob5ykwd04gyzv","prime","5de3c83c2033793be6591e53","5f60e3c0a3b16e07647b2ff9","5f64c2c26284b702c93d0bf6","true","591.0600000061095","./Stimuli/SelectedImages/SN/SN49.bmp","76","","","","test","false","N + M","83","repetition","SN","SN49.bmp","remember","","77","3","prime1","right","","","",""
"html-keyboard-response","221","518155","0.0-4.0-1.0-2.28-0.28","yxob5ykwd04gyzv","prime","5de3c83c2033793be6591e53","5f60e3c0a3b16e07647b2ff9","5f64c2c26284b702c93d0bf6","false","null","<span style=""color: red; font-size: 48px"">Error!</span>","null","","","","feedback","","","","","","","","","","","","","","","",""
"html-keyboard-response","222","520156","0.0-4.0-1.0-3.28","yxob5ykwd04gyzv","prime","5de3c83c2033793be6591e53","5f60e3c0a3b16e07647b2ff9","5f64c2c26284b702c93d0bf6","false","null","<div style=""align-items: center; display: flex; color: dodgerblue; font-size: 90px""><b>o</b></div>","null","","","","forget_cue","","","","","","","","","","","","","","","",""
"html-keyboard-response","223","520857","0.0-4.0-1.0-0.29","yxob5ykwd04gyzv","prime","5de3c83c2033793be6591e53","5f60e3c0a3b16e07647b2ff9","5f64c2c26284b702c93d0bf6","false","null","<span style=""color: black; font-size: 48px"">M + N</span>","null","","","","resp_prompt","","","","","","","","","","","","","","","",""
"categorize-image","224","521510","0.0-4.0-1.0-1.29","yxob5ykwd04gyzv","prime","5de3c83c2033793be6591e53","5f60e3c0a3b16e07647b2ff9","5f64c2c26284b702c93d0bf6","true","649.7150000068359","./Stimuli/SelectedImages/LN/LN28.bmp","76","","","","test","true","M + N","76","repetition","LN","LN28.bmp","remember","","78","3","prime1","right","","","",""
"html-keyboard-response","225","523514","0.0-4.0-1.0-3.29","yxob5ykwd04gyzv","prime","5de3c83c2033793be6591e53","5f60e3c0a3b16e07647b2ff9","5f64c2c26284b702c93d0bf6","false","null","<div style=""align-items: center; display: flex; color: dodgerblue; font-size: 90px""><b>o</b></div>","null","","","","forget_cue","","","","","","","","","","","","","","","",""
"html-keyboard-response","226","524220","0.0-4.0-1.0-0.30","yxob5ykwd04gyzv","prime","5de3c83c2033793be6591e53","5f60e3c0a3b16e07647b2ff9","5f64c2c26284b702c93d0bf6","false","null","<span style=""color: black; font-size: 48px"">M + N</span>","null","","","","resp_prompt","","","","","","","","","","","","","","","",""
"categorize-image","227","524935","0.0-4.0-1.0-1.30","yxob5ykwd04gyzv","prime","5de3c83c2033793be6591e53","5f60e3c0a3b16e07647b2ff9","5f64c2c26284b702c93d0bf6","true","712.4599999806378","./Stimuli/SelectedImages/SN/SN128.bmp","76","","","","test","true","M + N","76","repetition","SN","SN128.bmp","remember","","79","3","prime1","right","","","",""
"html-keyboard-response","228","526936","0.0-4.0-1.0-3.30","yxob5ykwd04gyzv","prime","5de3c83c2033793be6591e53","5f60e3c0a3b16e07647b2ff9","5f64c2c26284b702c93d0bf6","false","null","<div style=""align-items: center; display: flex; color: dodgerblue; font-size: 90px""><b>o</b></div>","null","","","","forget_cue","","","","","","","","","","","","","","","",""
"html-keyboard-response","229","527638","0.0-4.0-1.0-0.31","yxob5ykwd04gyzv","prime","5de3c83c2033793be6591e53","5f60e3c0a3b16e07647b2ff9","5f64c2c26284b702c93d0bf6","false","null","<span style=""color: black; font-size: 48px"">M + N</span>","null","","","","resp_prompt","","","","","","","","","","","","","","","",""
"categorize-image","230","528151","0.0-4.0-1.0-1.31","yxob5ykwd04gyzv","prime","5de3c83c2033793be6591e53","5f60e3c0a3b16e07647b2ff9","5f64c2c26284b702c93d0bf6","true","509.3650000053458","./Stimuli/SelectedImages/LM/LM179.bmp","83","","","","test","true","M + N","83","switch","LM","LM179.bmp","remember","","80","3","prime1","left","","","",""
"html-keyboard-response","231","530153","0.0-4.0-1.0-3.31","yxob5ykwd04gyzv","prime","5de3c83c2033793be6591e53","5f60e3c0a3b16e07647b2ff9","5f64c2c26284b702c93d0bf6","false","null","<div style=""align-items: center; display: flex; color: dodgerblue; font-size: 90px""><b>o</b></div>","null","","","","forget_cue","","","","","","","","","","","","","","","",""
"html-keyboard-response","232","530855","0.0-4.0-1.0-0.32","yxob5ykwd04gyzv","prime","5de3c83c2033793be6591e53","5f60e3c0a3b16e07647b2ff9","5f64c2c26284b702c93d0bf6","false","null","<span style=""color: black; font-size: 48px"">N + M</span>","null","","","","resp_prompt","","","","","","","","","","","","","","","",""
"categorize-image","233","531462","0.0-4.0-1.0-1.32","yxob5ykwd04gyzv","prime","5de3c83c2033793be6591e53","5f60e3c0a3b16e07647b2ff9","5f64c2c26284b702c93d0bf6","true","604.1449999902397","./Stimuli/SelectedImages/SN/SN111.bmp","76","","","","test","false","N + M","83","repetition","SN","SN111.bmp","remember","","81","3","prime1","right","","","",""
"html-keyboard-response","234","531964","0.0-4.0-1.0-2.32-0.32","yxob5ykwd04gyzv","prime","5de3c83c2033793be6591e53","5f60e3c0a3b16e07647b2ff9","5f64c2c26284b702c93d0bf6","false","null","<span style=""color: red; font-size: 48px"">Error!</span>","null","","","","feedback","","","","","","","","","","","","","","","",""
"html-keyboard-response","235","533968","0.0-4.0-1.0-3.32","yxob5ykwd04gyzv","prime","5de3c83c2033793be6591e53","5f60e3c0a3b16e07647b2ff9","5f64c2c26284b702c93d0bf6","false","null","<div style=""align-items: center; display: flex; color: dodgerblue; font-size: 90px""><b>o</b></div>","null","","","","forget_cue","","","","","","","","","","","","","","","",""
"html-keyboard-response","236","534673","0.0-4.0-1.0-0.33","yxob5ykwd04gyzv","prime","5de3c83c2033793be6591e53","5f60e3c0a3b16e07647b2ff9","5f64c2c26284b702c93d0bf6","false","null","<span style=""color: black; font-size: 48px"">N + M</span>","null","","","","resp_prompt","","","","","","","","","","","","","","","",""
"categorize-image","237","535282","0.0-4.0-1.0-1.33","yxob5ykwd04gyzv","prime","5de3c83c2033793be6591e53","5f60e3c0a3b16e07647b2ff9","5f64c2c26284b702c93d0bf6","true","605.4649999714456","./Stimuli/SelectedImages/LN/LN149.bmp","76","","","","test","false","N + M","83","switch","LN","LN149.bmp","forget","","82","3","prime1","right","","","",""
"html-keyboard-response","238","535785","0.0-4.0-1.0-2.33-0.33","yxob5ykwd04gyzv","prime","5de3c83c2033793be6591e53","5f60e3c0a3b16e07647b2ff9","5f64c2c26284b702c93d0bf6","false","null","<span style=""color: red; font-size: 48px"">Error!</span>","null","","","","feedback","","","","","","","","","","","","","","","",""
"html-keyboard-response","239","537787","0.0-4.0-1.0-3.33","yxob5ykwd04gyzv","prime","5de3c83c2033793be6591e53","5f60e3c0a3b16e07647b2ff9","5f64c2c26284b702c93d0bf6","false","null","<div style=""align-items: center; display: flex; color: darkorange; font-size: 90px""><b>ø</b></div>","null","","","","forget_cue","","","","","","","","","","","","","","","",""
"html-keyboard-response","240","538488","0.0-4.0-1.0-0.34","yxob5ykwd04gyzv","prime","5de3c83c2033793be6591e53","5f60e3c0a3b16e07647b2ff9","5f64c2c26284b702c93d0bf6","false","null","<span style=""color: black; font-size: 48px"">M + N</span>","null","","","","resp_prompt","","","","","","","","","","","","","","","",""
"categorize-image","241","539215","0.0-4.0-1.0-1.34","yxob5ykwd04gyzv","prime","5de3c83c2033793be6591e53","5f60e3c0a3b16e07647b2ff9","5f64c2c26284b702c93d0bf6","true","723.1249999895226","./Stimuli/SelectedImages/SM/SM76.bmp","83","","","","test","true","M + N","83","switch","SM","SM76.bmp","remember","","83","3","prime1","left","","","",""
"html-keyboard-response","242","541219","0.0-4.0-1.0-3.34","yxob5ykwd04gyzv","prime","5de3c83c2033793be6591e53","5f60e3c0a3b16e07647b2ff9","5f64c2c26284b702c93d0bf6","false","null","<div style=""align-items: center; display: flex; color: dodgerblue; font-size: 90px""><b>o</b></div>","null","","","","forget_cue","","","","","","","","","","","","","","","",""
"html-keyboard-response","243","541920","0.0-4.0-1.0-0.35","yxob5ykwd04gyzv","prime","5de3c83c2033793be6591e53","5f60e3c0a3b16e07647b2ff9","5f64c2c26284b702c93d0bf6","false","null","<span style=""color: black; font-size: 48px"">M + N</span>","null","","","","resp_prompt","","","","","","","","","","","","","","","",""
"categorize-image","244","542495","0.0-4.0-1.0-1.35","yxob5ykwd04gyzv","prime","5de3c83c2033793be6591e53","5f60e3c0a3b16e07647b2ff9","5f64c2c26284b702c93d0bf6","true","571.3350000150967","./Stimuli/SelectedImages/LM/LM51.bmp","83","","","","test","true","M + N","83","repetition","LM","LM51.bmp","remember","","84","3","prime1","left","","","",""
"html-keyboard-response","245","544498","0.0-4.0-1.0-3.35","yxob5ykwd04gyzv","prime","5de3c83c2033793be6591e53","5f60e3c0a3b16e07647b2ff9","5f64c2c26284b702c93d0bf6","false","null","<div style=""align-items: center; display: flex; color: dodgerblue; font-size: 90px""><b>o</b></div>","null","","","","forget_cue","","","","","","","","","","","","","","","",""
"html-keyboard-response","246","545201","0.0-4.0-1.0-0.36","yxob5ykwd04gyzv","prime","5de3c83c2033793be6591e53","5f60e3c0a3b16e07647b2ff9","5f64c2c26284b702c93d0bf6","false","null","<span style=""color: black; font-size: 48px"">N + M</span>","null","","","","resp_prompt","","","","","","","","","","","","","","","",""
"categorize-image","247","545842","0.0-4.0-1.0-1.36","yxob5ykwd04gyzv","prime","5de3c83c2033793be6591e53","5f60e3c0a3b16e07647b2ff9","5f64c2c26284b702c93d0bf6","true","638.5749999899417","./Stimuli/SelectedImages/LM/LM58.bmp","83","","","","test","false","N + M","76","switch","LM","LM58.bmp","remember","","85","3","prime1","left","","","",""
"html-keyboard-response","248","546344","0.0-4.0-1.0-2.36-0.36","yxob5ykwd04gyzv","prime","5de3c83c2033793be6591e53","5f60e3c0a3b16e07647b2ff9","5f64c2c26284b702c93d0bf6","false","null","<span style=""color: red; font-size: 48px"">Error!</span>","null","","","","feedback","","","","","","","","","","","","","","","",""
"html-keyboard-response","249","548348","0.0-4.0-1.0-3.36","yxob5ykwd04gyzv","prime","5de3c83c2033793be6591e53","5f60e3c0a3b16e07647b2ff9","5f64c2c26284b702c93d0bf6","false","null","<div style=""align-items: center; display: flex; color: dodgerblue; font-size: 90px""><b>o</b></div>","null","","","","forget_cue","","","","","","","","","","","","","","","",""
"html-keyboard-response","250","549051","0.0-4.0-1.0-0.37","yxob5ykwd04gyzv","prime","5de3c83c2033793be6591e53","5f60e3c0a3b16e07647b2ff9","5f64c2c26284b702c93d0bf6","false","null","<span style=""color: black; font-size: 48px"">N + M</span>","null","","","","resp_prompt","","","","","","","","","","","","","","","",""
"categorize-image","251","549656","0.0-4.0-1.0-1.37","yxob5ykwd04gyzv","prime","5de3c83c2033793be6591e53","5f60e3c0a3b16e07647b2ff9","5f64c2c26284b702c93d0bf6","true","601.9450000021607","./Stimuli/SelectedImages/LN/LN59.bmp","76","","","","test","false","N + M","83","switch","LN","LN59.bmp","remember","","86","3","prime1","right","","","",""
"html-keyboard-response","252","550157","0.0-4.0-1.0-2.37-0.37","yxob5ykwd04gyzv","prime","5de3c83c2033793be6591e53","5f60e3c0a3b16e07647b2ff9","5f64c2c26284b702c93d0bf6","false","null","<span style=""color: red; font-size: 48px"">Error!</span>","null","","","","feedback","","","","","","","","","","","","","","","",""
"html-keyboard-response","253","552158","0.0-4.0-1.0-3.37","yxob5ykwd04gyzv","prime","5de3c83c2033793be6591e53","5f60e3c0a3b16e07647b2ff9","5f64c2c26284b702c93d0bf6","false","null","<div style=""align-items: center; display: flex; color: dodgerblue; font-size: 90px""><b>o</b></div>","null","","","","forget_cue","","","","","","","","","","","","","","","",""
