"trial_type","trial_index","time_elapsed","internal_node_id","subject","exp_part","prolific_PID","study_ID","session_ID","use","rt","stimulus","key_press","button_pressed","responses","question_order","trial_part","correct","resp_map","correct_resp","probe_condition","category","image","forget_condition","list","trial_num","block_num","block","response","test_part","n_span","sequence","num_spaces"
"pavlovia","0","18","0.0-0.0","kjae8p0sqgm6lew","","5e8f49e5cb8d6321556f8e8e","5f60e3c0a3b16e07647b2ff9","5f64c2c8be42420210496565","false","","","","","","","","","","","","","","","","","","","","","","",""
"html-keyboard-response","1","47077","0.0-1.0-0.0-0.0","kjae8p0sqgm6lew","welcome","5e8f49e5cb8d6321556f8e8e","5f60e3c0a3b16e07647b2ff9","5f64c2c8be42420210496565","false","47047.13500000071","<div align=left>Dear participant, <br> thank you for participating in an online study of the Cognition, Action, and Sustainability Unit of the University of Freiburg! <br> <br>The aim of this study is to examine our ability to remember previously learned information. <br>Our goal is to find out, whether our memory improves, when we only remember information that is relevant to us. <br>The experiment will take about 35 minutes to complete. <br> <br>Please, note that you can only participate in this study if you are using a device with a keyboard (PC, Laptop etc.) <br>and not if you are using a mobile device such as a tablet or smartphone.<br> <br>Press 'SPACE' to proceed to the experiment. </div>","32","","","","","","","","","","","","","","","","","","","",""
"html-keyboard-response","2","50392","0.0-1.0-0.0-1.0","kjae8p0sqgm6lew","welcome","5e8f49e5cb8d6321556f8e8e","5f60e3c0a3b16e07647b2ff9","5f64c2c8be42420210496565","false","3311.439999990398","<div align=left><strong> Time Course of this experiment: </strong> <br><br> <strong> 1.</strong>  First, please fill in some information regarding your demographic data. <br><br> <strong> 2.</strong>  Next, your task will be to classify everyday objects. <br>In addition, you will be asked to remember certain objects and recall them later. <br>Working on these tasks requires your undivided attention and concentration.<br>It is therefore essential that you eliminate any sources of distraction in your  <br>environment and ensure that you will not be disturbed. <br><br><strong> 3.</strong>  At the end of the experiment, you will be asked to answer a few additional questions. <br> <br><strong> Important:</strong> After finishing the experiment, only close the browser window <br> by clicking on the 'end the experiment'-button when you are asked to do so. <br>Closing the browser window prematurely will make the allocation of your participation credit impossible. <br><br> Press 'SPACE' to start the experiment. </div>","32","","","","","","","","","","","","","","","","","","","",""
"html-button-response","3","52627","0.0-1.0-0.0-2.0","kjae8p0sqgm6lew","welcome","5e8f49e5cb8d6321556f8e8e","5f60e3c0a3b16e07647b2ff9","5f64c2c8be42420210496565","true","2228.0249999894295","<div align=left><strong> Informed consent </strong>  <br>The aim of our research is to better understand human behavior and mental processes. <br>In the following study your behavior (e.g. choices, reaction times) will be studied. <br> <br><strong> Voluntariness and Anonymity </strong> <br>Your participation in this study is  <strong> voluntary</strong>.<br>You may withdraw your consent to participate at any time without providing a reason for doing so and without fear of prejudice. <br><br>As no personal data will be collected, <strong>your data and your person cannot be connected after data collection</strong> – the data-set is anonymous. <br>Respectively, deletion of your data will not be possible after data collection has been completed, as we cannot retrace your data-set.<br>The results and anonymized data collected in this study will be published as a scientific publication. <br>This will happen in an <strong>anonymized format</strong>, so that no data can be traced back to a specific person. <br> <br>The anonymized data of this study will be made available to other researchers and/or in a data archive on the Internet as a means of transparency and to enable subsequent re-use. By doing so, this study follows the recommendations of the Deutsche Forschungsgemeinschaft (DFG, German Research Foundation) and Deutsche Gesellschaft für Psychologie (DGPS, German Psychological Society) regarding quality assurance in research.<br>If you have any questions now or after the experiment, please contact our team (experiments@cs.uni-freiburg.de).<br><br><br>I hereby declare, that I understand the above described conditions of participation and I agree to participate under these conditions. <br><br> </div>","","0","","","","","","","","","","","","","","","","","","",""
"html-keyboard-response","4","75555","0.0-1.0-0.0-3.0","kjae8p0sqgm6lew","welcome","5e8f49e5cb8d6321556f8e8e","5f60e3c0a3b16e07647b2ff9","5f64c2c8be42420210496565","false","22919.15999999037","<div align=left><strong> General information concerning the experiment </strong>  <br> <br>Please follow the instructions:<ol> <li><strong> Do not leave this tab (your browser window) during the experiment and do not reload this tab! </strong>  <br>If you do switch tabs/windows during the experiment (to check your mail or visit another website, for example), <br>the experiment will end automatically and you will <strong>not receive credit</strong> for your participation. <br>Repeated participation or resumption of the experiment is impossible.</li> <br><li>Please close all other programs for the duration of your participation. </li> <br><li>Please mute or turn off your phone and put it out of your reach. </li> <br><li>Please also take off any disturbing accessories (such as wristwatches, bracelets, etc.). </li> <br><li>If you have music playing in the background, please turn it off now. </li> <br></ol>Thank you! <br>Press 'SPACE' to continue. </div>","32","","","","","","","","","","","","","","","","","","","",""
"survey-text","5","79435","0.0-1.0-1.0-0.0","kjae8p0sqgm6lew","demographics","5e8f49e5cb8d6321556f8e8e","5f60e3c0a3b16e07647b2ff9","5f64c2c8be42420210496565","true","3857.6849999953993","","","","{""age"":""18""}","","","","","","","","","","","","","","","","","",""
"survey-multi-choice","6","91605","0.0-1.0-1.0-1.0","kjae8p0sqgm6lew","demographics","5e8f49e5cb8d6321556f8e8e","5f60e3c0a3b16e07647b2ff9","5f64c2c8be42420210496565","true","12160.130000003846","","","","{""gender"":""female"",""school"":""high school"",""education"":""High school graduate, diploma or equivalent""}","[0,1,2]","","","","","","","","","","","","","","","","",""
"html-keyboard-response","7","108831","0.0-1.0-2.0","kjae8p0sqgm6lew","instructions","5e8f49e5cb8d6321556f8e8e","5f60e3c0a3b16e07647b2ff9","5f64c2c8be42420210496565","false","17218.74499999103","<div align=left> The experiment is now about to start: <br> <br>In the following part, you will be presented pictures of everyday objects. <br>Your first task is to <strong>classify these objects. </strong> <br> <br> You will classify them either as mechanical or non-mechanical objects. <br> <br>Objects that include any kind of technical mechanism (for example, wheels, switches, levers, <br> electronic components) fall under the category of <strong>mechanical</strong> objects. <br>Only objects without any kind of technical mechanism should be classified as <strong>non-mechanical</strong>. <br><br>Press 'SPACE' to continue. </div>","32","","","","","","","","","","","","","","","","","","","",""
"html-keyboard-response","8","154230","0.0-2.0-0.0","kjae8p0sqgm6lew","instructions","5e8f49e5cb8d6321556f8e8e","5f60e3c0a3b16e07647b2ff9","5f64c2c8be42420210496565","false","45396.86999999685","<div align=justify>You will classify the objects using the <strong>'S'</strong> and the <strong>'L'</strong> keys on your keyboard.<br>For doing so, please place your <strong>left index finger</strong> on the <strong>'S'</strong> key and place your <strong>right index finger</strong> on the <strong>'L'</strong> key. <br><br> Each trial starts with an instruction, indicating which key ('S'/'L') you need to press to classify <br>the object as mechanical (letter M) or non-mechanical (letter N).<br>The instruction <strong>M + N</strong> indicates that, in the current trial, by pressing the left key ('S') you classify the displayed object as mechanical (M) <br> and by pressing the right key ('L') you classify the object as non-mechanical (N). <br>The instruction <strong>N + M</strong> on the other hand indicates that by pressing the left key ('S') you classify the displayed object as non-mechanical (N) <br> and by pressing the right key ('L') you classify the object as mechanical (M). <br><br>Please press the key corresponding to the correct classification as fast as possible as soon as the object is displayed and try to avoid making mistakes.<br>If you do not respond within a 2 second window, a corresponding feedback will be displayed and the next trial will start.<br> The experiment is divided into multiple blocks to give you the opportunity to take a break after each block. <br>First, you can now practice this task. <br><br>Please place your <strong>LEFT INDEX FINGER</strong> on the 'S' key and your <strong>RIGHT INDEX FINGER</strong> on the 'L' key now. <br><br>Press SPACE to continue.</div>","32","","","","","","","","","","","","","","","","","","","",""
"html-keyboard-response","9","159105","0.0-2.0-1.0","kjae8p0sqgm6lew","instructions","5e8f49e5cb8d6321556f8e8e","5f60e3c0a3b16e07647b2ff9","5f64c2c8be42420210496565","false","4872.685000009369","<div align=left> You will now have time to practice this task.<br><br>Remember: <br> <br><li>Please place your index fingers on the <strong>'S'</strong> and <strong>'L'</strong> keys <br>to respond as fast and accurately as possible.</li><li>Every picture can be classified as either mechanical or non-mechanical.</li><li>If you do not respond in time or commit an error, you will receive a corresponding feedback. </li><li> Please try to respond as <strong> fast </strong> and as <strong> accurately as possible </strong> .<br><li>To ensure optimal results, please minimize distractions and stay focused. </li><br><br>Press SPACE to continue.</div>","32","","","","","","","","","","","","","","","","","","","",""
"html-keyboard-response","10","159811","0.0-2.0-2.0-0.0","kjae8p0sqgm6lew","practice_no_cue","5e8f49e5cb8d6321556f8e8e","5f60e3c0a3b16e07647b2ff9","5f64c2c8be42420210496565","false","null","<span style=""color: black; font-size: 48px"">N + M</span>","null","","","","resp_prompt","","","","","","","","","","","","","","","",""
"categorize-image","11","162319","0.0-2.0-2.0-1.0","kjae8p0sqgm6lew","practice_no_cue","5e8f49e5cb8d6321556f8e8e","5f60e3c0a3b16e07647b2ff9","5f64c2c8be42420210496565","true","null","./Stimuli/ImagesPractice/SM97.jpg","null","","","","test","false","N + M","76","","SM","SM97.jpg","forget","old","1","1","start","too_slow","","","",""
"html-keyboard-response","12","163027","0.0-2.0-2.0-0.1","kjae8p0sqgm6lew","practice_no_cue","5e8f49e5cb8d6321556f8e8e","5f60e3c0a3b16e07647b2ff9","5f64c2c8be42420210496565","false","null","<span style=""color: black; font-size: 48px"">M + N</span>","null","","","","resp_prompt","","","","","","","","","","","","","","","",""
"categorize-image","13","164569","0.0-2.0-2.0-1.1","kjae8p0sqgm6lew","practice_no_cue","5e8f49e5cb8d6321556f8e8e","5f60e3c0a3b16e07647b2ff9","5f64c2c8be42420210496565","true","993.4050000156276","./Stimuli/ImagesPractice/SN221.jpg","76","","","","test","true","M + N","76","","SN","SN221.jpg","remember","old","2","1","start","right","","","",""
"html-keyboard-response","14","165323","0.0-2.0-2.0-0.2","kjae8p0sqgm6lew","practice_no_cue","5e8f49e5cb8d6321556f8e8e","5f60e3c0a3b16e07647b2ff9","5f64c2c8be42420210496565","false","null","<span style=""color: black; font-size: 48px"">M + N</span>","null","","","","resp_prompt","","","","","","","","","","","","","","","",""
"categorize-image","15","166779","0.0-2.0-2.0-1.2","kjae8p0sqgm6lew","practice_no_cue","5e8f49e5cb8d6321556f8e8e","5f60e3c0a3b16e07647b2ff9","5f64c2c8be42420210496565","true","916.8249999929685","./Stimuli/ImagesPractice/SN205.jpg","76","","","","test","true","M + N","76","","SN","SN205.jpg","forget","old","3","1","start","right","","","",""
"html-keyboard-response","16","167484","0.0-2.0-2.0-0.3","kjae8p0sqgm6lew","practice_no_cue","5e8f49e5cb8d6321556f8e8e","5f60e3c0a3b16e07647b2ff9","5f64c2c8be42420210496565","false","null","<span style=""color: black; font-size: 48px"">N + M</span>","null","","","","resp_prompt","","","","","","","","","","","","","","","",""
"categorize-image","17","169933","0.0-2.0-2.0-1.3","kjae8p0sqgm6lew","practice_no_cue","5e8f49e5cb8d6321556f8e8e","5f60e3c0a3b16e07647b2ff9","5f64c2c8be42420210496565","true","1942.4399999843445","./Stimuli/ImagesPractice/SM37.jpg","83","","","","test","false","N + M","76","","SM","SM37.jpg","forget","old","4","1","start","left","","","",""
"html-keyboard-response","18","170635","0.0-2.0-2.0-0.4","kjae8p0sqgm6lew","practice_no_cue","5e8f49e5cb8d6321556f8e8e","5f60e3c0a3b16e07647b2ff9","5f64c2c8be42420210496565","false","null","<span style=""color: black; font-size: 48px"">N + M</span>","null","","","","resp_prompt","","","","","","","","","","","","","","","",""
"categorize-image","19","172173","0.0-2.0-2.0-1.4","kjae8p0sqgm6lew","practice_no_cue","5e8f49e5cb8d6321556f8e8e","5f60e3c0a3b16e07647b2ff9","5f64c2c8be42420210496565","true","1031.539999996312","./Stimuli/ImagesPractice/SN76.jpg","83","","","","test","true","N + M","83","","SN","SN76.jpg","forget","old","5","1","start","left","","","",""
"html-keyboard-response","20","172876","0.0-2.0-2.0-0.5","kjae8p0sqgm6lew","practice_no_cue","5e8f49e5cb8d6321556f8e8e","5f60e3c0a3b16e07647b2ff9","5f64c2c8be42420210496565","false","null","<span style=""color: black; font-size: 48px"">M + N</span>","null","","","","resp_prompt","","","","","","","","","","","","","","","",""
"categorize-image","21","174475","0.0-2.0-2.0-1.5","kjae8p0sqgm6lew","practice_no_cue","5e8f49e5cb8d6321556f8e8e","5f60e3c0a3b16e07647b2ff9","5f64c2c8be42420210496565","true","1094.119999994291","./Stimuli/ImagesPractice/LN109.jpg","76","","","","test","true","M + N","76","","LN","LN109.jpg","forget","old","6","1","start","right","","","",""
"html-keyboard-response","22","175179","0.0-2.0-2.0-0.6","kjae8p0sqgm6lew","practice_no_cue","5e8f49e5cb8d6321556f8e8e","5f60e3c0a3b16e07647b2ff9","5f64c2c8be42420210496565","false","null","<span style=""color: black; font-size: 48px"">N + M</span>","null","","","","resp_prompt","","","","","","","","","","","","","","","",""
"categorize-image","23","176969","0.0-2.0-2.0-1.6","kjae8p0sqgm6lew","practice_no_cue","5e8f49e5cb8d6321556f8e8e","5f60e3c0a3b16e07647b2ff9","5f64c2c8be42420210496565","true","1283.2850000122562","./Stimuli/ImagesPractice/LN15.jpg","83","","","","test","true","N + M","83","","LN","LN15.jpg","remember","old","7","1","start","left","","","",""
"html-keyboard-response","24","177673","0.0-2.0-2.0-0.7","kjae8p0sqgm6lew","practice_no_cue","5e8f49e5cb8d6321556f8e8e","5f60e3c0a3b16e07647b2ff9","5f64c2c8be42420210496565","false","null","<span style=""color: black; font-size: 48px"">M + N</span>","null","","","","resp_prompt","","","","","","","","","","","","","","","",""
"categorize-image","25","179069","0.0-2.0-2.0-1.7","kjae8p0sqgm6lew","practice_no_cue","5e8f49e5cb8d6321556f8e8e","5f60e3c0a3b16e07647b2ff9","5f64c2c8be42420210496565","true","890.1600000099279","./Stimuli/ImagesPractice/LN2.jpg","76","","","","test","true","M + N","76","","LN","LN2.jpg","remember","old","8","1","start","right","","","",""
"html-keyboard-response","26","179777","0.0-2.0-2.0-0.8","kjae8p0sqgm6lew","practice_no_cue","5e8f49e5cb8d6321556f8e8e","5f60e3c0a3b16e07647b2ff9","5f64c2c8be42420210496565","false","null","<span style=""color: black; font-size: 48px"">M + N</span>","null","","","","resp_prompt","","","","","","","","","","","","","","","",""
"categorize-image","27","181257","0.0-2.0-2.0-1.8","kjae8p0sqgm6lew","practice_no_cue","5e8f49e5cb8d6321556f8e8e","5f60e3c0a3b16e07647b2ff9","5f64c2c8be42420210496565","true","972.669999988284","./Stimuli/ImagesPractice/SM35.jpg","76","","","","test","false","M + N","83","","SM","SM35.jpg","forget","old","9","1","start","right","","","",""
"html-keyboard-response","28","181960","0.0-2.0-2.0-0.9","kjae8p0sqgm6lew","practice_no_cue","5e8f49e5cb8d6321556f8e8e","5f60e3c0a3b16e07647b2ff9","5f64c2c8be42420210496565","false","null","<span style=""color: black; font-size: 48px"">N + M</span>","null","","","","resp_prompt","","","","","","","","","","","","","","","",""
"categorize-image","29","183409","0.0-2.0-2.0-1.9","kjae8p0sqgm6lew","practice_no_cue","5e8f49e5cb8d6321556f8e8e","5f60e3c0a3b16e07647b2ff9","5f64c2c8be42420210496565","true","943.7249999900814","./Stimuli/ImagesPractice/LM224.jpg","76","","","","test","true","N + M","76","","LM","LM224.jpg","forget","old","10","1","start","right","","","",""
"html-keyboard-response","30","184113","0.0-2.0-2.0-0.10","kjae8p0sqgm6lew","practice_no_cue","5e8f49e5cb8d6321556f8e8e","5f60e3c0a3b16e07647b2ff9","5f64c2c8be42420210496565","false","null","<span style=""color: black; font-size: 48px"">N + M</span>","null","","","","resp_prompt","","","","","","","","","","","","","","","",""
"categorize-image","31","185683","0.0-2.0-2.0-1.10","kjae8p0sqgm6lew","practice_no_cue","5e8f49e5cb8d6321556f8e8e","5f60e3c0a3b16e07647b2ff9","5f64c2c8be42420210496565","true","1065.5099999858066","./Stimuli/ImagesPractice/LN4.jpg","76","","","","test","false","N + M","83","","LN","LN4.jpg","remember","old","11","1","start","right","","","",""
"html-keyboard-response","32","186386","0.0-2.0-2.0-0.11","kjae8p0sqgm6lew","practice_no_cue","5e8f49e5cb8d6321556f8e8e","5f60e3c0a3b16e07647b2ff9","5f64c2c8be42420210496565","false","null","<span style=""color: black; font-size: 48px"">M + N</span>","null","","","","resp_prompt","","","","","","","","","","","","","","","",""
"categorize-image","33","187705","0.0-2.0-2.0-1.11","kjae8p0sqgm6lew","practice_no_cue","5e8f49e5cb8d6321556f8e8e","5f60e3c0a3b16e07647b2ff9","5f64c2c8be42420210496565","true","812.1849999879487","./Stimuli/ImagesPractice/SN220.jpg","76","","","","test","true","M + N","76","","SN","SN220.jpg","forget","old","12","1","start","right","","","",""
"html-keyboard-response","34","188408","0.0-2.0-2.0-0.12","kjae8p0sqgm6lew","practice_no_cue","5e8f49e5cb8d6321556f8e8e","5f60e3c0a3b16e07647b2ff9","5f64c2c8be42420210496565","false","null","<span style=""color: black; font-size: 48px"">N + M</span>","null","","","","resp_prompt","","","","","","","","","","","","","","","",""
"categorize-image","35","189991","0.0-2.0-2.0-1.12","kjae8p0sqgm6lew","practice_no_cue","5e8f49e5cb8d6321556f8e8e","5f60e3c0a3b16e07647b2ff9","5f64c2c8be42420210496565","true","1077.3599999956787","./Stimuli/ImagesPractice/LM147.jpg","76","","","","test","true","N + M","76","","LM","LM147.jpg","remember","old","13","1","start","right","","","",""
"html-keyboard-response","36","190696","0.0-2.0-2.0-0.13","kjae8p0sqgm6lew","practice_no_cue","5e8f49e5cb8d6321556f8e8e","5f60e3c0a3b16e07647b2ff9","5f64c2c8be42420210496565","false","null","<span style=""color: black; font-size: 48px"">M + N</span>","null","","","","resp_prompt","","","","","","","","","","","","","","","",""
"categorize-image","37","191932","0.0-2.0-2.0-1.13","kjae8p0sqgm6lew","practice_no_cue","5e8f49e5cb8d6321556f8e8e","5f60e3c0a3b16e07647b2ff9","5f64c2c8be42420210496565","true","730.5849999829661","./Stimuli/ImagesPractice/LN72.jpg","76","","","","test","true","M + N","76","","LN","LN72.jpg","remember","old","14","1","start","right","","","",""
"html-keyboard-response","38","192635","0.0-2.0-2.0-0.14","kjae8p0sqgm6lew","practice_no_cue","5e8f49e5cb8d6321556f8e8e","5f60e3c0a3b16e07647b2ff9","5f64c2c8be42420210496565","false","null","<span style=""color: black; font-size: 48px"">M + N</span>","null","","","","resp_prompt","","","","","","","","","","","","","","","",""
"categorize-image","39","193639","0.0-2.0-2.0-1.14","kjae8p0sqgm6lew","practice_no_cue","5e8f49e5cb8d6321556f8e8e","5f60e3c0a3b16e07647b2ff9","5f64c2c8be42420210496565","true","498.59999999171123","./Stimuli/ImagesPractice/LM230.jpg","83","","","","test","true","M + N","83","","LM","LM230.jpg","remember","old","15","1","start","left","","","",""
"html-keyboard-response","40","194342","0.0-2.0-2.0-0.15","kjae8p0sqgm6lew","practice_no_cue","5e8f49e5cb8d6321556f8e8e","5f60e3c0a3b16e07647b2ff9","5f64c2c8be42420210496565","false","null","<span style=""color: black; font-size: 48px"">N + M</span>","null","","","","resp_prompt","","","","","","","","","","","","","","","",""
"categorize-image","41","196473","0.0-2.0-2.0-1.15","kjae8p0sqgm6lew","practice_no_cue","5e8f49e5cb8d6321556f8e8e","5f60e3c0a3b16e07647b2ff9","5f64c2c8be42420210496565","true","1626.2599999899976","./Stimuli/ImagesPractice/LM143.jpg","76","","","","test","true","N + M","76","","LM","LM143.jpg","remember","old","16","1","start","right","","","",""
"html-keyboard-response","42","200222","0.0-2.0-3.0","kjae8p0sqgm6lew","break","5e8f49e5cb8d6321556f8e8e","5f60e3c0a3b16e07647b2ff9","5f64c2c8be42420210496565","false","3743.5000000114087","<p style='font-size: 32px;'>Break</><br><br><br><br><br><p style='font-size: 24px;'>In the last block, you committed 3 errors and did not respond in time on 1 trials.
</p><p style='font-size: 24px;'>Try to respond as fast and accurately as possible in the next block as well! </p><p style='font-size: 24px;'>Press SPACE to continue.</p>","32","","","","","","","","","","","","","","","","","","","",""
"html-keyboard-response","43","202789","0.0-2.0-4.0","kjae8p0sqgm6lew","instructions","5e8f49e5cb8d6321556f8e8e","5f60e3c0a3b16e07647b2ff9","5f64c2c8be42420210496565","false","2562.00499998522","<div align=left> Great!<br><br>Are you ready to continue?<br><br>If you want to reread the instructions and redo the practice trials, <br>please press „Z“. <br><br>Press SPACE to CONTINUE with the experiment when you are ready. </div>","32","","","","","","","","","","","","","","","","","","","",""
"html-keyboard-response","44","220613","0.0-3.0-0.0","kjae8p0sqgm6lew","instructions","5e8f49e5cb8d6321556f8e8e","5f60e3c0a3b16e07647b2ff9","5f64c2c8be42420210496565","false","17820.300000021234","<div align=left>Great!<br> <strong>Attention</strong>! You will now receive a second, additional task! <br><br>To this point it was you <strong>first task</strong> to correctly <strong>classify objects</strong>. <br><br>As mentioned in the beginning, we aim to examine how well humans can remember previously learned information.<br>We would like to find out whether our memory improves if we only remember information that is relevant to us. <br><br>Therefore, your <strong>second task</strong> will be to <strong>remember</strong> the pictures you are to categorize. <br> After the learning phase, there will be a memory test phase, in which you will be asked to indicate whether you have seen a picture before or not. <br>Some, but not all pictures shown in the learning phase will appear in the memory test phase.<br>After classifying a picture, you will be told whether you should remember it for the memory test phase or not. <br>Thus, some pictures can be forgotten, whereas others have to be remembered. <br><br>Note: From now on, feedback will only be displayed if you responded incorrectly or not in time.<br><br>Press SPACE to continue.</div>","32","","","","","","","","","","","","","","","","","","","",""
"html-keyboard-response","45","234114","0.0-3.0-1.0","kjae8p0sqgm6lew","instructions","5e8f49e5cb8d6321556f8e8e","5f60e3c0a3b16e07647b2ff9","5f64c2c8be42420210496565","false","13498.315000004368","<div align=left>In the following part, you will thus have to remember only some pictures. <br>Immediately after seeing and classifying the picture, a symbol will be displayed, indicating whether you should remember or forget the previous picture. <br><br>A <span style='color: dodgerblue; font-size: 28px'>O</span> indicates REMEMBER. That means, you have to remember this picture, because it will be tested later. <br><br>A <span style='color: darkorange; font-size:28px'>Ø</span> indicates FORGET. You do not have to remember this picture. <br><br> As you will have to remember a lot of pictures, it will be hard for you to remember all of them. <br>It will put you at an advantage if you instantly forget the pictures you are not asked to remember. <br> This will make it easier for you to remember the pictures that will be tested afterwards. <br><br>Press SPACE to continue.</div>","32","","","","","","","","","","","","","","","","","","","",""
"html-keyboard-response","46","238434","0.0-3.0-2.0","kjae8p0sqgm6lew","instructions","5e8f49e5cb8d6321556f8e8e","5f60e3c0a3b16e07647b2ff9","5f64c2c8be42420210496565","false","4318.395000009332","<div align=left> Now you have the chance to practice both tasks together.<br><br>Remember: <br> <br><li>Please place your index fingers on the <strong>'S'</strong> and <strong>'L'</strong> keys <br>to respond as fast and accurately as possible.</li><li>Every picture can be classified as either mechanical or non-mechanical.</li><li>If you do not respond in time or commit an error, you will receive a corresponding feedback. <br>Please try to respond as <strong> fast </strong> and as <strong> accurately as possible </strong>.</li><li> Please remember only the to-be-remembered <span style='color: dodgerblue; font-size: 28px'>O</span> pictures. <br></li><li> Please minimize distractions and stay focused. </li><br><br>Press SPACE to START</div>","32","","","","","","","","","","","","","","","","","","","",""
"html-keyboard-response","47","239173","0.0-3.0-3.0-0.0","kjae8p0sqgm6lew","practice_cue","5e8f49e5cb8d6321556f8e8e","5f60e3c0a3b16e07647b2ff9","5f64c2c8be42420210496565","false","null","<span style=""color: black; font-size: 48px"">N + M</span>","null","","","","resp_prompt","","","","","","","","","","","","","","","",""
"categorize-image","48","240355","0.0-3.0-3.0-1.0","kjae8p0sqgm6lew","practice_cue","5e8f49e5cb8d6321556f8e8e","5f60e3c0a3b16e07647b2ff9","5f64c2c8be42420210496565","true","1173.2799999881536","./Stimuli/ImagesPractice/LM147.jpg","83","","","","test","false","N + M","76","","LM","LM147.jpg","remember","old","17","2","practice_forget","left","","","",""
"html-keyboard-response","49","240865","0.0-3.0-3.0-2.0-0.0","kjae8p0sqgm6lew","practice_cue","5e8f49e5cb8d6321556f8e8e","5f60e3c0a3b16e07647b2ff9","5f64c2c8be42420210496565","false","null","<span style=""color: red; font-size: 48px"">Error!</span>","null","","","","feedback","","","","","","","","","","","","","","","",""
"html-keyboard-response","50","242884","0.0-3.0-3.0-3.0","kjae8p0sqgm6lew","practice_cue","5e8f49e5cb8d6321556f8e8e","5f60e3c0a3b16e07647b2ff9","5f64c2c8be42420210496565","false","null","<div style=""align-items: center; display: flex; color: dodgerblue; font-size: 90px""><b>o</b></div>","null","","","","forget_cue","","","","","","","","","","","","","","","",""
"html-keyboard-response","51","243592","0.0-3.0-3.0-0.1","kjae8p0sqgm6lew","practice_cue","5e8f49e5cb8d6321556f8e8e","5f60e3c0a3b16e07647b2ff9","5f64c2c8be42420210496565","false","null","<span style=""color: black; font-size: 48px"">M + N</span>","null","","","","resp_prompt","","","","","","","","","","","","","","","",""
"categorize-image","52","244324","0.0-3.0-3.0-1.1","kjae8p0sqgm6lew","practice_cue","5e8f49e5cb8d6321556f8e8e","5f60e3c0a3b16e07647b2ff9","5f64c2c8be42420210496565","true","725.2849999931641","./Stimuli/ImagesPractice/LN2.jpg","76","","","","test","true","M + N","76","","LN","LN2.jpg","remember","old","18","2","practice_forget","right","","","",""
"html-keyboard-response","53","246354","0.0-3.0-3.0-3.1","kjae8p0sqgm6lew","practice_cue","5e8f49e5cb8d6321556f8e8e","5f60e3c0a3b16e07647b2ff9","5f64c2c8be42420210496565","false","null","<div style=""align-items: center; display: flex; color: dodgerblue; font-size: 90px""><b>o</b></div>","null","","","","forget_cue","","","","","","","","","","","","","","","",""
"html-keyboard-response","54","247123","0.0-3.0-3.0-0.2","kjae8p0sqgm6lew","practice_cue","5e8f49e5cb8d6321556f8e8e","5f60e3c0a3b16e07647b2ff9","5f64c2c8be42420210496565","false","null","<span style=""color: black; font-size: 48px"">M + N</span>","null","","","","resp_prompt","","","","","","","","","","","","","","","",""
"categorize-image","55","248298","0.0-3.0-3.0-1.2","kjae8p0sqgm6lew","practice_cue","5e8f49e5cb8d6321556f8e8e","5f60e3c0a3b16e07647b2ff9","5f64c2c8be42420210496565","true","1162.5899999926332","./Stimuli/ImagesPractice/SN205.jpg","76","","","","test","true","M + N","76","","SN","SN205.jpg","forget","old","19","2","practice_forget","right","","","",""
"html-keyboard-response","56","250302","0.0-3.0-3.0-3.2","kjae8p0sqgm6lew","practice_cue","5e8f49e5cb8d6321556f8e8e","5f60e3c0a3b16e07647b2ff9","5f64c2c8be42420210496565","false","null","<div style=""align-items: center; display: flex; color: darkorange; font-size: 90px""><b>ø</b></div>","null","","","","forget_cue","","","","","","","","","","","","","","","",""
"html-keyboard-response","57","251005","0.0-3.0-3.0-0.3","kjae8p0sqgm6lew","practice_cue","5e8f49e5cb8d6321556f8e8e","5f60e3c0a3b16e07647b2ff9","5f64c2c8be42420210496565","false","null","<span style=""color: black; font-size: 48px"">N + M</span>","null","","","","resp_prompt","","","","","","","","","","","","","","","",""
"categorize-image","58","252187","0.0-3.0-3.0-1.3","kjae8p0sqgm6lew","practice_cue","5e8f49e5cb8d6321556f8e8e","5f60e3c0a3b16e07647b2ff9","5f64c2c8be42420210496565","true","1174.6099999872968","./Stimuli/ImagesPractice/SM37.jpg","83","","","","test","false","N + M","76","","SM","SM37.jpg","forget","old","20","2","practice_forget","left","","","",""
"html-keyboard-response","59","252697","0.0-3.0-3.0-2.3-0.3","kjae8p0sqgm6lew","practice_cue","5e8f49e5cb8d6321556f8e8e","5f60e3c0a3b16e07647b2ff9","5f64c2c8be42420210496565","false","null","<span style=""color: red; font-size: 48px"">Error!</span>","null","","","","feedback","","","","","","","","","","","","","","","",""
"html-keyboard-response","60","254701","0.0-3.0-3.0-3.3","kjae8p0sqgm6lew","practice_cue","5e8f49e5cb8d6321556f8e8e","5f60e3c0a3b16e07647b2ff9","5f64c2c8be42420210496565","false","null","<div style=""align-items: center; display: flex; color: darkorange; font-size: 90px""><b>ø</b></div>","null","","","","forget_cue","","","","","","","","","","","","","","","",""
"html-keyboard-response","61","255403","0.0-3.0-3.0-0.4","kjae8p0sqgm6lew","practice_cue","5e8f49e5cb8d6321556f8e8e","5f60e3c0a3b16e07647b2ff9","5f64c2c8be42420210496565","false","null","<span style=""color: black; font-size: 48px"">M + N</span>","null","","","","resp_prompt","","","","","","","","","","","","","","","",""
"categorize-image","62","256109","0.0-3.0-3.0-1.4","kjae8p0sqgm6lew","practice_cue","5e8f49e5cb8d6321556f8e8e","5f60e3c0a3b16e07647b2ff9","5f64c2c8be42420210496565","true","696.5450000134297","./Stimuli/ImagesPractice/SN221.jpg","76","","","","test","true","M + N","76","","SN","SN221.jpg","remember","old","21","2","practice_forget","right","","","",""
"html-keyboard-response","63","258116","0.0-3.0-3.0-3.4","kjae8p0sqgm6lew","practice_cue","5e8f49e5cb8d6321556f8e8e","5f60e3c0a3b16e07647b2ff9","5f64c2c8be42420210496565","false","null","<div style=""align-items: center; display: flex; color: dodgerblue; font-size: 90px""><b>o</b></div>","null","","","","forget_cue","","","","","","","","","","","","","","","",""
"html-keyboard-response","64","258819","0.0-3.0-3.0-0.5","kjae8p0sqgm6lew","practice_cue","5e8f49e5cb8d6321556f8e8e","5f60e3c0a3b16e07647b2ff9","5f64c2c8be42420210496565","false","null","<span style=""color: black; font-size: 48px"">M + N</span>","null","","","","resp_prompt","","","","","","","","","","","","","","","",""
"categorize-image","65","259824","0.0-3.0-3.0-1.5","kjae8p0sqgm6lew","practice_cue","5e8f49e5cb8d6321556f8e8e","5f60e3c0a3b16e07647b2ff9","5f64c2c8be42420210496565","true","996.4550000149757","./Stimuli/ImagesPractice/LN72.jpg","76","","","","test","true","M + N","76","","LN","LN72.jpg","remember","old","22","2","practice_forget","right","","","",""
"html-keyboard-response","66","261826","0.0-3.0-3.0-3.5","kjae8p0sqgm6lew","practice_cue","5e8f49e5cb8d6321556f8e8e","5f60e3c0a3b16e07647b2ff9","5f64c2c8be42420210496565","false","null","<div style=""align-items: center; display: flex; color: dodgerblue; font-size: 90px""><b>o</b></div>","null","","","","forget_cue","","","","","","","","","","","","","","","",""
"html-keyboard-response","67","262528","0.0-3.0-3.0-0.6","kjae8p0sqgm6lew","practice_cue","5e8f49e5cb8d6321556f8e8e","5f60e3c0a3b16e07647b2ff9","5f64c2c8be42420210496565","false","null","<span style=""color: black; font-size: 48px"">N + M</span>","null","","","","resp_prompt","","","","","","","","","","","","","","","",""
"categorize-image","68","263135","0.0-3.0-3.0-1.6","kjae8p0sqgm6lew","practice_cue","5e8f49e5cb8d6321556f8e8e","5f60e3c0a3b16e07647b2ff9","5f64c2c8be42420210496565","true","598.9150000095833","./Stimuli/ImagesPractice/LN15.jpg","83","","","","test","true","N + M","83","","LN","LN15.jpg","remember","old","23","2","practice_forget","left","","","",""
"html-keyboard-response","69","265140","0.0-3.0-3.0-3.6","kjae8p0sqgm6lew","practice_cue","5e8f49e5cb8d6321556f8e8e","5f60e3c0a3b16e07647b2ff9","5f64c2c8be42420210496565","false","null","<div style=""align-items: center; display: flex; color: dodgerblue; font-size: 90px""><b>o</b></div>","null","","","","forget_cue","","","","","","","","","","","","","","","",""
"html-keyboard-response","70","265844","0.0-3.0-3.0-0.7","kjae8p0sqgm6lew","practice_cue","5e8f49e5cb8d6321556f8e8e","5f60e3c0a3b16e07647b2ff9","5f64c2c8be42420210496565","false","null","<span style=""color: black; font-size: 48px"">N + M</span>","null","","","","resp_prompt","","","","","","","","","","","","","","","",""
"categorize-image","71","266368","0.0-3.0-3.0-1.7","kjae8p0sqgm6lew","practice_cue","5e8f49e5cb8d6321556f8e8e","5f60e3c0a3b16e07647b2ff9","5f64c2c8be42420210496565","true","511.69499999377877","./Stimuli/ImagesPractice/SN76.jpg","83","","","","test","true","N + M","83","","SN","SN76.jpg","forget","old","24","2","practice_forget","left","","","",""
"html-keyboard-response","72","268371","0.0-3.0-3.0-3.7","kjae8p0sqgm6lew","practice_cue","5e8f49e5cb8d6321556f8e8e","5f60e3c0a3b16e07647b2ff9","5f64c2c8be42420210496565","false","null","<div style=""align-items: center; display: flex; color: darkorange; font-size: 90px""><b>ø</b></div>","null","","","","forget_cue","","","","","","","","","","","","","","","",""
"html-keyboard-response","73","269075","0.0-3.0-3.0-0.8","kjae8p0sqgm6lew","practice_cue","5e8f49e5cb8d6321556f8e8e","5f60e3c0a3b16e07647b2ff9","5f64c2c8be42420210496565","false","null","<span style=""color: black; font-size: 48px"">N + M</span>","null","","","","resp_prompt","","","","","","","","","","","","","","","",""
"categorize-image","74","269816","0.0-3.0-3.0-1.8","kjae8p0sqgm6lew","practice_cue","5e8f49e5cb8d6321556f8e8e","5f60e3c0a3b16e07647b2ff9","5f64c2c8be42420210496565","true","729.5450000092387","./Stimuli/ImagesPractice/LN4.jpg","83","","","","test","true","N + M","83","","LN","LN4.jpg","remember","old","25","2","practice_forget","left","","","",""
"html-keyboard-response","75","271820","0.0-3.0-3.0-3.8","kjae8p0sqgm6lew","practice_cue","5e8f49e5cb8d6321556f8e8e","5f60e3c0a3b16e07647b2ff9","5f64c2c8be42420210496565","false","null","<div style=""align-items: center; display: flex; color: dodgerblue; font-size: 90px""><b>o</b></div>","null","","","","forget_cue","","","","","","","","","","","","","","","",""
"html-keyboard-response","76","272523","0.0-3.0-3.0-0.9","kjae8p0sqgm6lew","practice_cue","5e8f49e5cb8d6321556f8e8e","5f60e3c0a3b16e07647b2ff9","5f64c2c8be42420210496565","false","null","<span style=""color: black; font-size: 48px"">N + M</span>","null","","","","resp_prompt","","","","","","","","","","","","","","","",""
"categorize-image","77","273213","0.0-3.0-3.0-1.9","kjae8p0sqgm6lew","practice_cue","5e8f49e5cb8d6321556f8e8e","5f60e3c0a3b16e07647b2ff9","5f64c2c8be42420210496565","true","678.5099999979138","./Stimuli/ImagesPractice/SM97.jpg","76","","","","test","true","N + M","76","","SM","SM97.jpg","forget","old","26","2","practice_forget","right","","","",""
"html-keyboard-response","78","275222","0.0-3.0-3.0-3.9","kjae8p0sqgm6lew","practice_cue","5e8f49e5cb8d6321556f8e8e","5f60e3c0a3b16e07647b2ff9","5f64c2c8be42420210496565","false","null","<div style=""align-items: center; display: flex; color: darkorange; font-size: 90px""><b>ø</b></div>","null","","","","forget_cue","","","","","","","","","","","","","","","",""
"html-keyboard-response","79","275927","0.0-3.0-3.0-0.10","kjae8p0sqgm6lew","practice_cue","5e8f49e5cb8d6321556f8e8e","5f60e3c0a3b16e07647b2ff9","5f64c2c8be42420210496565","false","null","<span style=""color: black; font-size: 48px"">N + M</span>","null","","","","resp_prompt","","","","","","","","","","","","","","","",""
"categorize-image","80","277211","0.0-3.0-3.0-1.10","kjae8p0sqgm6lew","practice_cue","5e8f49e5cb8d6321556f8e8e","5f60e3c0a3b16e07647b2ff9","5f64c2c8be42420210496565","true","1273.7649999908172","./Stimuli/ImagesPractice/LM224.jpg","76","","","","test","true","N + M","76","","LM","LM224.jpg","forget","old","27","2","practice_forget","right","","","",""
"html-keyboard-response","81","279218","0.0-3.0-3.0-3.10","kjae8p0sqgm6lew","practice_cue","5e8f49e5cb8d6321556f8e8e","5f60e3c0a3b16e07647b2ff9","5f64c2c8be42420210496565","false","null","<div style=""align-items: center; display: flex; color: darkorange; font-size: 90px""><b>ø</b></div>","null","","","","forget_cue","","","","","","","","","","","","","","","",""
"html-keyboard-response","82","279922","0.0-3.0-3.0-0.11","kjae8p0sqgm6lew","practice_cue","5e8f49e5cb8d6321556f8e8e","5f60e3c0a3b16e07647b2ff9","5f64c2c8be42420210496565","false","null","<span style=""color: black; font-size: 48px"">M + N</span>","null","","","","resp_prompt","","","","","","","","","","","","","","","",""
"categorize-image","83","281210","0.0-3.0-3.0-1.11","kjae8p0sqgm6lew","practice_cue","5e8f49e5cb8d6321556f8e8e","5f60e3c0a3b16e07647b2ff9","5f64c2c8be42420210496565","true","1278.2099999894854","./Stimuli/ImagesPractice/SM35.jpg","76","","","","test","false","M + N","83","","SM","SM35.jpg","forget","old","28","2","practice_forget","right","","","",""
"html-keyboard-response","84","281713","0.0-3.0-3.0-2.11-0.11","kjae8p0sqgm6lew","practice_cue","5e8f49e5cb8d6321556f8e8e","5f60e3c0a3b16e07647b2ff9","5f64c2c8be42420210496565","false","null","<span style=""color: red; font-size: 48px"">Error!</span>","null","","","","feedback","","","","","","","","","","","","","","","",""
"html-keyboard-response","85","283719","0.0-3.0-3.0-3.11","kjae8p0sqgm6lew","practice_cue","5e8f49e5cb8d6321556f8e8e","5f60e3c0a3b16e07647b2ff9","5f64c2c8be42420210496565","false","null","<div style=""align-items: center; display: flex; color: darkorange; font-size: 90px""><b>ø</b></div>","null","","","","forget_cue","","","","","","","","","","","","","","","",""
"html-keyboard-response","86","284422","0.0-3.0-3.0-0.12","kjae8p0sqgm6lew","practice_cue","5e8f49e5cb8d6321556f8e8e","5f60e3c0a3b16e07647b2ff9","5f64c2c8be42420210496565","false","null","<span style=""color: black; font-size: 48px"">M + N</span>","null","","","","resp_prompt","","","","","","","","","","","","","","","",""
"categorize-image","87","285085","0.0-3.0-3.0-1.12","kjae8p0sqgm6lew","practice_cue","5e8f49e5cb8d6321556f8e8e","5f60e3c0a3b16e07647b2ff9","5f64c2c8be42420210496565","true","651.7950000124983","./Stimuli/ImagesPractice/LN109.jpg","76","","","","test","true","M + N","76","","LN","LN109.jpg","forget","old","29","2","practice_forget","right","","","",""
"html-keyboard-response","88","287090","0.0-3.0-3.0-3.12","kjae8p0sqgm6lew","practice_cue","5e8f49e5cb8d6321556f8e8e","5f60e3c0a3b16e07647b2ff9","5f64c2c8be42420210496565","false","null","<div style=""align-items: center; display: flex; color: darkorange; font-size: 90px""><b>ø</b></div>","null","","","","forget_cue","","","","","","","","","","","","","","","",""
"html-keyboard-response","89","287794","0.0-3.0-3.0-0.13","kjae8p0sqgm6lew","practice_cue","5e8f49e5cb8d6321556f8e8e","5f60e3c0a3b16e07647b2ff9","5f64c2c8be42420210496565","false","null","<span style=""color: black; font-size: 48px"">N + M</span>","null","","","","resp_prompt","","","","","","","","","","","","","","","",""
"categorize-image","90","288496","0.0-3.0-3.0-1.13","kjae8p0sqgm6lew","practice_cue","5e8f49e5cb8d6321556f8e8e","5f60e3c0a3b16e07647b2ff9","5f64c2c8be42420210496565","true","692.944999987958","./Stimuli/ImagesPractice/LM143.jpg","83","","","","test","false","N + M","76","","LM","LM143.jpg","remember","old","30","2","practice_forget","left","","","",""
"html-keyboard-response","91","288999","0.0-3.0-3.0-2.13-0.13","kjae8p0sqgm6lew","practice_cue","5e8f49e5cb8d6321556f8e8e","5f60e3c0a3b16e07647b2ff9","5f64c2c8be42420210496565","false","null","<span style=""color: red; font-size: 48px"">Error!</span>","null","","","","feedback","","","","","","","","","","","","","","","",""
"html-keyboard-response","92","291002","0.0-3.0-3.0-3.13","kjae8p0sqgm6lew","practice_cue","5e8f49e5cb8d6321556f8e8e","5f60e3c0a3b16e07647b2ff9","5f64c2c8be42420210496565","false","null","<div style=""align-items: center; display: flex; color: dodgerblue; font-size: 90px""><b>o</b></div>","null","","","","forget_cue","","","","","","","","","","","","","","","",""
"html-keyboard-response","93","291706","0.0-3.0-3.0-0.14","kjae8p0sqgm6lew","practice_cue","5e8f49e5cb8d6321556f8e8e","5f60e3c0a3b16e07647b2ff9","5f64c2c8be42420210496565","false","null","<span style=""color: black; font-size: 48px"">M + N</span>","null","","","","resp_prompt","","","","","","","","","","","","","","","",""
"categorize-image","94","292425","0.0-3.0-3.0-1.14","kjae8p0sqgm6lew","practice_cue","5e8f49e5cb8d6321556f8e8e","5f60e3c0a3b16e07647b2ff9","5f64c2c8be42420210496565","true","711.0450000036508","./Stimuli/ImagesPractice/SN220.jpg","76","","","","test","true","M + N","76","","SN","SN220.jpg","forget","old","31","2","practice_forget","right","","","",""
"html-keyboard-response","95","294428","0.0-3.0-3.0-3.14","kjae8p0sqgm6lew","practice_cue","5e8f49e5cb8d6321556f8e8e","5f60e3c0a3b16e07647b2ff9","5f64c2c8be42420210496565","false","null","<div style=""align-items: center; display: flex; color: darkorange; font-size: 90px""><b>ø</b></div>","null","","","","forget_cue","","","","","","","","","","","","","","","",""
"html-keyboard-response","96","295132","0.0-3.0-3.0-0.15","kjae8p0sqgm6lew","practice_cue","5e8f49e5cb8d6321556f8e8e","5f60e3c0a3b16e07647b2ff9","5f64c2c8be42420210496565","false","null","<span style=""color: black; font-size: 48px"">M + N</span>","null","","","","resp_prompt","","","","","","","","","","","","","","","",""
"categorize-image","97","295970","0.0-3.0-3.0-1.15","kjae8p0sqgm6lew","practice_cue","5e8f49e5cb8d6321556f8e8e","5f60e3c0a3b16e07647b2ff9","5f64c2c8be42420210496565","true","826.1699999857228","./Stimuli/ImagesPractice/LM230.jpg","83","","","","test","true","M + N","83","","LM","LM230.jpg","remember","old","32","2","practice_forget","left","","","",""
"html-keyboard-response","98","297976","0.0-3.0-3.0-3.15","kjae8p0sqgm6lew","practice_cue","5e8f49e5cb8d6321556f8e8e","5f60e3c0a3b16e07647b2ff9","5f64c2c8be42420210496565","false","null","<div style=""align-items: center; display: flex; color: dodgerblue; font-size: 90px""><b>o</b></div>","null","","","","forget_cue","","","","","","","","","","","","","","","",""
"html-keyboard-response","99","303814","0.0-3.0-4.0","kjae8p0sqgm6lew","break","5e8f49e5cb8d6321556f8e8e","5f60e3c0a3b16e07647b2ff9","5f64c2c8be42420210496565","false","5832.204999984242","<p style='font-size: 32px;'>Break</><br><br><br><br><br><p style='font-size: 24px;'>In the last block, you committed 4 errors and did not respond in time on 0 trials.
</p><p style='font-size: 24px;'>Try to respond as fast and accurately as possible in the next block as well! </p><p style='font-size: 24px;'>Press SPACE to continue.</p>","32","","","","","","","","","","","","","","","","","","","",""
"html-keyboard-response","100","312926","0.0-3.0-5.0","kjae8p0sqgm6lew","instructions","5e8f49e5cb8d6321556f8e8e","5f60e3c0a3b16e07647b2ff9","5f64c2c8be42420210496565","false","9106.70500001288","<div align=left> Now, to practice, we kindly ask you to remember as many of the to-be-remembered pictures<br>of the previous learning phase as possible.<br><br>The pictures you were instructed to remember were the pictures followed by a <span style='color: dodgerblue; font-size: 28px'>O</span>.<br><br>In this memory test phase, you will also see some new pictures.<br>It is your task to remember whether you were presented with this specific picture in this study so far or not.<br>If you recognize an object (you have already seen it in this study), it is an OLD object. <br>If you do not recognize an object (you have NOT seen it in this study), it is a NEW object. <br><strong> Attention</strong>: As already mentioned, <span style='color: darkorange; font-size:28px'>Ø</span>-pictures will <strong>never</strong> appear in this memory test (neither as new objects). <br><br>Press SPACE to continue. </div>","32","","","","","","","","","","","","","","","","","","","",""
"html-keyboard-response","101","317450","0.0-3.0-6.0","kjae8p0sqgm6lew","instructions","5e8f49e5cb8d6321556f8e8e","5f60e3c0a3b16e07647b2ff9","5f64c2c8be42420210496565","false","4519.3900000012945","<div align=left> M and N no longer will appear on the left/right of the fixation cross. <br>Instead there will be a note at the bottom of the left or right side  <br>indicating which key you should press for an old or new object:  <br> <br>Press the <strong>right</strong> key to classify an object as <strong>old</strong> and press the <strong>left</strong>, to classify an object as <strong>new</strong>.<br>Please classify the objects as new/old by again placing your index finger on the 'S' and 'L' keys <br>and press them accordingly.<br><br><strong>Old:</strong> This object has been presented before. <br><strong>New:</strong> This object has <strong>not</strong> been presented.<br><br>Now please put your right and left index fingers on the 'S' and 'L' keys of your keyboard. <br>Please respond as fast and as accurately as possible!<br><br>Press SPACE to continue. </div>","32","","","","","","","","","","","","","","","","","","","",""
"categorize-image","102","320121","0.0-3.0-7.0-0.0","kjae8p0sqgm6lew","practice_recog","5e8f49e5cb8d6321556f8e8e","5f60e3c0a3b16e07647b2ff9","5f64c2c8be42420210496565","true","2163.330000010319","./Stimuli/ImagesPractice/LN4.jpg","76","","","","test","true","","76","","LN","LN4.jpg","","old","33","3","practice_recog","right","","","",""
"categorize-image","103","321659","0.0-3.0-7.0-0.1","kjae8p0sqgm6lew","practice_recog","5e8f49e5cb8d6321556f8e8e","5f60e3c0a3b16e07647b2ff9","5f64c2c8be42420210496565","true","1030.6050000071991","./Stimuli/ImagesPractice/SM98.jpg","83","","","","test","true","","83","","SM","SM98.jpg","","new","34","3","practice_recog","left","","","",""
"categorize-image","104","323037","0.0-3.0-7.0-0.2","kjae8p0sqgm6lew","practice_recog","5e8f49e5cb8d6321556f8e8e","5f60e3c0a3b16e07647b2ff9","5f64c2c8be42420210496565","true","872.3250000039116","./Stimuli/ImagesPractice/SM61.jpg","83","","","","test","true","","83","","SM","SM61.jpg","","new","35","3","practice_recog","left","","","",""
"categorize-image","105","324318","0.0-3.0-7.0-0.3","kjae8p0sqgm6lew","practice_recog","5e8f49e5cb8d6321556f8e8e","5f60e3c0a3b16e07647b2ff9","5f64c2c8be42420210496565","true","774.8300000093877","./Stimuli/ImagesPractice/SM62.jpg","83","","","","test","true","","83","","SM","SM62.jpg","","new","36","3","practice_recog","left","","","",""
"categorize-image","106","325558","0.0-3.0-7.0-0.4","kjae8p0sqgm6lew","practice_recog","5e8f49e5cb8d6321556f8e8e","5f60e3c0a3b16e07647b2ff9","5f64c2c8be42420210496565","true","733.4049999772105","./Stimuli/ImagesPractice/SN75.jpg","83","","","","test","true","","83","","SN","SN75.jpg","","new","37","3","practice_recog","left","","","",""
"categorize-image","107","326670","0.0-3.0-7.0-0.5","kjae8p0sqgm6lew","practice_recog","5e8f49e5cb8d6321556f8e8e","5f60e3c0a3b16e07647b2ff9","5f64c2c8be42420210496565","true","605.1649999863002","./Stimuli/ImagesPractice/LM239.jpg","83","","","","test","true","","83","","LM","LM239.jpg","","new","38","3","practice_recog","left","","","",""
"categorize-image","108","327759","0.0-3.0-7.0-0.6","kjae8p0sqgm6lew","practice_recog","5e8f49e5cb8d6321556f8e8e","5f60e3c0a3b16e07647b2ff9","5f64c2c8be42420210496565","true","583.1049999978859","./Stimuli/ImagesPractice/SN222.jpg","83","","","","test","true","","83","","SN","SN222.jpg","","new","39","3","practice_recog","left","","","",""
"categorize-image","109","328837","0.0-3.0-7.0-0.7","kjae8p0sqgm6lew","practice_recog","5e8f49e5cb8d6321556f8e8e","5f60e3c0a3b16e07647b2ff9","5f64c2c8be42420210496565","true","572.4049999844283","./Stimuli/ImagesPractice/LN15.jpg","76","","","","test","true","","76","","LN","LN15.jpg","","old","40","3","practice_recog","right","","","",""
"categorize-image","110","329994","0.0-3.0-7.0-0.8","kjae8p0sqgm6lew","practice_recog","5e8f49e5cb8d6321556f8e8e","5f60e3c0a3b16e07647b2ff9","5f64c2c8be42420210496565","true","650.0899999809917","./Stimuli/ImagesPractice/LM147.jpg","76","","","","test","true","","76","","LM","LM147.jpg","","old","41","3","practice_recog","right","","","",""
"categorize-image","111","331261","0.0-3.0-7.0-0.9","kjae8p0sqgm6lew","practice_recog","5e8f49e5cb8d6321556f8e8e","5f60e3c0a3b16e07647b2ff9","5f64c2c8be42420210496565","true","760.7649999845307","./Stimuli/ImagesPractice/LN2.jpg","76","","","","test","true","","76","","LN","LN2.jpg","","old","42","3","practice_recog","right","","","",""
"categorize-image","112","332465","0.0-3.0-7.0-0.10","kjae8p0sqgm6lew","practice_recog","5e8f49e5cb8d6321556f8e8e","5f60e3c0a3b16e07647b2ff9","5f64c2c8be42420210496565","true","697.7100000076462","./Stimuli/ImagesPractice/LM143.jpg","76","","","","test","true","","76","","LM","LM143.jpg","","old","43","3","practice_recog","right","","","",""
"categorize-image","113","333613","0.0-3.0-7.0-0.11","kjae8p0sqgm6lew","practice_recog","5e8f49e5cb8d6321556f8e8e","5f60e3c0a3b16e07647b2ff9","5f64c2c8be42420210496565","true","641.3549999997485","./Stimuli/ImagesPractice/LN17.jpg","83","","","","test","true","","83","","LN","LN17.jpg","","new","44","3","practice_recog","left","","","",""
"categorize-image","114","334763","0.0-3.0-7.0-0.12","kjae8p0sqgm6lew","practice_recog","5e8f49e5cb8d6321556f8e8e","5f60e3c0a3b16e07647b2ff9","5f64c2c8be42420210496565","true","641.7300000030082","./Stimuli/ImagesPractice/SN221.jpg","76","","","","test","true","","76","","SN","SN221.jpg","","old","45","3","practice_recog","right","","","",""
"categorize-image","115","335886","0.0-3.0-7.0-0.13","kjae8p0sqgm6lew","practice_recog","5e8f49e5cb8d6321556f8e8e","5f60e3c0a3b16e07647b2ff9","5f64c2c8be42420210496565","true","615.445000003092","./Stimuli/ImagesPractice/LM230.jpg","76","","","","test","true","","76","","LM","LM230.jpg","","old","46","3","practice_recog","right","","","",""
"categorize-image","116","337067","0.0-3.0-7.0-0.14","kjae8p0sqgm6lew","practice_recog","5e8f49e5cb8d6321556f8e8e","5f60e3c0a3b16e07647b2ff9","5f64c2c8be42420210496565","true","673.2100000081118","./Stimuli/ImagesPractice/LM55.jpg","83","","","","test","true","","83","","LM","LM55.jpg","","new","47","3","practice_recog","left","","","",""
"categorize-image","117","338242","0.0-3.0-7.0-0.15","kjae8p0sqgm6lew","practice_recog","5e8f49e5cb8d6321556f8e8e","5f60e3c0a3b16e07647b2ff9","5f64c2c8be42420210496565","true","668.2350000191946","./Stimuli/ImagesPractice/LN72.jpg","76","","","","test","true","","76","","LN","LN72.jpg","","old","48","3","practice_recog","right","","","",""
"html-keyboard-response","118","341242","0.0-3.0-8.0","kjae8p0sqgm6lew","instructions","5e8f49e5cb8d6321556f8e8e","5f60e3c0a3b16e07647b2ff9","5f64c2c8be42420210496565","false","2997.335000021849","<div align=left> Great!<br><br>Are you ready to continue?<br>If you want to reread the instructions and redo the practice trials, please <br>press „Z“.<br><br>You can proceed when you are ready.<br><br>After the presentation of each object, you will receive an instruction whether to <br>remember or to forget the object.<br>We will test your memory of the following pictures only at the very end of <br>the experiment after all learning blocks are completed. <br><br>Press SPACE to CONTINUE when you are ready. </div>","32","","","","","","","","","","","","","","","","","","","",""
"html-keyboard-response","119","343681","0.0-4.0-0.0","kjae8p0sqgm6lew","instructions","5e8f49e5cb8d6321556f8e8e","5f60e3c0a3b16e07647b2ff9","5f64c2c8be42420210496565","false","2435.794999997597","<div align=left> The actual experiment is about to start.<br>The practice trials are over!<br><br>Please always respond both fast and accurately!<br><br>Remember: <br> <br><li> Please place your index fingers on the <strong>'S'</strong> and <strong>'L'</strong> keys <br>to respond as fast and accurately as possible.</li><li> Every picture can be classified as either mechanical or non-mechanical.</li><li> If you do not respond in time or commit an error, you will receive a corresponding feedback.<br> Please try to respond as <strong> fast </strong> and as <strong> accurately as possible </strong>.</li><li> Remember the <span style='color: dodgerblue; font-size: 28px'>O</span> pictures. <br></li><li> Please minimize distractions and stay focused. </li><br><br>Press SPACE to START.</div>","32","","","","","","","","","","","","","","","","","","","",""
"html-keyboard-response","120","344385","0.0-4.0-1.0-0.0","kjae8p0sqgm6lew","prime","5e8f49e5cb8d6321556f8e8e","5f60e3c0a3b16e07647b2ff9","5f64c2c8be42420210496565","false","null","<span style=""color: black; font-size: 48px"">N + M</span>","null","","","","resp_prompt","","","","","","","","","","","","","","","",""
"categorize-image","121","345104","0.0-4.0-1.0-1.0","kjae8p0sqgm6lew","prime","5e8f49e5cb8d6321556f8e8e","5f60e3c0a3b16e07647b2ff9","5f64c2c8be42420210496565","true","711.1250000016298","./Stimuli/SelectedImages/SN/SN140.bmp","83","","","","test","true","N + M","83","repetition","SN","SN140.bmp","remember","","49","3","prime1","left","","","",""
"html-keyboard-response","122","347108","0.0-4.0-1.0-3.0","kjae8p0sqgm6lew","prime","5e8f49e5cb8d6321556f8e8e","5f60e3c0a3b16e07647b2ff9","5f64c2c8be42420210496565","false","null","<div style=""align-items: center; display: flex; color: dodgerblue; font-size: 90px""><b>o</b></div>","null","","","","forget_cue","","","","","","","","","","","","","","","",""
"html-keyboard-response","123","347811","0.0-4.0-1.0-0.1","kjae8p0sqgm6lew","prime","5e8f49e5cb8d6321556f8e8e","5f60e3c0a3b16e07647b2ff9","5f64c2c8be42420210496565","false","null","<span style=""color: black; font-size: 48px"">M + N</span>","null","","","","resp_prompt","","","","","","","","","","","","","","","",""
"categorize-image","124","349281","0.0-4.0-1.0-1.1","kjae8p0sqgm6lew","prime","5e8f49e5cb8d6321556f8e8e","5f60e3c0a3b16e07647b2ff9","5f64c2c8be42420210496565","true","1460.3300000017043","./Stimuli/SelectedImages/SM/SM128.bmp","83","","","","test","true","M + N","83","repetition","SM","SM128.bmp","forget","","50","3","prime1","left","","","",""
"html-keyboard-response","125","351284","0.0-4.0-1.0-3.1","kjae8p0sqgm6lew","prime","5e8f49e5cb8d6321556f8e8e","5f60e3c0a3b16e07647b2ff9","5f64c2c8be42420210496565","false","null","<div style=""align-items: center; display: flex; color: darkorange; font-size: 90px""><b>ø</b></div>","null","","","","forget_cue","","","","","","","","","","","","","","","",""
"html-keyboard-response","126","351989","0.0-4.0-1.0-0.2","kjae8p0sqgm6lew","prime","5e8f49e5cb8d6321556f8e8e","5f60e3c0a3b16e07647b2ff9","5f64c2c8be42420210496565","false","null","<span style=""color: black; font-size: 48px"">M + N</span>","null","","","","resp_prompt","","","","","","","","","","","","","","","",""
"categorize-image","127","352662","0.0-4.0-1.0-1.2","kjae8p0sqgm6lew","prime","5e8f49e5cb8d6321556f8e8e","5f60e3c0a3b16e07647b2ff9","5f64c2c8be42420210496565","true","663.8049999892246","./Stimuli/SelectedImages/LN/LN166.bmp","83","","","","test","false","M + N","76","repetition","LN","LN166.bmp","forget","","51","3","prime1","left","","","",""
"html-keyboard-response","128","353165","0.0-4.0-1.0-2.2-0.2","kjae8p0sqgm6lew","prime","5e8f49e5cb8d6321556f8e8e","5f60e3c0a3b16e07647b2ff9","5f64c2c8be42420210496565","false","null","<span style=""color: red; font-size: 48px"">Error!</span>","null","","","","feedback","","","","","","","","","","","","","","","",""
"html-keyboard-response","129","355169","0.0-4.0-1.0-3.2","kjae8p0sqgm6lew","prime","5e8f49e5cb8d6321556f8e8e","5f60e3c0a3b16e07647b2ff9","5f64c2c8be42420210496565","false","null","<div style=""align-items: center; display: flex; color: darkorange; font-size: 90px""><b>ø</b></div>","null","","","","forget_cue","","","","","","","","","","","","","","","",""
"html-keyboard-response","130","355874","0.0-4.0-1.0-0.3","kjae8p0sqgm6lew","prime","5e8f49e5cb8d6321556f8e8e","5f60e3c0a3b16e07647b2ff9","5f64c2c8be42420210496565","false","null","<span style=""color: black; font-size: 48px"">M + N</span>","null","","","","resp_prompt","","","","","","","","","","","","","","","",""
"categorize-image","131","356430","0.0-4.0-1.0-1.3","kjae8p0sqgm6lew","prime","5e8f49e5cb8d6321556f8e8e","5f60e3c0a3b16e07647b2ff9","5f64c2c8be42420210496565","true","547.6199999975506","./Stimuli/SelectedImages/LM/LM129.bmp","83","","","","test","true","M + N","83","switch","LM","LM129.bmp","remember","","52","3","prime1","left","","","",""
"html-keyboard-response","132","358434","0.0-4.0-1.0-3.3","kjae8p0sqgm6lew","prime","5e8f49e5cb8d6321556f8e8e","5f60e3c0a3b16e07647b2ff9","5f64c2c8be42420210496565","false","null","<div style=""align-items: center; display: flex; color: dodgerblue; font-size: 90px""><b>o</b></div>","null","","","","forget_cue","","","","","","","","","","","","","","","",""
"html-keyboard-response","133","359137","0.0-4.0-1.0-0.4","kjae8p0sqgm6lew","prime","5e8f49e5cb8d6321556f8e8e","5f60e3c0a3b16e07647b2ff9","5f64c2c8be42420210496565","false","null","<span style=""color: black; font-size: 48px"">M + N</span>","null","","","","resp_prompt","","","","","","","","","","","","","","","",""
"categorize-image","134","360038","0.0-4.0-1.0-1.4","kjae8p0sqgm6lew","prime","5e8f49e5cb8d6321556f8e8e","5f60e3c0a3b16e07647b2ff9","5f64c2c8be42420210496565","true","888.554999983171","./Stimuli/SelectedImages/SM/SM148.bmp","83","","","","test","true","M + N","83","repetition","SM","SM148.bmp","forget","","53","3","prime1","left","","","",""
"html-keyboard-response","135","362044","0.0-4.0-1.0-3.4","kjae8p0sqgm6lew","prime","5e8f49e5cb8d6321556f8e8e","5f60e3c0a3b16e07647b2ff9","5f64c2c8be42420210496565","false","null","<div style=""align-items: center; display: flex; color: darkorange; font-size: 90px""><b>ø</b></div>","null","","","","forget_cue","","","","","","","","","","","","","","","",""
"html-keyboard-response","136","362748","0.0-4.0-1.0-0.5","kjae8p0sqgm6lew","prime","5e8f49e5cb8d6321556f8e8e","5f60e3c0a3b16e07647b2ff9","5f64c2c8be42420210496565","false","null","<span style=""color: black; font-size: 48px"">M + N</span>","null","","","","resp_prompt","","","","","","","","","","","","","","","",""
"categorize-image","137","363698","0.0-4.0-1.0-1.5","kjae8p0sqgm6lew","prime","5e8f49e5cb8d6321556f8e8e","5f60e3c0a3b16e07647b2ff9","5f64c2c8be42420210496565","true","939.749999990454","./Stimuli/SelectedImages/SM/SM213.bmp","83","","","","test","true","M + N","83","repetition","SM","SM213.bmp","remember","","54","3","prime1","left","","","",""
"html-keyboard-response","138","365705","0.0-4.0-1.0-3.5","kjae8p0sqgm6lew","prime","5e8f49e5cb8d6321556f8e8e","5f60e3c0a3b16e07647b2ff9","5f64c2c8be42420210496565","false","null","<div style=""align-items: center; display: flex; color: dodgerblue; font-size: 90px""><b>o</b></div>","null","","","","forget_cue","","","","","","","","","","","","","","","",""
"html-keyboard-response","139","366408","0.0-4.0-1.0-0.6","kjae8p0sqgm6lew","prime","5e8f49e5cb8d6321556f8e8e","5f60e3c0a3b16e07647b2ff9","5f64c2c8be42420210496565","false","null","<span style=""color: black; font-size: 48px"">M + N</span>","null","","","","resp_prompt","","","","","","","","","","","","","","","",""
"categorize-image","140","367189","0.0-4.0-1.0-1.6","kjae8p0sqgm6lew","prime","5e8f49e5cb8d6321556f8e8e","5f60e3c0a3b16e07647b2ff9","5f64c2c8be42420210496565","true","771.1150000104681","./Stimuli/SelectedImages/LN/LN9.bmp","76","","","","test","true","M + N","76","repetition","LN","LN9.bmp","remember","","55","3","prime1","right","","","",""
"html-keyboard-response","141","369211","0.0-4.0-1.0-3.6","kjae8p0sqgm6lew","prime","5e8f49e5cb8d6321556f8e8e","5f60e3c0a3b16e07647b2ff9","5f64c2c8be42420210496565","false","null","<div style=""align-items: center; display: flex; color: dodgerblue; font-size: 90px""><b>o</b></div>","null","","","","forget_cue","","","","","","","","","","","","","","","",""
"html-keyboard-response","142","369914","0.0-4.0-1.0-0.7","kjae8p0sqgm6lew","prime","5e8f49e5cb8d6321556f8e8e","5f60e3c0a3b16e07647b2ff9","5f64c2c8be42420210496565","false","null","<span style=""color: black; font-size: 48px"">N + M</span>","null","","","","resp_prompt","","","","","","","","","","","","","","","",""
"categorize-image","143","370609","0.0-4.0-1.0-1.7","kjae8p0sqgm6lew","prime","5e8f49e5cb8d6321556f8e8e","5f60e3c0a3b16e07647b2ff9","5f64c2c8be42420210496565","true","682.7650000050198","./Stimuli/SelectedImages/SN/SN27.bmp","83","","","","test","true","N + M","83","switch","SN","SN27.bmp","remember","","56","3","prime1","left","","","",""
"html-keyboard-response","144","372615","0.0-4.0-1.0-3.7","kjae8p0sqgm6lew","prime","5e8f49e5cb8d6321556f8e8e","5f60e3c0a3b16e07647b2ff9","5f64c2c8be42420210496565","false","null","<div style=""align-items: center; display: flex; color: dodgerblue; font-size: 90px""><b>o</b></div>","null","","","","forget_cue","","","","","","","","","","","","","","","",""
"html-keyboard-response","145","373318","0.0-4.0-1.0-0.8","kjae8p0sqgm6lew","prime","5e8f49e5cb8d6321556f8e8e","5f60e3c0a3b16e07647b2ff9","5f64c2c8be42420210496565","false","null","<span style=""color: black; font-size: 48px"">N + M</span>","null","","","","resp_prompt","","","","","","","","","","","","","","","",""
"categorize-image","146","374069","0.0-4.0-1.0-1.8","kjae8p0sqgm6lew","prime","5e8f49e5cb8d6321556f8e8e","5f60e3c0a3b16e07647b2ff9","5f64c2c8be42420210496565","true","744.3849999981467","./Stimuli/SelectedImages/SN/SN181.bmp","83","","","","test","true","N + M","83","switch","SN","SN181.bmp","forget","","57","3","prime1","left","","","",""
"html-keyboard-response","147","376071","0.0-4.0-1.0-3.8","kjae8p0sqgm6lew","prime","5e8f49e5cb8d6321556f8e8e","5f60e3c0a3b16e07647b2ff9","5f64c2c8be42420210496565","false","null","<div style=""align-items: center; display: flex; color: darkorange; font-size: 90px""><b>ø</b></div>","null","","","","forget_cue","","","","","","","","","","","","","","","",""
"html-keyboard-response","148","376774","0.0-4.0-1.0-0.9","kjae8p0sqgm6lew","prime","5e8f49e5cb8d6321556f8e8e","5f60e3c0a3b16e07647b2ff9","5f64c2c8be42420210496565","false","null","<span style=""color: black; font-size: 48px"">M + N</span>","null","","","","resp_prompt","","","","","","","","","","","","","","","",""
"categorize-image","149","377438","0.0-4.0-1.0-1.9","kjae8p0sqgm6lew","prime","5e8f49e5cb8d6321556f8e8e","5f60e3c0a3b16e07647b2ff9","5f64c2c8be42420210496565","true","652.4050000007264","./Stimuli/SelectedImages/SN/SN52.bmp","76","","","","test","true","M + N","76","repetition","SN","SN52.bmp","forget","","58","3","prime1","right","","","",""
"html-keyboard-response","150","379448","0.0-4.0-1.0-3.9","kjae8p0sqgm6lew","prime","5e8f49e5cb8d6321556f8e8e","5f60e3c0a3b16e07647b2ff9","5f64c2c8be42420210496565","false","null","<div style=""align-items: center; display: flex; color: darkorange; font-size: 90px""><b>ø</b></div>","null","","","","forget_cue","","","","","","","","","","","","","","","",""
"html-keyboard-response","151","380159","0.0-4.0-1.0-0.10","kjae8p0sqgm6lew","prime","5e8f49e5cb8d6321556f8e8e","5f60e3c0a3b16e07647b2ff9","5f64c2c8be42420210496565","false","null","<span style=""color: black; font-size: 48px"">N + M</span>","null","","","","resp_prompt","","","","","","","","","","","","","","","",""
"categorize-image","152","380988","0.0-4.0-1.0-1.10","kjae8p0sqgm6lew","prime","5e8f49e5cb8d6321556f8e8e","5f60e3c0a3b16e07647b2ff9","5f64c2c8be42420210496565","true","820.7399999955669","./Stimuli/SelectedImages/LM/LM75.bmp","76","","","","test","true","N + M","76","switch","LM","LM75.bmp","remember","","59","3","prime1","right","","","",""
"html-keyboard-response","153","382990","0.0-4.0-1.0-3.10","kjae8p0sqgm6lew","prime","5e8f49e5cb8d6321556f8e8e","5f60e3c0a3b16e07647b2ff9","5f64c2c8be42420210496565","false","null","<div style=""align-items: center; display: flex; color: dodgerblue; font-size: 90px""><b>o</b></div>","null","","","","forget_cue","","","","","","","","","","","","","","","",""
"html-keyboard-response","154","383693","0.0-4.0-1.0-0.11","kjae8p0sqgm6lew","prime","5e8f49e5cb8d6321556f8e8e","5f60e3c0a3b16e07647b2ff9","5f64c2c8be42420210496565","false","null","<span style=""color: black; font-size: 48px"">M + N</span>","null","","","","resp_prompt","","","","","","","","","","","","","","","",""
"categorize-image","155","384485","0.0-4.0-1.0-1.11","kjae8p0sqgm6lew","prime","5e8f49e5cb8d6321556f8e8e","5f60e3c0a3b16e07647b2ff9","5f64c2c8be42420210496565","true","785.4450000158977","./Stimuli/SelectedImages/LM/LM216.bmp","83","","","","test","true","M + N","83","repetition","LM","LM216.bmp","remember","","60","3","prime1","left","","","",""
"html-keyboard-response","156","386490","0.0-4.0-1.0-3.11","kjae8p0sqgm6lew","prime","5e8f49e5cb8d6321556f8e8e","5f60e3c0a3b16e07647b2ff9","5f64c2c8be42420210496565","false","null","<div style=""align-items: center; display: flex; color: dodgerblue; font-size: 90px""><b>o</b></div>","null","","","","forget_cue","","","","","","","","","","","","","","","",""
"html-keyboard-response","157","387193","0.0-4.0-1.0-0.12","kjae8p0sqgm6lew","prime","5e8f49e5cb8d6321556f8e8e","5f60e3c0a3b16e07647b2ff9","5f64c2c8be42420210496565","false","null","<span style=""color: black; font-size: 48px"">N + M</span>","null","","","","resp_prompt","","","","","","","","","","","","","","","",""
"categorize-image","158","388423","0.0-4.0-1.0-1.12","kjae8p0sqgm6lew","prime","5e8f49e5cb8d6321556f8e8e","5f60e3c0a3b16e07647b2ff9","5f64c2c8be42420210496565","true","1219.7699999960605","./Stimuli/SelectedImages/SM/SM108.bmp","76","","","","test","true","N + M","76","switch","SM","SM108.bmp","remember","","61","3","prime1","right","","","",""
"html-keyboard-response","159","390431","0.0-4.0-1.0-3.12","kjae8p0sqgm6lew","prime","5e8f49e5cb8d6321556f8e8e","5f60e3c0a3b16e07647b2ff9","5f64c2c8be42420210496565","false","null","<div style=""align-items: center; display: flex; color: dodgerblue; font-size: 90px""><b>o</b></div>","null","","","","forget_cue","","","","","","","","","","","","","","","",""
"html-keyboard-response","160","391134","0.0-4.0-1.0-0.13","kjae8p0sqgm6lew","prime","5e8f49e5cb8d6321556f8e8e","5f60e3c0a3b16e07647b2ff9","5f64c2c8be42420210496565","false","null","<span style=""color: black; font-size: 48px"">M + N</span>","null","","","","resp_prompt","","","","","","","","","","","","","","","",""
"categorize-image","161","392153","0.0-4.0-1.0-1.13","kjae8p0sqgm6lew","prime","5e8f49e5cb8d6321556f8e8e","5f60e3c0a3b16e07647b2ff9","5f64c2c8be42420210496565","true","1008.784999983618","./Stimuli/SelectedImages/LN/LN111.bmp","76","","","","test","true","M + N","76","switch","LN","LN111.bmp","forget","","62","3","prime1","right","","","",""
"html-keyboard-response","162","394157","0.0-4.0-1.0-3.13","kjae8p0sqgm6lew","prime","5e8f49e5cb8d6321556f8e8e","5f60e3c0a3b16e07647b2ff9","5f64c2c8be42420210496565","false","null","<div style=""align-items: center; display: flex; color: darkorange; font-size: 90px""><b>ø</b></div>","null","","","","forget_cue","","","","","","","","","","","","","","","",""
"html-keyboard-response","163","394861","0.0-4.0-1.0-0.14","kjae8p0sqgm6lew","prime","5e8f49e5cb8d6321556f8e8e","5f60e3c0a3b16e07647b2ff9","5f64c2c8be42420210496565","false","null","<span style=""color: black; font-size: 48px"">M + N</span>","null","","","","resp_prompt","","","","","","","","","","","","","","","",""
"categorize-image","164","395534","0.0-4.0-1.0-1.14","kjae8p0sqgm6lew","prime","5e8f49e5cb8d6321556f8e8e","5f60e3c0a3b16e07647b2ff9","5f64c2c8be42420210496565","true","665.9449999860954","./Stimuli/SelectedImages/SM/SM76.bmp","83","","","","test","true","M + N","83","switch","SM","SM76.bmp","forget","","63","3","prime1","left","","","",""
"html-keyboard-response","165","397538","0.0-4.0-1.0-3.14","kjae8p0sqgm6lew","prime","5e8f49e5cb8d6321556f8e8e","5f60e3c0a3b16e07647b2ff9","5f64c2c8be42420210496565","false","null","<div style=""align-items: center; display: flex; color: darkorange; font-size: 90px""><b>ø</b></div>","null","","","","forget_cue","","","","","","","","","","","","","","","",""
"html-keyboard-response","166","398244","0.0-4.0-1.0-0.15","kjae8p0sqgm6lew","prime","5e8f49e5cb8d6321556f8e8e","5f60e3c0a3b16e07647b2ff9","5f64c2c8be42420210496565","false","null","<span style=""color: black; font-size: 48px"">N + M</span>","null","","","","resp_prompt","","","","","","","","","","","","","","","",""
"categorize-image","167","399647","0.0-4.0-1.0-1.15","kjae8p0sqgm6lew","prime","5e8f49e5cb8d6321556f8e8e","5f60e3c0a3b16e07647b2ff9","5f64c2c8be42420210496565","true","1394.189999991795","./Stimuli/SelectedImages/SN/SN60.bmp","83","","","","test","true","N + M","83","repetition","SN","SN60.bmp","remember","","64","3","prime1","left","","","",""
"html-keyboard-response","168","401656","0.0-4.0-1.0-3.15","kjae8p0sqgm6lew","prime","5e8f49e5cb8d6321556f8e8e","5f60e3c0a3b16e07647b2ff9","5f64c2c8be42420210496565","false","null","<div style=""align-items: center; display: flex; color: dodgerblue; font-size: 90px""><b>o</b></div>","null","","","","forget_cue","","","","","","","","","","","","","","","",""
"html-keyboard-response","169","402360","0.0-4.0-1.0-0.16","kjae8p0sqgm6lew","prime","5e8f49e5cb8d6321556f8e8e","5f60e3c0a3b16e07647b2ff9","5f64c2c8be42420210496565","false","null","<span style=""color: black; font-size: 48px"">N + M</span>","null","","","","resp_prompt","","","","","","","","","","","","","","","",""
"categorize-image","170","402949","0.0-4.0-1.0-1.16","kjae8p0sqgm6lew","prime","5e8f49e5cb8d6321556f8e8e","5f60e3c0a3b16e07647b2ff9","5f64c2c8be42420210496565","true","578.2600000093225","./Stimuli/SelectedImages/LN/LN28.bmp","83","","","","test","true","N + M","83","switch","LN","LN28.bmp","forget","","65","3","prime1","left","","","",""
"html-keyboard-response","171","404955","0.0-4.0-1.0-3.16","kjae8p0sqgm6lew","prime","5e8f49e5cb8d6321556f8e8e","5f60e3c0a3b16e07647b2ff9","5f64c2c8be42420210496565","false","null","<div style=""align-items: center; display: flex; color: darkorange; font-size: 90px""><b>ø</b></div>","null","","","","forget_cue","","","","","","","","","","","","","","","",""
"html-keyboard-response","172","405658","0.0-4.0-1.0-0.17","kjae8p0sqgm6lew","prime","5e8f49e5cb8d6321556f8e8e","5f60e3c0a3b16e07647b2ff9","5f64c2c8be42420210496565","false","null","<span style=""color: black; font-size: 48px"">M + N</span>","null","","","","resp_prompt","","","","","","","","","","","","","","","",""
"categorize-image","173","406157","0.0-4.0-1.0-1.17","kjae8p0sqgm6lew","prime","5e8f49e5cb8d6321556f8e8e","5f60e3c0a3b16e07647b2ff9","5f64c2c8be42420210496565","true","486.57000000821427","./Stimuli/SelectedImages/SN/SN240.bmp","76","","","","test","true","M + N","76","switch","SN","SN240.bmp","remember","","66","3","prime1","right","","","",""
"html-keyboard-response","174","408162","0.0-4.0-1.0-3.17","kjae8p0sqgm6lew","prime","5e8f49e5cb8d6321556f8e8e","5f60e3c0a3b16e07647b2ff9","5f64c2c8be42420210496565","false","null","<div style=""align-items: center; display: flex; color: dodgerblue; font-size: 90px""><b>o</b></div>","null","","","","forget_cue","","","","","","","","","","","","","","","",""
"html-keyboard-response","175","408866","0.0-4.0-1.0-0.18","kjae8p0sqgm6lew","prime","5e8f49e5cb8d6321556f8e8e","5f60e3c0a3b16e07647b2ff9","5f64c2c8be42420210496565","false","null","<span style=""color: black; font-size: 48px"">N + M</span>","null","","","","resp_prompt","","","","","","","","","","","","","","","",""
"categorize-image","176","409780","0.0-4.0-1.0-1.18","kjae8p0sqgm6lew","prime","5e8f49e5cb8d6321556f8e8e","5f60e3c0a3b16e07647b2ff9","5f64c2c8be42420210496565","true","902.8600000019651","./Stimuli/SelectedImages/LN/LN82.bmp","83","","","","test","true","N + M","83","switch","LN","LN82.bmp","forget","","67","3","prime1","left","","","",""
"html-keyboard-response","177","411784","0.0-4.0-1.0-3.18","kjae8p0sqgm6lew","prime","5e8f49e5cb8d6321556f8e8e","5f60e3c0a3b16e07647b2ff9","5f64c2c8be42420210496565","false","null","<div style=""align-items: center; display: flex; color: darkorange; font-size: 90px""><b>ø</b></div>","null","","","","forget_cue","","","","","","","","","","","","","","","",""
"html-keyboard-response","178","412488","0.0-4.0-1.0-0.19","kjae8p0sqgm6lew","prime","5e8f49e5cb8d6321556f8e8e","5f60e3c0a3b16e07647b2ff9","5f64c2c8be42420210496565","false","null","<span style=""color: black; font-size: 48px"">M + N</span>","null","","","","resp_prompt","","","","","","","","","","","","","","","",""
"categorize-image","179","413453","0.0-4.0-1.0-1.19","kjae8p0sqgm6lew","prime","5e8f49e5cb8d6321556f8e8e","5f60e3c0a3b16e07647b2ff9","5f64c2c8be42420210496565","true","955.2799999946728","./Stimuli/SelectedImages/SN/SN128.bmp","76","","","","test","true","M + N","76","switch","SN","SN128.bmp","forget","","68","3","prime1","right","","","",""
"html-keyboard-response","180","415456","0.0-4.0-1.0-3.19","kjae8p0sqgm6lew","prime","5e8f49e5cb8d6321556f8e8e","5f60e3c0a3b16e07647b2ff9","5f64c2c8be42420210496565","false","null","<div style=""align-items: center; display: flex; color: darkorange; font-size: 90px""><b>ø</b></div>","null","","","","forget_cue","","","","","","","","","","","","","","","",""
"html-keyboard-response","181","416160","0.0-4.0-1.0-0.20","kjae8p0sqgm6lew","prime","5e8f49e5cb8d6321556f8e8e","5f60e3c0a3b16e07647b2ff9","5f64c2c8be42420210496565","false","null","<span style=""color: black; font-size: 48px"">M + N</span>","null","","","","resp_prompt","","","","","","","","","","","","","","","",""
"categorize-image","182","417079","0.0-4.0-1.0-1.20","kjae8p0sqgm6lew","prime","5e8f49e5cb8d6321556f8e8e","5f60e3c0a3b16e07647b2ff9","5f64c2c8be42420210496565","true","910.1599999994505","./Stimuli/SelectedImages/SN/SN179.bmp","76","","","","test","true","M + N","76","repetition","SN","SN179.bmp","remember","","69","3","prime1","right","","","",""
"html-keyboard-response","183","419088","0.0-4.0-1.0-3.20","kjae8p0sqgm6lew","prime","5e8f49e5cb8d6321556f8e8e","5f60e3c0a3b16e07647b2ff9","5f64c2c8be42420210496565","false","null","<div style=""align-items: center; display: flex; color: dodgerblue; font-size: 90px""><b>o</b></div>","null","","","","forget_cue","","","","","","","","","","","","","","","",""
"html-keyboard-response","184","419791","0.0-4.0-1.0-0.21","kjae8p0sqgm6lew","prime","5e8f49e5cb8d6321556f8e8e","5f60e3c0a3b16e07647b2ff9","5f64c2c8be42420210496565","false","null","<span style=""color: black; font-size: 48px"">M + N</span>","null","","","","resp_prompt","","","","","","","","","","","","","","","",""
"categorize-image","185","420636","0.0-4.0-1.0-1.21","kjae8p0sqgm6lew","prime","5e8f49e5cb8d6321556f8e8e","5f60e3c0a3b16e07647b2ff9","5f64c2c8be42420210496565","true","832.5149999873247","./Stimuli/SelectedImages/SN/SN18.bmp","76","","","","test","true","M + N","76","repetition","SN","SN18.bmp","remember","","70","3","prime1","right","","","",""
"html-keyboard-response","186","422640","0.0-4.0-1.0-3.21","kjae8p0sqgm6lew","prime","5e8f49e5cb8d6321556f8e8e","5f60e3c0a3b16e07647b2ff9","5f64c2c8be42420210496565","false","null","<div style=""align-items: center; display: flex; color: dodgerblue; font-size: 90px""><b>o</b></div>","null","","","","forget_cue","","","","","","","","","","","","","","","",""
"html-keyboard-response","187","423343","0.0-4.0-1.0-0.22","kjae8p0sqgm6lew","prime","5e8f49e5cb8d6321556f8e8e","5f60e3c0a3b16e07647b2ff9","5f64c2c8be42420210496565","false","null","<span style=""color: black; font-size: 48px"">N + M</span>","null","","","","resp_prompt","","","","","","","","","","","","","","","",""
"categorize-image","188","424417","0.0-4.0-1.0-1.22","kjae8p0sqgm6lew","prime","5e8f49e5cb8d6321556f8e8e","5f60e3c0a3b16e07647b2ff9","5f64c2c8be42420210496565","true","1064.0950000088196","./Stimuli/SelectedImages/LN/LN101.bmp","83","","","","test","true","N + M","83","switch","LN","LN101.bmp","remember","","71","3","prime1","left","","","",""
"html-keyboard-response","189","426423","0.0-4.0-1.0-3.22","kjae8p0sqgm6lew","prime","5e8f49e5cb8d6321556f8e8e","5f60e3c0a3b16e07647b2ff9","5f64c2c8be42420210496565","false","null","<div style=""align-items: center; display: flex; color: dodgerblue; font-size: 90px""><b>o</b></div>","null","","","","forget_cue","","","","","","","","","","","","","","","",""
"html-keyboard-response","190","427126","0.0-4.0-1.0-0.23","kjae8p0sqgm6lew","prime","5e8f49e5cb8d6321556f8e8e","5f60e3c0a3b16e07647b2ff9","5f64c2c8be42420210496565","false","null","<span style=""color: black; font-size: 48px"">M + N</span>","null","","","","resp_prompt","","","","","","","","","","","","","","","",""
"categorize-image","191","428380","0.0-4.0-1.0-1.23","kjae8p0sqgm6lew","prime","5e8f49e5cb8d6321556f8e8e","5f60e3c0a3b16e07647b2ff9","5f64c2c8be42420210496565","true","1243.0600000079721","./Stimuli/SelectedImages/SN/SN64.bmp","83","","","","test","false","M + N","76","switch","SN","SN64.bmp","forget","","72","3","prime1","left","","","",""
"html-keyboard-response","192","428886","0.0-4.0-1.0-2.23-0.23","kjae8p0sqgm6lew","prime","5e8f49e5cb8d6321556f8e8e","5f60e3c0a3b16e07647b2ff9","5f64c2c8be42420210496565","false","null","<span style=""color: red; font-size: 48px"">Error!</span>","null","","","","feedback","","","","","","","","","","","","","","","",""
"html-keyboard-response","193","430889","0.0-4.0-1.0-3.23","kjae8p0sqgm6lew","prime","5e8f49e5cb8d6321556f8e8e","5f60e3c0a3b16e07647b2ff9","5f64c2c8be42420210496565","false","null","<div style=""align-items: center; display: flex; color: darkorange; font-size: 90px""><b>ø</b></div>","null","","","","forget_cue","","","","","","","","","","","","","","","",""
"html-keyboard-response","194","431593","0.0-4.0-1.0-0.24","kjae8p0sqgm6lew","prime","5e8f49e5cb8d6321556f8e8e","5f60e3c0a3b16e07647b2ff9","5f64c2c8be42420210496565","false","null","<span style=""color: black; font-size: 48px"">M + N</span>","null","","","","resp_prompt","","","","","","","","","","","","","","","",""
"categorize-image","195","432635","0.0-4.0-1.0-1.24","kjae8p0sqgm6lew","prime","5e8f49e5cb8d6321556f8e8e","5f60e3c0a3b16e07647b2ff9","5f64c2c8be42420210496565","true","1032.6850000128616","./Stimuli/SelectedImages/LN/LN42.bmp","83","","","","test","false","M + N","76","switch","LN","LN42.bmp","remember","","73","3","prime1","left","","","",""
"html-keyboard-response","196","433139","0.0-4.0-1.0-2.24-0.24","kjae8p0sqgm6lew","prime","5e8f49e5cb8d6321556f8e8e","5f60e3c0a3b16e07647b2ff9","5f64c2c8be42420210496565","false","null","<span style=""color: red; font-size: 48px"">Error!</span>","null","","","","feedback","","","","","","","","","","","","","","","",""
"html-keyboard-response","197","435142","0.0-4.0-1.0-3.24","kjae8p0sqgm6lew","prime","5e8f49e5cb8d6321556f8e8e","5f60e3c0a3b16e07647b2ff9","5f64c2c8be42420210496565","false","null","<div style=""align-items: center; display: flex; color: dodgerblue; font-size: 90px""><b>o</b></div>","null","","","","forget_cue","","","","","","","","","","","","","","","",""
"html-keyboard-response","198","435844","0.0-4.0-1.0-0.25","kjae8p0sqgm6lew","prime","5e8f49e5cb8d6321556f8e8e","5f60e3c0a3b16e07647b2ff9","5f64c2c8be42420210496565","false","null","<span style=""color: black; font-size: 48px"">M + N</span>","null","","","","resp_prompt","","","","","","","","","","","","","","","",""
"categorize-image","199","436659","0.0-4.0-1.0-1.25","kjae8p0sqgm6lew","prime","5e8f49e5cb8d6321556f8e8e","5f60e3c0a3b16e07647b2ff9","5f64c2c8be42420210496565","true","805.7850000041071","./Stimuli/SelectedImages/SN/SN93.bmp","76","","","","test","true","M + N","76","switch","SN","SN93.bmp","remember","","74","3","prime1","right","","","",""
"html-keyboard-response","200","438662","0.0-4.0-1.0-3.25","kjae8p0sqgm6lew","prime","5e8f49e5cb8d6321556f8e8e","5f60e3c0a3b16e07647b2ff9","5f64c2c8be42420210496565","false","null","<div style=""align-items: center; display: flex; color: dodgerblue; font-size: 90px""><b>o</b></div>","null","","","","forget_cue","","","","","","","","","","","","","","","",""
"html-keyboard-response","201","439366","0.0-4.0-1.0-0.26","kjae8p0sqgm6lew","prime","5e8f49e5cb8d6321556f8e8e","5f60e3c0a3b16e07647b2ff9","5f64c2c8be42420210496565","false","null","<span style=""color: black; font-size: 48px"">N + M</span>","null","","","","resp_prompt","","","","","","","","","","","","","","","",""
"categorize-image","202","440377","0.0-4.0-1.0-1.26","kjae8p0sqgm6lew","prime","5e8f49e5cb8d6321556f8e8e","5f60e3c0a3b16e07647b2ff9","5f64c2c8be42420210496565","true","1001.3899999903515","./Stimuli/SelectedImages/LN/LN128.bmp","83","","","","test","true","N + M","83","repetition","LN","LN128.bmp","remember","","75","3","prime1","left","","","",""
"html-keyboard-response","203","442381","0.0-4.0-1.0-3.26","kjae8p0sqgm6lew","prime","5e8f49e5cb8d6321556f8e8e","5f60e3c0a3b16e07647b2ff9","5f64c2c8be42420210496565","false","null","<div style=""align-items: center; display: flex; color: dodgerblue; font-size: 90px""><b>o</b></div>","null","","","","forget_cue","","","","","","","","","","","","","","","",""
"html-keyboard-response","204","443085","0.0-4.0-1.0-0.27","kjae8p0sqgm6lew","prime","5e8f49e5cb8d6321556f8e8e","5f60e3c0a3b16e07647b2ff9","5f64c2c8be42420210496565","false","null","<span style=""color: black; font-size: 48px"">M + N</span>","null","","","","resp_prompt","","","","","","","","","","","","","","","",""
"categorize-image","205","444271","0.0-4.0-1.0-1.27","kjae8p0sqgm6lew","prime","5e8f49e5cb8d6321556f8e8e","5f60e3c0a3b16e07647b2ff9","5f64c2c8be42420210496565","true","1173.1549999967683","./Stimuli/SelectedImages/SM/SM195.bmp","76","","","","test","false","M + N","83","switch","SM","SM195.bmp","remember","","76","3","prime1","right","","","",""
"html-keyboard-response","206","444776","0.0-4.0-1.0-2.27-0.27","kjae8p0sqgm6lew","prime","5e8f49e5cb8d6321556f8e8e","5f60e3c0a3b16e07647b2ff9","5f64c2c8be42420210496565","false","null","<span style=""color: red; font-size: 48px"">Error!</span>","null","","","","feedback","","","","","","","","","","","","","","","",""
"html-keyboard-response","207","446780","0.0-4.0-1.0-3.27","kjae8p0sqgm6lew","prime","5e8f49e5cb8d6321556f8e8e","5f60e3c0a3b16e07647b2ff9","5f64c2c8be42420210496565","false","null","<div style=""align-items: center; display: flex; color: dodgerblue; font-size: 90px""><b>o</b></div>","null","","","","forget_cue","","","","","","","","","","","","","","","",""
"html-keyboard-response","208","447483","0.0-4.0-1.0-0.28","kjae8p0sqgm6lew","prime","5e8f49e5cb8d6321556f8e8e","5f60e3c0a3b16e07647b2ff9","5f64c2c8be42420210496565","false","null","<span style=""color: black; font-size: 48px"">N + M</span>","null","","","","resp_prompt","","","","","","","","","","","","","","","",""
"categorize-image","209","448474","0.0-4.0-1.0-1.28","kjae8p0sqgm6lew","prime","5e8f49e5cb8d6321556f8e8e","5f60e3c0a3b16e07647b2ff9","5f64c2c8be42420210496565","true","980.4900000162888","./Stimuli/SelectedImages/LM/LM48.bmp","76","","","","test","true","N + M","76","repetition","LM","LM48.bmp","remember","","77","3","prime1","right","","","",""
"html-keyboard-response","210","450477","0.0-4.0-1.0-3.28","kjae8p0sqgm6lew","prime","5e8f49e5cb8d6321556f8e8e","5f60e3c0a3b16e07647b2ff9","5f64c2c8be42420210496565","false","null","<div style=""align-items: center; display: flex; color: dodgerblue; font-size: 90px""><b>o</b></div>","null","","","","forget_cue","","","","","","","","","","","","","","","",""
"html-keyboard-response","211","451180","0.0-4.0-1.0-0.29","kjae8p0sqgm6lew","prime","5e8f49e5cb8d6321556f8e8e","5f60e3c0a3b16e07647b2ff9","5f64c2c8be42420210496565","false","null","<span style=""color: black; font-size: 48px"">M + N</span>","null","","","","resp_prompt","","","","","","","","","","","","","","","",""
"categorize-image","212","452954","0.0-4.0-1.0-1.29","kjae8p0sqgm6lew","prime","5e8f49e5cb8d6321556f8e8e","5f60e3c0a3b16e07647b2ff9","5f64c2c8be42420210496565","true","1763.5449999943376","./Stimuli/SelectedImages/LN/LN177.bmp","76","","","","test","true","M + N","76","switch","LN","LN177.bmp","forget","","78","3","prime1","right","","","",""
"html-keyboard-response","213","454964","0.0-4.0-1.0-3.29","kjae8p0sqgm6lew","prime","5e8f49e5cb8d6321556f8e8e","5f60e3c0a3b16e07647b2ff9","5f64c2c8be42420210496565","false","null","<div style=""align-items: center; display: flex; color: darkorange; font-size: 90px""><b>ø</b></div>","null","","","","forget_cue","","","","","","","","","","","","","","","",""
"html-keyboard-response","214","455669","0.0-4.0-1.0-0.30","kjae8p0sqgm6lew","prime","5e8f49e5cb8d6321556f8e8e","5f60e3c0a3b16e07647b2ff9","5f64c2c8be42420210496565","false","null","<span style=""color: black; font-size: 48px"">M + N</span>","null","","","","resp_prompt","","","","","","","","","","","","","","","",""
"categorize-image","215","456280","0.0-4.0-1.0-1.30","kjae8p0sqgm6lew","prime","5e8f49e5cb8d6321556f8e8e","5f60e3c0a3b16e07647b2ff9","5f64c2c8be42420210496565","true","599.7149999893736","./Stimuli/SelectedImages/LM/LM235.bmp","83","","","","test","true","M + N","83","repetition","LM","LM235.bmp","forget","","79","3","prime1","left","","","",""
"html-keyboard-response","216","458286","0.0-4.0-1.0-3.30","kjae8p0sqgm6lew","prime","5e8f49e5cb8d6321556f8e8e","5f60e3c0a3b16e07647b2ff9","5f64c2c8be42420210496565","false","null","<div style=""align-items: center; display: flex; color: darkorange; font-size: 90px""><b>ø</b></div>","null","","","","forget_cue","","","","","","","","","","","","","","","",""
"html-keyboard-response","217","458989","0.0-4.0-1.0-0.31","kjae8p0sqgm6lew","prime","5e8f49e5cb8d6321556f8e8e","5f60e3c0a3b16e07647b2ff9","5f64c2c8be42420210496565","false","null","<span style=""color: black; font-size: 48px"">M + N</span>","null","","","","resp_prompt","","","","","","","","","","","","","","","",""
"categorize-image","218","459625","0.0-4.0-1.0-1.31","kjae8p0sqgm6lew","prime","5e8f49e5cb8d6321556f8e8e","5f60e3c0a3b16e07647b2ff9","5f64c2c8be42420210496565","true","627.6450000004843","./Stimuli/SelectedImages/SM/SM17.bmp","83","","","","test","true","M + N","83","switch","SM","SM17.bmp","forget","","80","3","prime1","left","","","",""
"html-keyboard-response","219","461628","0.0-4.0-1.0-3.31","kjae8p0sqgm6lew","prime","5e8f49e5cb8d6321556f8e8e","5f60e3c0a3b16e07647b2ff9","5f64c2c8be42420210496565","false","null","<div style=""align-items: center; display: flex; color: darkorange; font-size: 90px""><b>ø</b></div>","null","","","","forget_cue","","","","","","","","","","","","","","","",""
"html-keyboard-response","220","462331","0.0-4.0-1.0-0.32","kjae8p0sqgm6lew","prime","5e8f49e5cb8d6321556f8e8e","5f60e3c0a3b16e07647b2ff9","5f64c2c8be42420210496565","false","null","<span style=""color: black; font-size: 48px"">M + N</span>","null","","","","resp_prompt","","","","","","","","","","","","","","","",""
"categorize-image","221","463262","0.0-4.0-1.0-1.32","kjae8p0sqgm6lew","prime","5e8f49e5cb8d6321556f8e8e","5f60e3c0a3b16e07647b2ff9","5f64c2c8be42420210496565","true","922.6000000198837","./Stimuli/SelectedImages/SM/SM74.bmp","83","","","","test","true","M + N","83","switch","SM","SM74.bmp","remember","","81","3","prime1","left","","","",""
"html-keyboard-response","222","465265","0.0-4.0-1.0-3.32","kjae8p0sqgm6lew","prime","5e8f49e5cb8d6321556f8e8e","5f60e3c0a3b16e07647b2ff9","5f64c2c8be42420210496565","false","null","<div style=""align-items: center; display: flex; color: dodgerblue; font-size: 90px""><b>o</b></div>","null","","","","forget_cue","","","","","","","","","","","","","","","",""
"html-keyboard-response","223","465969","0.0-4.0-1.0-0.33","kjae8p0sqgm6lew","prime","5e8f49e5cb8d6321556f8e8e","5f60e3c0a3b16e07647b2ff9","5f64c2c8be42420210496565","false","null","<span style=""color: black; font-size: 48px"">N + M</span>","null","","","","resp_prompt","","","","","","","","","","","","","","","",""
"categorize-image","224","466699","0.0-4.0-1.0-1.33","kjae8p0sqgm6lew","prime","5e8f49e5cb8d6321556f8e8e","5f60e3c0a3b16e07647b2ff9","5f64c2c8be42420210496565","true","721.7400000081398","./Stimuli/SelectedImages/SN/SN187.bmp","76","","","","test","false","N + M","83","switch","SN","SN187.bmp","forget","","82","3","prime1","right","","","",""
"html-keyboard-response","225","467202","0.0-4.0-1.0-2.33-0.33","kjae8p0sqgm6lew","prime","5e8f49e5cb8d6321556f8e8e","5f60e3c0a3b16e07647b2ff9","5f64c2c8be42420210496565","false","null","<span style=""color: red; font-size: 48px"">Error!</span>","null","","","","feedback","","","","","","","","","","","","","","","",""
"html-keyboard-response","226","469206","0.0-4.0-1.0-3.33","kjae8p0sqgm6lew","prime","5e8f49e5cb8d6321556f8e8e","5f60e3c0a3b16e07647b2ff9","5f64c2c8be42420210496565","false","null","<div style=""align-items: center; display: flex; color: darkorange; font-size: 90px""><b>ø</b></div>","null","","","","forget_cue","","","","","","","","","","","","","","","",""
"html-keyboard-response","227","469909","0.0-4.0-1.0-0.34","kjae8p0sqgm6lew","prime","5e8f49e5cb8d6321556f8e8e","5f60e3c0a3b16e07647b2ff9","5f64c2c8be42420210496565","false","null","<span style=""color: black; font-size: 48px"">N + M</span>","null","","","","resp_prompt","","","","","","","","","","","","","","","",""
"categorize-image","228","471197","0.0-4.0-1.0-1.34","kjae8p0sqgm6lew","prime","5e8f49e5cb8d6321556f8e8e","5f60e3c0a3b16e07647b2ff9","5f64c2c8be42420210496565","true","1278.9250000205357","./Stimuli/SelectedImages/LM/LM209.bmp","83","","","","test","false","N + M","76","repetition","LM","LM209.bmp","forget","","83","3","prime1","left","","","",""
"html-keyboard-response","229","471701","0.0-4.0-1.0-2.34-0.34","kjae8p0sqgm6lew","prime","5e8f49e5cb8d6321556f8e8e","5f60e3c0a3b16e07647b2ff9","5f64c2c8be42420210496565","false","null","<span style=""color: red; font-size: 48px"">Error!</span>","null","","","","feedback","","","","","","","","","","","","","","","",""
"html-keyboard-response","230","473705","0.0-4.0-1.0-3.34","kjae8p0sqgm6lew","prime","5e8f49e5cb8d6321556f8e8e","5f60e3c0a3b16e07647b2ff9","5f64c2c8be42420210496565","false","null","<div style=""align-items: center; display: flex; color: darkorange; font-size: 90px""><b>ø</b></div>","null","","","","forget_cue","","","","","","","","","","","","","","","",""
"html-keyboard-response","231","474409","0.0-4.0-1.0-0.35","kjae8p0sqgm6lew","prime","5e8f49e5cb8d6321556f8e8e","5f60e3c0a3b16e07647b2ff9","5f64c2c8be42420210496565","false","null","<span style=""color: black; font-size: 48px"">M + N</span>","null","","","","resp_prompt","","","","","","","","","","","","","","","",""
"categorize-image","232","475040","0.0-4.0-1.0-1.35","kjae8p0sqgm6lew","prime","5e8f49e5cb8d6321556f8e8e","5f60e3c0a3b16e07647b2ff9","5f64c2c8be42420210496565","true","618.9899999881163","./Stimuli/SelectedImages/LM/LM57.bmp","83","","","","test","true","M + N","83","switch","LM","LM57.bmp","forget","","84","3","prime1","left","","","",""
"html-keyboard-response","233","477045","0.0-4.0-1.0-3.35","kjae8p0sqgm6lew","prime","5e8f49e5cb8d6321556f8e8e","5f60e3c0a3b16e07647b2ff9","5f64c2c8be42420210496565","false","null","<div style=""align-items: center; display: flex; color: darkorange; font-size: 90px""><b>ø</b></div>","null","","","","forget_cue","","","","","","","","","","","","","","","",""
"html-keyboard-response","234","477749","0.0-4.0-1.0-0.36","kjae8p0sqgm6lew","prime","5e8f49e5cb8d6321556f8e8e","5f60e3c0a3b16e07647b2ff9","5f64c2c8be42420210496565","false","null","<span style=""color: black; font-size: 48px"">N + M</span>","null","","","","resp_prompt","","","","","","","","","","","","","","","",""
"categorize-image","235","478503","0.0-4.0-1.0-1.36","kjae8p0sqgm6lew","prime","5e8f49e5cb8d6321556f8e8e","5f60e3c0a3b16e07647b2ff9","5f64c2c8be42420210496565","true","744.1149999795016","./Stimuli/SelectedImages/SN/SN182.bmp","76","","","","test","false","N + M","83","repetition","SN","SN182.bmp","forget","","85","3","prime1","right","","","",""
"html-keyboard-response","236","479006","0.0-4.0-1.0-2.36-0.36","kjae8p0sqgm6lew","prime","5e8f49e5cb8d6321556f8e8e","5f60e3c0a3b16e07647b2ff9","5f64c2c8be42420210496565","false","null","<span style=""color: red; font-size: 48px"">Error!</span>","null","","","","feedback","","","","","","","","","","","","","","","",""
"html-keyboard-response","237","481010","0.0-4.0-1.0-3.36","kjae8p0sqgm6lew","prime","5e8f49e5cb8d6321556f8e8e","5f60e3c0a3b16e07647b2ff9","5f64c2c8be42420210496565","false","null","<div style=""align-items: center; display: flex; color: darkorange; font-size: 90px""><b>ø</b></div>","null","","","","forget_cue","","","","","","","","","","","","","","","",""
"html-keyboard-response","238","481716","0.0-4.0-1.0-0.37","kjae8p0sqgm6lew","prime","5e8f49e5cb8d6321556f8e8e","5f60e3c0a3b16e07647b2ff9","5f64c2c8be42420210496565","false","null","<span style=""color: black; font-size: 48px"">N + M</span>","null","","","","resp_prompt","","","","","","","","","","","","","","","",""
"categorize-image","239","482657","0.0-4.0-1.0-1.37","kjae8p0sqgm6lew","prime","5e8f49e5cb8d6321556f8e8e","5f60e3c0a3b16e07647b2ff9","5f64c2c8be42420210496565","true","929.6399999875575","./Stimuli/SelectedImages/SM/SM184.bmp","83","","","","test","false","N + M","76","repetition","SM","SM184.bmp","remember","","86","3","prime1","left","","","",""
"html-keyboard-response","240","483160","0.0-4.0-1.0-2.37-0.37","kjae8p0sqgm6lew","prime","5e8f49e5cb8d6321556f8e8e","5f60e3c0a3b16e07647b2ff9","5f64c2c8be42420210496565","false","null","<span style=""color: red; font-size: 48px"">Error!</span>","null","","","","feedback","","","","","","","","","","","","","","","",""
"html-keyboard-response","241","485164","0.0-4.0-1.0-3.37","kjae8p0sqgm6lew","prime","5e8f49e5cb8d6321556f8e8e","5f60e3c0a3b16e07647b2ff9","5f64c2c8be42420210496565","false","null","<div style=""align-items: center; display: flex; color: dodgerblue; font-size: 90px""><b>o</b></div>","null","","","","forget_cue","","","","","","","","","","","","","","","",""
"html-keyboard-response","242","485868","0.0-4.0-1.0-0.38","kjae8p0sqgm6lew","prime","5e8f49e5cb8d6321556f8e8e","5f60e3c0a3b16e07647b2ff9","5f64c2c8be42420210496565","false","null","<span style=""color: black; font-size: 48px"">N + M</span>","null","","","","resp_prompt","","","","","","","","","","","","","","","",""
"categorize-image","243","487149","0.0-4.0-1.0-1.38","kjae8p0sqgm6lew","prime","5e8f49e5cb8d6321556f8e8e","5f60e3c0a3b16e07647b2ff9","5f64c2c8be42420210496565","true","1271.470000006957","./Stimuli/SelectedImages/SM/SM205.bmp","83","","","","test","false","N + M","76","switch","SM","SM205.bmp","remember","","87","3","prime1","left","","","",""
"html-keyboard-response","244","487652","0.0-4.0-1.0-2.38-0.38","kjae8p0sqgm6lew","prime","5e8f49e5cb8d6321556f8e8e","5f60e3c0a3b16e07647b2ff9","5f64c2c8be42420210496565","false","null","<span style=""color: red; font-size: 48px"">Error!</span>","null","","","","feedback","","","","","","","","","","","","","","","",""
"html-keyboard-response","245","489656","0.0-4.0-1.0-3.38","kjae8p0sqgm6lew","prime","5e8f49e5cb8d6321556f8e8e","5f60e3c0a3b16e07647b2ff9","5f64c2c8be42420210496565","false","null","<div style=""align-items: center; display: flex; color: dodgerblue; font-size: 90px""><b>o</b></div>","null","","","","forget_cue","","","","","","","","","","","","","","","",""
"html-keyboard-response","246","490359","0.0-4.0-1.0-0.39","kjae8p0sqgm6lew","prime","5e8f49e5cb8d6321556f8e8e","5f60e3c0a3b16e07647b2ff9","5f64c2c8be42420210496565","false","null","<span style=""color: black; font-size: 48px"">N + M</span>","null","","","","resp_prompt","","","","","","","","","","","","","","","",""
"categorize-image","247","491554","0.0-4.0-1.0-1.39","kjae8p0sqgm6lew","prime","5e8f49e5cb8d6321556f8e8e","5f60e3c0a3b16e07647b2ff9","5f64c2c8be42420210496565","true","1184.7500000149012","./Stimuli/SelectedImages/LM/LM59.bmp","76","","","","test","true","N + M","76","repetition","LM","LM59.bmp","forget","","88","3","prime1","right","","","",""
"html-keyboard-response","248","493558","0.0-4.0-1.0-3.39","kjae8p0sqgm6lew","prime","5e8f49e5cb8d6321556f8e8e","5f60e3c0a3b16e07647b2ff9","5f64c2c8be42420210496565","false","null","<div style=""align-items: center; display: flex; color: darkorange; font-size: 90px""><b>ø</b></div>","null","","","","forget_cue","","","","","","","","","","","","","","","",""
"html-keyboard-response","249","494261","0.0-4.0-1.0-0.40","kjae8p0sqgm6lew","prime","5e8f49e5cb8d6321556f8e8e","5f60e3c0a3b16e07647b2ff9","5f64c2c8be42420210496565","false","null","<span style=""color: black; font-size: 48px"">N + M</span>","null","","","","resp_prompt","","","","","","","","","","","","","","","",""
"categorize-image","250","495113","0.0-4.0-1.0-1.40","kjae8p0sqgm6lew","prime","5e8f49e5cb8d6321556f8e8e","5f60e3c0a3b16e07647b2ff9","5f64c2c8be42420210496565","true","840.7750000187661","./Stimuli/SelectedImages/LM/LM179.bmp","76","","","","test","true","N + M","76","switch","LM","LM179.bmp","forget","","89","3","prime1","right","","","",""
"html-keyboard-response","251","497118","0.0-4.0-1.0-3.40","kjae8p0sqgm6lew","prime","5e8f49e5cb8d6321556f8e8e","5f60e3c0a3b16e07647b2ff9","5f64c2c8be42420210496565","false","null","<div style=""align-items: center; display: flex; color: darkorange; font-size: 90px""><b>ø</b></div>","null","","","","forget_cue","","","","","","","","","","","","","","","",""
"html-keyboard-response","252","497823","0.0-4.0-1.0-0.41","kjae8p0sqgm6lew","prime","5e8f49e5cb8d6321556f8e8e","5f60e3c0a3b16e07647b2ff9","5f64c2c8be42420210496565","false","null","<span style=""color: black; font-size: 48px"">M + N</span>","null","","","","resp_prompt","","","","","","","","","","","","","","","",""
"categorize-image","253","498587","0.0-4.0-1.0-1.41","kjae8p0sqgm6lew","prime","5e8f49e5cb8d6321556f8e8e","5f60e3c0a3b16e07647b2ff9","5f64c2c8be42420210496565","true","753.7049999809824","./Stimuli/SelectedImages/LM/LM167.bmp","83","","","","test","true","M + N","83","switch","LM","LM167.bmp","forget","","90","3","prime1","left","","","",""
