"trial_type","trial_index","time_elapsed","internal_node_id","subject","exp_part","prolific_PID","study_ID","session_ID","use","rt","stimulus","key_press","button_pressed","responses","question_order","trial_part","correct","resp_map","correct_resp","probe_condition","category","image","forget_condition","list","trial_num","block_num","block","response","test_part","n_span","sequence","num_spaces"
"pavlovia","0","46","0.0-0.0","3gpfppyz5w6lkwk","","5f56056a645a6e9dba848fa2","5f60e3c0a3b16e07647b2ff9","5f6380873c299a069075","false","","","","","","","","","","","","","","","","","","","","","","",""
"html-keyboard-response","1","10033","0.0-1.0-0.0-0.0","3gpfppyz5w6lkwk","welcome","5f56056a645a6e9dba848fa2","5f60e3c0a3b16e07647b2ff9","5f6380873c299a069075","false","9973.98000000976","<div align=left>Dear participant, <br> thank you for participating in an online study of the Cognition, Action, and Sustainability Unit of the University of Freiburg! <br> <br>The aim of this study is to examine our ability to remember previously learned information. <br>Our goal is to find out, whether our memory improves, when we only remember information that is relevant to us. <br>The experiment will take about 35 minutes to complete. <br> <br>Please, note that you can only participate in this study if you are using a device with a keyboard (PC, Laptop etc.) <br>and not if you are using a mobile device such as a tablet or smartphone.<br> <br>Press 'SPACE' to proceed to the experiment. </div>","32","","","","","","","","","","","","","","","","","","","",""
"html-keyboard-response","2","82979","0.0-1.0-0.0-1.0","3gpfppyz5w6lkwk","welcome","5f56056a645a6e9dba848fa2","5f60e3c0a3b16e07647b2ff9","5f6380873c299a069075","false","72940.3249998577","<div align=left><strong> Time Course of this experiment: </strong> <br><br> <strong> 1.</strong>  First, please fill in some information regarding your demographic data. <br><br> <strong> 2.</strong>  Next, your task will be to classify everyday objects. <br>In addition, you will be asked to remember certain objects and recall them later. <br>Working on these tasks requires your undivided attention and concentration.<br>It is therefore essential that you eliminate any sources of distraction in your  <br>environment and ensure that you will not be disturbed. <br><br><strong> 3.</strong>  At the end of the experiment, you will be asked to answer a few additional questions. <br> <br><strong> Important:</strong> After finishing the experiment, only close the browser window <br> by clicking on the 'end the experiment'-button when you are asked to do so. <br>Closing the browser window prematurely will make the allocation of your participation credit impossible. <br><br> Press 'SPACE' to start the experiment. </div>","32","","","","","","","","","","","","","","","","","","","",""
"html-button-response","3","89389","0.0-1.0-0.0-2.0","3gpfppyz5w6lkwk","welcome","5f56056a645a6e9dba848fa2","5f60e3c0a3b16e07647b2ff9","5f6380873c299a069075","true","6403.36999995634","<div align=left><strong> Informed consent </strong>  <br>The aim of our research is to better understand human behavior and mental processes. <br>In the following study your behavior (e.g. choices, reaction times) will be studied. <br> <br><strong> Voluntariness and Anonymity </strong> <br>Your participation in this study is  <strong> voluntary</strong>.<br>You may withdraw your consent to participate at any time without providing a reason for doing so and without fear of prejudice. <br><br>As no personal data will be collected, <strong>your data and your person cannot be connected after data collection</strong> – the data-set is anonymous. <br>Respectively, deletion of your data will not be possible after data collection has been completed, as we cannot retrace your data-set.<br>The results and anonymized data collected in this study will be published as a scientific publication. <br>This will happen in an <strong>anonymized format</strong>, so that no data can be traced back to a specific person. <br> <br>The anonymized data of this study will be made available to other researchers and/or in a data archive on the Internet as a means of transparency and to enable subsequent re-use. By doing so, this study follows the recommendations of the Deutsche Forschungsgemeinschaft (DFG, German Research Foundation) and Deutsche Gesellschaft für Psychologie (DGPS, German Psychological Society) regarding quality assurance in research.<br>If you have any questions now or after the experiment, please contact our team (experiments@cs.uni-freiburg.de).<br><br><br>I hereby declare, that I understand the above described conditions of participation and I agree to participate under these conditions. <br><br> </div>","","0","","","","","","","","","","","","","","","","","","",""
"html-keyboard-response","4","113070","0.0-1.0-0.0-3.0","3gpfppyz5w6lkwk","welcome","5f56056a645a6e9dba848fa2","5f60e3c0a3b16e07647b2ff9","5f6380873c299a069075","false","23671.42999987118","<div align=left><strong> General information concerning the experiment </strong>  <br> <br>Please follow the instructions:<ol> <li><strong> Do not leave this tab (your browser window) during the experiment and do not reload this tab! </strong>  <br>If you do switch tabs/windows during the experiment (to check your mail or visit another website, for example), <br>the experiment will end automatically and you will <strong>not receive credit</strong> for your participation. <br>Repeated participation or resumption of the experiment is impossible.</li> <br><li>Please close all other programs for the duration of your participation. </li> <br><li>Please mute or turn off your phone and put it out of your reach. </li> <br><li>Please also take off any disturbing accessories (such as wristwatches, bracelets, etc.). </li> <br><li>If you have music playing in the background, please turn it off now. </li> <br></ol>Thank you! <br>Press 'SPACE' to continue. </div>","32","","","","","","","","","","","","","","","","","","","",""
"survey-text","5","119000","0.0-1.0-1.0-0.0","3gpfppyz5w6lkwk","demographics","5f56056a645a6e9dba848fa2","5f60e3c0a3b16e07647b2ff9","5f6380873c299a069075","true","5898.094999836758","","","","{""age"":""32""}","","","","","","","","","","","","","","","","","",""
"survey-multi-choice","6","151894","0.0-1.0-1.0-1.0","3gpfppyz5w6lkwk","demographics","5f56056a645a6e9dba848fa2","5f60e3c0a3b16e07647b2ff9","5f6380873c299a069075","true","32883.99500004016","","","","{""gender"":""female"",""school"":""others"",""education"":""other""}","[0,1,2]","","","","","","","","","","","","","","","","",""
"html-keyboard-response","7","164001","0.0-1.0-2.0","3gpfppyz5w6lkwk","instructions","5f56056a645a6e9dba848fa2","5f60e3c0a3b16e07647b2ff9","5f6380873c299a069075","false","12098.99999992922","<div align=left> The experiment is now about to start: <br> <br>In the following part, you will be presented pictures of everyday objects. <br>Your first task is to <strong>classify these objects. </strong> <br> <br> You will classify them either as mechanical or non-mechanical objects. <br> <br>Objects that include any kind of technical mechanism (for example, wheels, switches, levers, <br> electronic components) fall under the category of <strong>mechanical</strong> objects. <br>Only objects without any kind of technical mechanism should be classified as <strong>non-mechanical</strong>. <br><br>Press 'SPACE' to continue. </div>","32","","","","","","","","","","","","","","","","","","","",""
"html-keyboard-response","8","201724","0.0-2.0-0.0","3gpfppyz5w6lkwk","instructions","5f56056a645a6e9dba848fa2","5f60e3c0a3b16e07647b2ff9","5f6380873c299a069075","false","37720.61499999836","<div align=justify>You will classify the objects using the <strong>'S'</strong> and the <strong>'L'</strong> keys on your keyboard.<br>For doing so, please place your <strong>left index finger</strong> on the <strong>'S'</strong> key and place your <strong>right index finger</strong> on the <strong>'L'</strong> key. <br><br> Each trial starts with an instruction, indicating which key ('S'/'L') you need to press to classify <br>the object as mechanical (letter M) or non-mechanical (letter N).<br>The instruction <strong>M + N</strong> indicates that, in the current trial, by pressing the left key ('S') you classify the displayed object as mechanical (M) <br> and by pressing the right key ('L') you classify the object as non-mechanical (N). <br>The instruction <strong>N + M</strong> on the other hand indicates that by pressing the left key ('S') you classify the displayed object as non-mechanical (N) <br> and by pressing the right key ('L') you classify the object as mechanical (M). <br><br>Please press the key corresponding to the correct classification as fast as possible as soon as the object is displayed and try to avoid making mistakes.<br>If you do not respond within a 2 second window, a corresponding feedback will be displayed and the next trial will start.<br> The experiment is divided into multiple blocks to give you the opportunity to take a break after each block. <br>First, you can now practice this task. <br><br>Please place your <strong>LEFT INDEX FINGER</strong> on the 'S' key and your <strong>RIGHT INDEX FINGER</strong> on the 'L' key now. <br><br>Press SPACE to continue.</div>","32","","","","","","","","","","","","","","","","","","","",""
"html-keyboard-response","9","211082","0.0-2.0-1.0","3gpfppyz5w6lkwk","instructions","5f56056a645a6e9dba848fa2","5f60e3c0a3b16e07647b2ff9","5f6380873c299a069075","false","9353.845000034198","<div align=left> You will now have time to practice this task.<br><br>Remember: <br> <br><li>Please place your index fingers on the <strong>'S'</strong> and <strong>'L'</strong> keys <br>to respond as fast and accurately as possible.</li><li>Every picture can be classified as either mechanical or non-mechanical.</li><li>If you do not respond in time or commit an error, you will receive a corresponding feedback. </li><li> Please try to respond as <strong> fast </strong> and as <strong> accurately as possible </strong> .<br><li>To ensure optimal results, please minimize distractions and stay focused. </li><br><br>Press SPACE to continue.</div>","32","","","","","","","","","","","","","","","","","","","",""
"html-keyboard-response","10","211796","0.0-2.0-2.0-0.0","3gpfppyz5w6lkwk","practice_no_cue","5f56056a645a6e9dba848fa2","5f60e3c0a3b16e07647b2ff9","5f6380873c299a069075","false","null","<span style=""color: black; font-size: 48px"">N + M</span>","null","","","","resp_prompt","","","","","","","","","","","","","","","",""
"categorize-image","11","213743","0.0-2.0-2.0-1.0","3gpfppyz5w6lkwk","practice_no_cue","5f56056a645a6e9dba848fa2","5f60e3c0a3b16e07647b2ff9","5f6380873c299a069075","true","1433.0750000663102","./Stimuli/ImagesPractice/LN17.jpg","76","","","","test","false","N + M","83","","LN","LN17.jpg","forget","old","1","1","start","right","","","",""
"html-keyboard-response","12","214461","0.0-2.0-2.0-0.1","3gpfppyz5w6lkwk","practice_no_cue","5f56056a645a6e9dba848fa2","5f60e3c0a3b16e07647b2ff9","5f6380873c299a069075","false","null","<span style=""color: black; font-size: 48px"">M + N</span>","null","","","","resp_prompt","","","","","","","","","","","","","","","",""
"categorize-image","13","216726","0.0-2.0-2.0-1.1","3gpfppyz5w6lkwk","practice_no_cue","5f56056a645a6e9dba848fa2","5f60e3c0a3b16e07647b2ff9","5f6380873c299a069075","true","1755.4899998940527","./Stimuli/ImagesPractice/SN222.jpg","76","","","","test","true","M + N","76","","SN","SN222.jpg","forget","old","2","1","start","right","","","",""
"html-keyboard-response","14","217444","0.0-2.0-2.0-0.2","3gpfppyz5w6lkwk","practice_no_cue","5f56056a645a6e9dba848fa2","5f60e3c0a3b16e07647b2ff9","5f6380873c299a069075","false","null","<span style=""color: black; font-size: 48px"">M + N</span>","null","","","","resp_prompt","","","","","","","","","","","","","","","",""
"categorize-image","15","219024","0.0-2.0-2.0-1.2","3gpfppyz5w6lkwk","practice_no_cue","5f56056a645a6e9dba848fa2","5f60e3c0a3b16e07647b2ff9","5f6380873c299a069075","true","1060.4549997951835","./Stimuli/ImagesPractice/LN4.jpg","83","","","","test","false","M + N","76","","LN","LN4.jpg","forget","old","3","1","start","left","","","",""
"html-keyboard-response","16","219778","0.0-2.0-2.0-0.3","3gpfppyz5w6lkwk","practice_no_cue","5f56056a645a6e9dba848fa2","5f60e3c0a3b16e07647b2ff9","5f6380873c299a069075","false","null","<span style=""color: black; font-size: 48px"">N + M</span>","null","","","","resp_prompt","","","","","","","","","","","","","","","",""
"categorize-image","17","221425","0.0-2.0-2.0-1.3","3gpfppyz5w6lkwk","practice_no_cue","5f56056a645a6e9dba848fa2","5f60e3c0a3b16e07647b2ff9","5f6380873c299a069075","true","1140.015000011772","./Stimuli/ImagesPractice/LM224.jpg","76","","","","test","true","N + M","76","","LM","LM224.jpg","remember","old","4","1","start","right","","","",""
"html-keyboard-response","18","222143","0.0-2.0-2.0-0.4","3gpfppyz5w6lkwk","practice_no_cue","5f56056a645a6e9dba848fa2","5f60e3c0a3b16e07647b2ff9","5f6380873c299a069075","false","null","<span style=""color: black; font-size: 48px"">M + N</span>","null","","","","resp_prompt","","","","","","","","","","","","","","","",""
"categorize-image","19","224673","0.0-2.0-2.0-1.4","3gpfppyz5w6lkwk","practice_no_cue","5f56056a645a6e9dba848fa2","5f60e3c0a3b16e07647b2ff9","5f6380873c299a069075","true","null","./Stimuli/ImagesPractice/LN109.jpg","null","","","","test","false","M + N","76","","LN","LN109.jpg","remember","old","5","1","start","too_slow","","","",""
"html-keyboard-response","20","225378","0.0-2.0-2.0-0.5","3gpfppyz5w6lkwk","practice_no_cue","5f56056a645a6e9dba848fa2","5f60e3c0a3b16e07647b2ff9","5f6380873c299a069075","false","null","<span style=""color: black; font-size: 48px"">N + M</span>","null","","","","resp_prompt","","","","","","","","","","","","","","","",""
"categorize-image","21","227139","0.0-2.0-2.0-1.5","3gpfppyz5w6lkwk","practice_no_cue","5f56056a645a6e9dba848fa2","5f60e3c0a3b16e07647b2ff9","5f6380873c299a069075","true","1246.5099999681115","./Stimuli/ImagesPractice/LM147.jpg","83","","","","test","false","N + M","76","","LM","LM147.jpg","forget","old","6","1","start","left","","","",""
"html-keyboard-response","22","227843","0.0-2.0-2.0-0.6","3gpfppyz5w6lkwk","practice_no_cue","5f56056a645a6e9dba848fa2","5f60e3c0a3b16e07647b2ff9","5f6380873c299a069075","false","null","<span style=""color: black; font-size: 48px"">M + N</span>","null","","","","resp_prompt","","","","","","","","","","","","","","","",""
"categorize-image","23","229840","0.0-2.0-2.0-1.6","3gpfppyz5w6lkwk","practice_no_cue","5f56056a645a6e9dba848fa2","5f60e3c0a3b16e07647b2ff9","5f6380873c299a069075","true","1488.005000166595","./Stimuli/ImagesPractice/SN220.jpg","76","","","","test","true","M + N","76","","SN","SN220.jpg","remember","old","7","1","start","right","","","",""
"html-keyboard-response","24","230558","0.0-2.0-2.0-0.7","3gpfppyz5w6lkwk","practice_no_cue","5f56056a645a6e9dba848fa2","5f60e3c0a3b16e07647b2ff9","5f6380873c299a069075","false","null","<span style=""color: black; font-size: 48px"">N + M</span>","null","","","","resp_prompt","","","","","","","","","","","","","","","",""
"categorize-image","25","232289","0.0-2.0-2.0-1.7","3gpfppyz5w6lkwk","practice_no_cue","5f56056a645a6e9dba848fa2","5f60e3c0a3b16e07647b2ff9","5f6380873c299a069075","true","1212.9150000400841","./Stimuli/ImagesPractice/SN221.jpg","76","","","","test","false","N + M","83","","SN","SN221.jpg","forget","old","8","1","start","right","","","",""
"html-keyboard-response","26","232996","0.0-2.0-2.0-0.8","3gpfppyz5w6lkwk","practice_no_cue","5f56056a645a6e9dba848fa2","5f60e3c0a3b16e07647b2ff9","5f6380873c299a069075","false","null","<span style=""color: black; font-size: 48px"">N + M</span>","null","","","","resp_prompt","","","","","","","","","","","","","","","",""
"categorize-image","27","234639","0.0-2.0-2.0-1.8","3gpfppyz5w6lkwk","practice_no_cue","5f56056a645a6e9dba848fa2","5f60e3c0a3b16e07647b2ff9","5f6380873c299a069075","true","1134.0649998746812","./Stimuli/ImagesPractice/LM230.jpg","76","","","","test","true","N + M","76","","LM","LM230.jpg","forget","old","9","1","start","right","","","",""
"html-keyboard-response","28","235357","0.0-2.0-2.0-0.9","3gpfppyz5w6lkwk","practice_no_cue","5f56056a645a6e9dba848fa2","5f60e3c0a3b16e07647b2ff9","5f6380873c299a069075","false","null","<span style=""color: black; font-size: 48px"">M + N</span>","null","","","","resp_prompt","","","","","","","","","","","","","","","",""
"categorize-image","29","237556","0.0-2.0-2.0-1.9","3gpfppyz5w6lkwk","practice_no_cue","5f56056a645a6e9dba848fa2","5f60e3c0a3b16e07647b2ff9","5f6380873c299a069075","true","1680.0649999640882","./Stimuli/ImagesPractice/LM239.jpg","83","","","","test","true","M + N","83","","LM","LM239.jpg","remember","old","10","1","start","left","","","",""
"html-keyboard-response","30","238274","0.0-2.0-2.0-0.10","3gpfppyz5w6lkwk","practice_no_cue","5f56056a645a6e9dba848fa2","5f60e3c0a3b16e07647b2ff9","5f6380873c299a069075","false","null","<span style=""color: black; font-size: 48px"">N + M</span>","null","","","","resp_prompt","","","","","","","","","","","","","","","",""
"categorize-image","31","240621","0.0-2.0-2.0-1.10","3gpfppyz5w6lkwk","practice_no_cue","5f56056a645a6e9dba848fa2","5f60e3c0a3b16e07647b2ff9","5f6380873c299a069075","true","1842.2300000675023","./Stimuli/ImagesPractice/SN75.jpg","83","","","","test","true","N + M","83","","SN","SN75.jpg","remember","old","11","1","start","left","","","",""
"html-keyboard-response","32","241324","0.0-2.0-2.0-0.11","3gpfppyz5w6lkwk","practice_no_cue","5f56056a645a6e9dba848fa2","5f60e3c0a3b16e07647b2ff9","5f6380873c299a069075","false","null","<span style=""color: black; font-size: 48px"">M + N</span>","null","","","","resp_prompt","","","","","","","","","","","","","","","",""
"categorize-image","33","243302","0.0-2.0-2.0-1.11","3gpfppyz5w6lkwk","practice_no_cue","5f56056a645a6e9dba848fa2","5f60e3c0a3b16e07647b2ff9","5f6380873c299a069075","true","1447.9499999433756","./Stimuli/ImagesPractice/SN76.jpg","76","","","","test","true","M + N","76","","SN","SN76.jpg","forget","old","12","1","start","right","","","",""
"html-keyboard-response","34","244007","0.0-2.0-2.0-0.12","3gpfppyz5w6lkwk","practice_no_cue","5f56056a645a6e9dba848fa2","5f60e3c0a3b16e07647b2ff9","5f6380873c299a069075","false","null","<span style=""color: black; font-size: 48px"">N + M</span>","null","","","","resp_prompt","","","","","","","","","","","","","","","",""
"categorize-image","35","246153","0.0-2.0-2.0-1.12","3gpfppyz5w6lkwk","practice_no_cue","5f56056a645a6e9dba848fa2","5f60e3c0a3b16e07647b2ff9","5f6380873c299a069075","true","1627.2400000598282","./Stimuli/ImagesPractice/LN2.jpg","83","","","","test","true","N + M","83","","LN","LN2.jpg","remember","old","13","1","start","left","","","",""
"html-keyboard-response","36","246857","0.0-2.0-2.0-0.13","3gpfppyz5w6lkwk","practice_no_cue","5f56056a645a6e9dba848fa2","5f60e3c0a3b16e07647b2ff9","5f6380873c299a069075","false","null","<span style=""color: black; font-size: 48px"">N + M</span>","null","","","","resp_prompt","","","","","","","","","","","","","","","",""
"categorize-image","37","249172","0.0-2.0-2.0-1.13","3gpfppyz5w6lkwk","practice_no_cue","5f56056a645a6e9dba848fa2","5f60e3c0a3b16e07647b2ff9","5f6380873c299a069075","true","1807.4700001161546","./Stimuli/ImagesPractice/LN15.jpg","83","","","","test","true","N + M","83","","LN","LN15.jpg","remember","old","14","1","start","left","","","",""
"html-keyboard-response","38","249888","0.0-2.0-2.0-0.14","3gpfppyz5w6lkwk","practice_no_cue","5f56056a645a6e9dba848fa2","5f60e3c0a3b16e07647b2ff9","5f6380873c299a069075","false","null","<span style=""color: black; font-size: 48px"">M + N</span>","null","","","","resp_prompt","","","","","","","","","","","","","","","",""
"categorize-image","39","251619","0.0-2.0-2.0-1.14","3gpfppyz5w6lkwk","practice_no_cue","5f56056a645a6e9dba848fa2","5f60e3c0a3b16e07647b2ff9","5f6380873c299a069075","true","1217.865000013262","./Stimuli/ImagesPractice/SM35.jpg","83","","","","test","true","M + N","83","","SM","SM35.jpg","forget","old","15","1","start","left","","","",""
"html-keyboard-response","40","252323","0.0-2.0-2.0-0.15","3gpfppyz5w6lkwk","practice_no_cue","5f56056a645a6e9dba848fa2","5f60e3c0a3b16e07647b2ff9","5f6380873c299a069075","false","null","<span style=""color: black; font-size: 48px"">M + N</span>","null","","","","resp_prompt","","","","","","","","","","","","","","","",""
"categorize-image","41","253617","0.0-2.0-2.0-1.15","3gpfppyz5w6lkwk","practice_no_cue","5f56056a645a6e9dba848fa2","5f60e3c0a3b16e07647b2ff9","5f6380873c299a069075","true","774.5650000870228","./Stimuli/ImagesPractice/LM55.jpg","83","","","","test","true","M + N","83","","LM","LM55.jpg","remember","old","16","1","start","left","","","",""
"html-keyboard-response","42","258238","0.0-2.0-3.0","3gpfppyz5w6lkwk","break","5f56056a645a6e9dba848fa2","5f60e3c0a3b16e07647b2ff9","5f6380873c299a069075","false","4615.274999989197","<p style='font-size: 32px;'>Break</><br><br><br><br><br><p style='font-size: 24px;'>In the last block, you committed 4 errors and did not respond in time on 1 trials.
</p><p style='font-size: 24px;'>Try to respond as fast and accurately as possible in the next block as well! </p><p style='font-size: 24px;'>Press SPACE to continue.</p>","32","","","","","","","","","","","","","","","","","","","",""
"html-keyboard-response","43","262720","0.0-2.0-4.0","3gpfppyz5w6lkwk","instructions","5f56056a645a6e9dba848fa2","5f60e3c0a3b16e07647b2ff9","5f6380873c299a069075","false","4478.835000190884","<div align=left> Great!<br><br>Are you ready to continue?<br><br>If you want to reread the instructions and redo the practice trials, <br>please press „Z“. <br><br>Press SPACE to CONTINUE with the experiment when you are ready. </div>","32","","","","","","","","","","","","","","","","","","","",""
"html-keyboard-response","44","267987","0.0-3.0-0.0","3gpfppyz5w6lkwk","instructions","5f56056a645a6e9dba848fa2","5f60e3c0a3b16e07647b2ff9","5f6380873c299a069075","false","5262.955000158399","<div align=left>Great!<br> <strong>Attention</strong>! You will now receive a second, additional task! <br><br>To this point it was you <strong>first task</strong> to correctly <strong>classify objects</strong>. <br><br>As mentioned in the beginning, we aim to examine how well humans can remember previously learned information.<br>We would like to find out whether our memory improves if we only remember information that is relevant to us. <br><br>Therefore, your <strong>second task</strong> will be to <strong>remember</strong> the pictures you are to categorize. <br> After the learning phase, there will be a memory test phase, in which you will be asked to indicate whether you have seen a picture before or not. <br>Some, but not all pictures shown in the learning phase will appear in the memory test phase.<br>After classifying a picture, you will be told whether you should remember it for the memory test phase or not. <br>Thus, some pictures can be forgotten, whereas others have to be remembered. <br><br>Note: From now on, feedback will only be displayed if you responded incorrectly or not in time.<br><br>Press SPACE to continue.</div>","32","","","","","","","","","","","","","","","","","","","",""
"html-keyboard-response","45","282805","0.0-3.0-1.0","3gpfppyz5w6lkwk","instructions","5f56056a645a6e9dba848fa2","5f60e3c0a3b16e07647b2ff9","5f6380873c299a069075","false","14815.450000111014","<div align=left>In the following part, you will thus have to remember only some pictures. <br>Immediately after seeing and classifying the picture, a symbol will be displayed, indicating whether you should remember or forget the previous picture. <br><br>A <span style='color: dodgerblue; font-size: 28px'>O</span> indicates REMEMBER. That means, you have to remember this picture, because it will be tested later. <br><br>A <span style='color: darkorange; font-size:28px'>Ø</span> indicates FORGET. You do not have to remember this picture. <br><br> As you will have to remember a lot of pictures, it will be hard for you to remember all of them. <br>It will put you at an advantage if you instantly forget the pictures you are not asked to remember. <br> This will make it easier for you to remember the pictures that will be tested afterwards. <br><br>Press SPACE to continue.</div>","32","","","","","","","","","","","","","","","","","","","",""
"html-keyboard-response","46","290143","0.0-3.0-2.0","3gpfppyz5w6lkwk","instructions","5f56056a645a6e9dba848fa2","5f60e3c0a3b16e07647b2ff9","5f6380873c299a069075","false","7334.859999828041","<div align=left> Now you have the chance to practice both tasks together.<br><br>Remember: <br> <br><li>Please place your index fingers on the <strong>'S'</strong> and <strong>'L'</strong> keys <br>to respond as fast and accurately as possible.</li><li>Every picture can be classified as either mechanical or non-mechanical.</li><li>If you do not respond in time or commit an error, you will receive a corresponding feedback. <br>Please try to respond as <strong> fast </strong> and as <strong> accurately as possible </strong>.</li><li> Please remember only the to-be-remembered <span style='color: dodgerblue; font-size: 28px'>O</span> pictures. <br></li><li> Please minimize distractions and stay focused. </li><br><br>Press SPACE to START</div>","32","","","","","","","","","","","","","","","","","","","",""
"html-keyboard-response","47","290851","0.0-3.0-3.0-0.0","3gpfppyz5w6lkwk","practice_cue","5f56056a645a6e9dba848fa2","5f60e3c0a3b16e07647b2ff9","5f6380873c299a069075","false","null","<span style=""color: black; font-size: 48px"">N + M</span>","null","","","","resp_prompt","","","","","","","","","","","","","","","",""
"categorize-image","48","291845","0.0-3.0-3.0-1.0","3gpfppyz5w6lkwk","practice_cue","5f56056a645a6e9dba848fa2","5f60e3c0a3b16e07647b2ff9","5f6380873c299a069075","true","974.0100000053644","./Stimuli/ImagesPractice/LN2.jpg","83","","","","test","true","N + M","83","","LN","LN2.jpg","remember","old","17","2","practice_forget","left","","","",""
"html-keyboard-response","49","293863","0.0-3.0-3.0-3.0","3gpfppyz5w6lkwk","practice_cue","5f56056a645a6e9dba848fa2","5f60e3c0a3b16e07647b2ff9","5f6380873c299a069075","false","null","<div style=""align-items: center; display: flex; color: dodgerblue; font-size: 90px""><b>o</b></div>","null","","","","forget_cue","","","","","","","","","","","","","","","",""
"html-keyboard-response","50","294581","0.0-3.0-3.0-0.1","3gpfppyz5w6lkwk","practice_cue","5f56056a645a6e9dba848fa2","5f60e3c0a3b16e07647b2ff9","5f6380873c299a069075","false","null","<span style=""color: black; font-size: 48px"">N + M</span>","null","","","","resp_prompt","","","","","","","","","","","","","","","",""
"categorize-image","51","295400","0.0-3.0-3.0-1.1","3gpfppyz5w6lkwk","practice_cue","5f56056a645a6e9dba848fa2","5f60e3c0a3b16e07647b2ff9","5f6380873c299a069075","true","811.564999865368","./Stimuli/ImagesPractice/LN17.jpg","83","","","","test","true","N + M","83","","LN","LN17.jpg","forget","old","18","2","practice_forget","left","","","",""
"html-keyboard-response","52","297413","0.0-3.0-3.0-3.1","3gpfppyz5w6lkwk","practice_cue","5f56056a645a6e9dba848fa2","5f60e3c0a3b16e07647b2ff9","5f6380873c299a069075","false","null","<div style=""align-items: center; display: flex; color: darkorange; font-size: 90px""><b>ø</b></div>","null","","","","forget_cue","","","","","","","","","","","","","","","",""
"html-keyboard-response","53","298118","0.0-3.0-3.0-0.2","3gpfppyz5w6lkwk","practice_cue","5f56056a645a6e9dba848fa2","5f60e3c0a3b16e07647b2ff9","5f6380873c299a069075","false","null","<span style=""color: black; font-size: 48px"">M + N</span>","null","","","","resp_prompt","","","","","","","","","","","","","","","",""
"categorize-image","54","299354","0.0-3.0-3.0-1.2","3gpfppyz5w6lkwk","practice_cue","5f56056a645a6e9dba848fa2","5f60e3c0a3b16e07647b2ff9","5f6380873c299a069075","true","1227.8700000606477","./Stimuli/ImagesPractice/LM239.jpg","76","","","","test","false","M + N","83","","LM","LM239.jpg","remember","old","19","2","practice_forget","right","","","",""
"html-keyboard-response","55","299862","0.0-3.0-3.0-2.2-0.2","3gpfppyz5w6lkwk","practice_cue","5f56056a645a6e9dba848fa2","5f60e3c0a3b16e07647b2ff9","5f6380873c299a069075","false","null","<span style=""color: red; font-size: 48px"">Error!</span>","null","","","","feedback","","","","","","","","","","","","","","","",""
"html-keyboard-response","56","301877","0.0-3.0-3.0-3.2","3gpfppyz5w6lkwk","practice_cue","5f56056a645a6e9dba848fa2","5f60e3c0a3b16e07647b2ff9","5f6380873c299a069075","false","null","<div style=""align-items: center; display: flex; color: dodgerblue; font-size: 90px""><b>o</b></div>","null","","","","forget_cue","","","","","","","","","","","","","","","",""
"html-keyboard-response","57","302580","0.0-3.0-3.0-0.3","3gpfppyz5w6lkwk","practice_cue","5f56056a645a6e9dba848fa2","5f60e3c0a3b16e07647b2ff9","5f6380873c299a069075","false","null","<span style=""color: black; font-size: 48px"">N + M</span>","null","","","","resp_prompt","","","","","","","","","","","","","","","",""
"categorize-image","58","303460","0.0-3.0-3.0-1.3","3gpfppyz5w6lkwk","practice_cue","5f56056a645a6e9dba848fa2","5f60e3c0a3b16e07647b2ff9","5f6380873c299a069075","true","867.850000038743","./Stimuli/ImagesPractice/LM230.jpg","76","","","","test","true","N + M","76","","LM","LM230.jpg","forget","old","20","2","practice_forget","right","","","",""
"html-keyboard-response","59","305478","0.0-3.0-3.0-3.3","3gpfppyz5w6lkwk","practice_cue","5f56056a645a6e9dba848fa2","5f60e3c0a3b16e07647b2ff9","5f6380873c299a069075","false","null","<div style=""align-items: center; display: flex; color: darkorange; font-size: 90px""><b>ø</b></div>","null","","","","forget_cue","","","","","","","","","","","","","","","",""
"html-keyboard-response","60","306197","0.0-3.0-3.0-0.4","3gpfppyz5w6lkwk","practice_cue","5f56056a645a6e9dba848fa2","5f60e3c0a3b16e07647b2ff9","5f6380873c299a069075","false","null","<span style=""color: black; font-size: 48px"">M + N</span>","null","","","","resp_prompt","","","","","","","","","","","","","","","",""
"categorize-image","61","307093","0.0-3.0-3.0-1.4","3gpfppyz5w6lkwk","practice_cue","5f56056a645a6e9dba848fa2","5f60e3c0a3b16e07647b2ff9","5f6380873c299a069075","true","889.119999948889","./Stimuli/ImagesPractice/LN4.jpg","83","","","","test","false","M + N","76","","LN","LN4.jpg","forget","old","21","2","practice_forget","left","","","",""
"html-keyboard-response","62","307611","0.0-3.0-3.0-2.4-0.4","3gpfppyz5w6lkwk","practice_cue","5f56056a645a6e9dba848fa2","5f60e3c0a3b16e07647b2ff9","5f6380873c299a069075","false","null","<span style=""color: red; font-size: 48px"">Error!</span>","null","","","","feedback","","","","","","","","","","","","","","","",""
"html-keyboard-response","63","309628","0.0-3.0-3.0-3.4","3gpfppyz5w6lkwk","practice_cue","5f56056a645a6e9dba848fa2","5f60e3c0a3b16e07647b2ff9","5f6380873c299a069075","false","null","<div style=""align-items: center; display: flex; color: darkorange; font-size: 90px""><b>ø</b></div>","null","","","","forget_cue","","","","","","","","","","","","","","","",""
"html-keyboard-response","64","310345","0.0-3.0-3.0-0.5","3gpfppyz5w6lkwk","practice_cue","5f56056a645a6e9dba848fa2","5f60e3c0a3b16e07647b2ff9","5f6380873c299a069075","false","null","<span style=""color: black; font-size: 48px"">N + M</span>","null","","","","resp_prompt","","","","","","","","","","","","","","","",""
"categorize-image","65","311278","0.0-3.0-3.0-1.5","3gpfppyz5w6lkwk","practice_cue","5f56056a645a6e9dba848fa2","5f60e3c0a3b16e07647b2ff9","5f6380873c299a069075","true","924.3199999909848","./Stimuli/ImagesPractice/SN75.jpg","83","","","","test","true","N + M","83","","SN","SN75.jpg","remember","old","22","2","practice_forget","left","","","",""
"html-keyboard-response","66","313294","0.0-3.0-3.0-3.5","3gpfppyz5w6lkwk","practice_cue","5f56056a645a6e9dba848fa2","5f60e3c0a3b16e07647b2ff9","5f6380873c299a069075","false","null","<div style=""align-items: center; display: flex; color: dodgerblue; font-size: 90px""><b>o</b></div>","null","","","","forget_cue","","","","","","","","","","","","","","","",""
"html-keyboard-response","67","314012","0.0-3.0-3.0-0.6","3gpfppyz5w6lkwk","practice_cue","5f56056a645a6e9dba848fa2","5f60e3c0a3b16e07647b2ff9","5f6380873c299a069075","false","null","<span style=""color: black; font-size: 48px"">M + N</span>","null","","","","resp_prompt","","","","","","","","","","","","","","","",""
"categorize-image","68","315032","0.0-3.0-3.0-1.6","3gpfppyz5w6lkwk","practice_cue","5f56056a645a6e9dba848fa2","5f60e3c0a3b16e07647b2ff9","5f6380873c299a069075","true","1013.3450001012534","./Stimuli/ImagesPractice/SN220.jpg","76","","","","test","true","M + N","76","","SN","SN220.jpg","remember","old","23","2","practice_forget","right","","","",""
"html-keyboard-response","69","317043","0.0-3.0-3.0-3.6","3gpfppyz5w6lkwk","practice_cue","5f56056a645a6e9dba848fa2","5f60e3c0a3b16e07647b2ff9","5f6380873c299a069075","false","null","<div style=""align-items: center; display: flex; color: dodgerblue; font-size: 90px""><b>o</b></div>","null","","","","forget_cue","","","","","","","","","","","","","","","",""
"html-keyboard-response","70","317761","0.0-3.0-3.0-0.7","3gpfppyz5w6lkwk","practice_cue","5f56056a645a6e9dba848fa2","5f60e3c0a3b16e07647b2ff9","5f6380873c299a069075","false","null","<span style=""color: black; font-size: 48px"">M + N</span>","null","","","","resp_prompt","","","","","","","","","","","","","","","",""
"categorize-image","71","318816","0.0-3.0-3.0-1.7","3gpfppyz5w6lkwk","practice_cue","5f56056a645a6e9dba848fa2","5f60e3c0a3b16e07647b2ff9","5f6380873c299a069075","true","1044.929999858141","./Stimuli/ImagesPractice/SN76.jpg","76","","","","test","true","M + N","76","","SN","SN76.jpg","forget","old","24","2","practice_forget","right","","","",""
"html-keyboard-response","72","320826","0.0-3.0-3.0-3.7","3gpfppyz5w6lkwk","practice_cue","5f56056a645a6e9dba848fa2","5f60e3c0a3b16e07647b2ff9","5f6380873c299a069075","false","null","<div style=""align-items: center; display: flex; color: darkorange; font-size: 90px""><b>ø</b></div>","null","","","","forget_cue","","","","","","","","","","","","","","","",""
"html-keyboard-response","73","321528","0.0-3.0-3.0-0.8","3gpfppyz5w6lkwk","practice_cue","5f56056a645a6e9dba848fa2","5f60e3c0a3b16e07647b2ff9","5f6380873c299a069075","false","null","<span style=""color: black; font-size: 48px"">M + N</span>","null","","","","resp_prompt","","","","","","","","","","","","","","","",""
"categorize-image","74","322405","0.0-3.0-3.0-1.8","3gpfppyz5w6lkwk","practice_cue","5f56056a645a6e9dba848fa2","5f60e3c0a3b16e07647b2ff9","5f6380873c299a069075","true","864.4650001078844","./Stimuli/ImagesPractice/LM55.jpg","83","","","","test","true","M + N","83","","LM","LM55.jpg","remember","old","25","2","practice_forget","left","","","",""
"html-keyboard-response","75","324409","0.0-3.0-3.0-3.8","3gpfppyz5w6lkwk","practice_cue","5f56056a645a6e9dba848fa2","5f60e3c0a3b16e07647b2ff9","5f6380873c299a069075","false","null","<div style=""align-items: center; display: flex; color: dodgerblue; font-size: 90px""><b>o</b></div>","null","","","","forget_cue","","","","","","","","","","","","","","","",""
"html-keyboard-response","76","325130","0.0-3.0-3.0-0.9","3gpfppyz5w6lkwk","practice_cue","5f56056a645a6e9dba848fa2","5f60e3c0a3b16e07647b2ff9","5f6380873c299a069075","false","null","<span style=""color: black; font-size: 48px"">M + N</span>","null","","","","resp_prompt","","","","","","","","","","","","","","","",""
"categorize-image","77","326648","0.0-3.0-3.0-1.9","3gpfppyz5w6lkwk","practice_cue","5f56056a645a6e9dba848fa2","5f60e3c0a3b16e07647b2ff9","5f6380873c299a069075","true","1509.6749998629093","./Stimuli/ImagesPractice/SN222.jpg","76","","","","test","true","M + N","76","","SN","SN222.jpg","forget","old","26","2","practice_forget","right","","","",""
"html-keyboard-response","78","328675","0.0-3.0-3.0-3.9","3gpfppyz5w6lkwk","practice_cue","5f56056a645a6e9dba848fa2","5f60e3c0a3b16e07647b2ff9","5f6380873c299a069075","false","null","<div style=""align-items: center; display: flex; color: darkorange; font-size: 90px""><b>ø</b></div>","null","","","","forget_cue","","","","","","","","","","","","","","","",""
"html-keyboard-response","79","329393","0.0-3.0-3.0-0.10","3gpfppyz5w6lkwk","practice_cue","5f56056a645a6e9dba848fa2","5f60e3c0a3b16e07647b2ff9","5f6380873c299a069075","false","null","<span style=""color: black; font-size: 48px"">N + M</span>","null","","","","resp_prompt","","","","","","","","","","","","","","","",""
"categorize-image","80","330289","0.0-3.0-3.0-1.10","3gpfppyz5w6lkwk","practice_cue","5f56056a645a6e9dba848fa2","5f60e3c0a3b16e07647b2ff9","5f6380873c299a069075","true","886.2649998627603","./Stimuli/ImagesPractice/SN221.jpg","83","","","","test","true","N + M","83","","SN","SN221.jpg","forget","old","27","2","practice_forget","left","","","",""
"html-keyboard-response","81","332307","0.0-3.0-3.0-3.10","3gpfppyz5w6lkwk","practice_cue","5f56056a645a6e9dba848fa2","5f60e3c0a3b16e07647b2ff9","5f6380873c299a069075","false","null","<div style=""align-items: center; display: flex; color: darkorange; font-size: 90px""><b>ø</b></div>","null","","","","forget_cue","","","","","","","","","","","","","","","",""
"html-keyboard-response","82","333025","0.0-3.0-3.0-0.11","3gpfppyz5w6lkwk","practice_cue","5f56056a645a6e9dba848fa2","5f60e3c0a3b16e07647b2ff9","5f6380873c299a069075","false","null","<span style=""color: black; font-size: 48px"">M + N</span>","null","","","","resp_prompt","","","","","","","","","","","","","","","",""
"categorize-image","83","333859","0.0-3.0-3.0-1.11","3gpfppyz5w6lkwk","practice_cue","5f56056a645a6e9dba848fa2","5f60e3c0a3b16e07647b2ff9","5f6380873c299a069075","true","820.5049999523908","./Stimuli/ImagesPractice/SM35.jpg","83","","","","test","true","M + N","83","","SM","SM35.jpg","forget","old","28","2","practice_forget","left","","","",""
"html-keyboard-response","84","335875","0.0-3.0-3.0-3.11","3gpfppyz5w6lkwk","practice_cue","5f56056a645a6e9dba848fa2","5f60e3c0a3b16e07647b2ff9","5f6380873c299a069075","false","null","<div style=""align-items: center; display: flex; color: darkorange; font-size: 90px""><b>ø</b></div>","null","","","","forget_cue","","","","","","","","","","","","","","","",""
"html-keyboard-response","85","336591","0.0-3.0-3.0-0.12","3gpfppyz5w6lkwk","practice_cue","5f56056a645a6e9dba848fa2","5f60e3c0a3b16e07647b2ff9","5f6380873c299a069075","false","null","<span style=""color: black; font-size: 48px"">N + M</span>","null","","","","resp_prompt","","","","","","","","","","","","","","","",""
"categorize-image","86","337652","0.0-3.0-3.0-1.12","3gpfppyz5w6lkwk","practice_cue","5f56056a645a6e9dba848fa2","5f60e3c0a3b16e07647b2ff9","5f6380873c299a069075","true","1051.1449999175966","./Stimuli/ImagesPractice/LN15.jpg","83","","","","test","true","N + M","83","","LN","LN15.jpg","remember","old","29","2","practice_forget","left","","","",""
"html-keyboard-response","87","339662","0.0-3.0-3.0-3.12","3gpfppyz5w6lkwk","practice_cue","5f56056a645a6e9dba848fa2","5f60e3c0a3b16e07647b2ff9","5f6380873c299a069075","false","null","<div style=""align-items: center; display: flex; color: dodgerblue; font-size: 90px""><b>o</b></div>","null","","","","forget_cue","","","","","","","","","","","","","","","",""
"html-keyboard-response","88","340375","0.0-3.0-3.0-0.13","3gpfppyz5w6lkwk","practice_cue","5f56056a645a6e9dba848fa2","5f60e3c0a3b16e07647b2ff9","5f6380873c299a069075","false","null","<span style=""color: black; font-size: 48px"">M + N</span>","null","","","","resp_prompt","","","","","","","","","","","","","","","",""
"categorize-image","89","341518","0.0-3.0-3.0-1.13","3gpfppyz5w6lkwk","practice_cue","5f56056a645a6e9dba848fa2","5f60e3c0a3b16e07647b2ff9","5f6380873c299a069075","true","1135.4749999009073","./Stimuli/ImagesPractice/LN109.jpg","76","","","","test","true","M + N","76","","LN","LN109.jpg","remember","old","30","2","practice_forget","right","","","",""
"html-keyboard-response","90","343537","0.0-3.0-3.0-3.13","3gpfppyz5w6lkwk","practice_cue","5f56056a645a6e9dba848fa2","5f60e3c0a3b16e07647b2ff9","5f6380873c299a069075","false","null","<div style=""align-items: center; display: flex; color: dodgerblue; font-size: 90px""><b>o</b></div>","null","","","","forget_cue","","","","","","","","","","","","","","","",""
"html-keyboard-response","91","344240","0.0-3.0-3.0-0.14","3gpfppyz5w6lkwk","practice_cue","5f56056a645a6e9dba848fa2","5f60e3c0a3b16e07647b2ff9","5f6380873c299a069075","false","null","<span style=""color: black; font-size: 48px"">N + M</span>","null","","","","resp_prompt","","","","","","","","","","","","","","","",""
"categorize-image","92","345338","0.0-3.0-3.0-1.14","3gpfppyz5w6lkwk","practice_cue","5f56056a645a6e9dba848fa2","5f60e3c0a3b16e07647b2ff9","5f6380873c299a069075","true","1091.2699999753386","./Stimuli/ImagesPractice/LM147.jpg","76","","","","test","true","N + M","76","","LM","LM147.jpg","forget","old","31","2","practice_forget","right","","","",""
"html-keyboard-response","93","347353","0.0-3.0-3.0-3.14","3gpfppyz5w6lkwk","practice_cue","5f56056a645a6e9dba848fa2","5f60e3c0a3b16e07647b2ff9","5f6380873c299a069075","false","null","<div style=""align-items: center; display: flex; color: darkorange; font-size: 90px""><b>ø</b></div>","null","","","","forget_cue","","","","","","","","","","","","","","","",""
"html-keyboard-response","94","348072","0.0-3.0-3.0-0.15","3gpfppyz5w6lkwk","practice_cue","5f56056a645a6e9dba848fa2","5f60e3c0a3b16e07647b2ff9","5f6380873c299a069075","false","null","<span style=""color: black; font-size: 48px"">N + M</span>","null","","","","resp_prompt","","","","","","","","","","","","","","","",""
"categorize-image","95","349265","0.0-3.0-3.0-1.15","3gpfppyz5w6lkwk","practice_cue","5f56056a645a6e9dba848fa2","5f60e3c0a3b16e07647b2ff9","5f6380873c299a069075","true","1184.1800000984222","./Stimuli/ImagesPractice/LM224.jpg","76","","","","test","true","N + M","76","","LM","LM224.jpg","remember","old","32","2","practice_forget","right","","","",""
"html-keyboard-response","96","351287","0.0-3.0-3.0-3.15","3gpfppyz5w6lkwk","practice_cue","5f56056a645a6e9dba848fa2","5f60e3c0a3b16e07647b2ff9","5f6380873c299a069075","false","null","<div style=""align-items: center; display: flex; color: dodgerblue; font-size: 90px""><b>o</b></div>","null","","","","forget_cue","","","","","","","","","","","","","","","",""
"html-keyboard-response","97","355019","0.0-3.0-4.0","3gpfppyz5w6lkwk","break","5f56056a645a6e9dba848fa2","5f60e3c0a3b16e07647b2ff9","5f6380873c299a069075","false","3727.6950001250952","<p style='font-size: 32px;'>Break</><br><br><br><br><br><p style='font-size: 24px;'>In the last block, you committed 2 errors and did not respond in time on 0 trials.
</p><p style='font-size: 24px;'>Try to respond as fast and accurately as possible in the next block as well! </p><p style='font-size: 24px;'>Press SPACE to continue.</p>","32","","","","","","","","","","","","","","","","","","","",""
"html-keyboard-response","98","377836","0.0-3.0-5.0","3gpfppyz5w6lkwk","instructions","5f56056a645a6e9dba848fa2","5f60e3c0a3b16e07647b2ff9","5f6380873c299a069075","false","22788.61500020139","<div align=left> Now, to practice, we kindly ask you to remember as many of the to-be-remembered pictures<br>of the previous learning phase as possible.<br><br>The pictures you were instructed to remember were the pictures followed by a <span style='color: dodgerblue; font-size: 28px'>O</span>.<br><br>In this memory test phase, you will also see some new pictures.<br>It is your task to remember whether you were presented with this specific picture in this study so far or not.<br>If you recognize an object (you have already seen it in this study), it is an OLD object. <br>If you do not recognize an object (you have NOT seen it in this study), it is a NEW object. <br><strong> Attention</strong>: As already mentioned, <span style='color: darkorange; font-size:28px'>Ø</span>-pictures will <strong>never</strong> appear in this memory test (neither as new objects). <br><br>Press SPACE to continue. </div>","32","","","","","","","","","","","","","","","","","","","",""
"html-keyboard-response","99","413353","0.0-3.0-6.0","3gpfppyz5w6lkwk","instructions","5f56056a645a6e9dba848fa2","5f60e3c0a3b16e07647b2ff9","5f6380873c299a069075","false","35512.37999997102","<div align=left> M and N no longer will appear on the left/right of the fixation cross. <br>Instead there will be a note at the bottom of the left or right side  <br>indicating which key you should press for an old or new object:  <br> <br>Press the <strong>right</strong> key to classify an object as <strong>old</strong> and press the <strong>left</strong>, to classify an object as <strong>new</strong>.<br>Please classify the objects as new/old by again placing your index finger on the 'S' and 'L' keys <br>and press them accordingly.<br><br><strong>Old:</strong> This object has been presented before. <br><strong>New:</strong> This object has <strong>not</strong> been presented.<br><br>Now please put your right and left index fingers on the 'S' and 'L' keys of your keyboard. <br>Please respond as fast and as accurately as possible!<br><br>Press SPACE to continue. </div>","32","","","","","","","","","","","","","","","","","","","",""
"categorize-image","100","415709","0.0-3.0-7.0-0.0","3gpfppyz5w6lkwk","practice_recog","5f56056a645a6e9dba848fa2","5f60e3c0a3b16e07647b2ff9","5f6380873c299a069075","true","1837.9200000781566","./Stimuli/ImagesPractice/LN72.jpg","76","","","","test","true","","76","","LN","LN72.jpg","","new","33","3","practice_recog","right","","","",""
"categorize-image","101","417242","0.0-3.0-7.0-0.1","3gpfppyz5w6lkwk","practice_recog","5f56056a645a6e9dba848fa2","5f60e3c0a3b16e07647b2ff9","5f6380873c299a069075","true","1010.4649998247623","./Stimuli/ImagesPractice/LM224.jpg","83","","","","test","true","","83","","LM","LM224.jpg","","old","34","3","practice_recog","left","","","",""
"categorize-image","102","418692","0.0-3.0-7.0-0.2","3gpfppyz5w6lkwk","practice_recog","5f56056a645a6e9dba848fa2","5f60e3c0a3b16e07647b2ff9","5f6380873c299a069075","true","928.4099999349564","./Stimuli/ImagesPractice/LN109.jpg","83","","","","test","true","","83","","LN","LN109.jpg","","old","35","3","practice_recog","left","","","",""
"categorize-image","103","420226","0.0-3.0-7.0-0.3","3gpfppyz5w6lkwk","practice_recog","5f56056a645a6e9dba848fa2","5f60e3c0a3b16e07647b2ff9","5f6380873c299a069075","true","1029.0700001642108","./Stimuli/ImagesPractice/SN220.jpg","83","","","","test","true","","83","","SN","SN220.jpg","","old","36","3","practice_recog","left","","","",""
"categorize-image","104","421477","0.0-3.0-7.0-0.4","3gpfppyz5w6lkwk","practice_recog","5f56056a645a6e9dba848fa2","5f60e3c0a3b16e07647b2ff9","5f6380873c299a069075","true","743.3449998497963","./Stimuli/ImagesPractice/LM55.jpg","83","","","","test","true","","83","","LM","LM55.jpg","","old","37","3","practice_recog","left","","","",""
"categorize-image","105","422743","0.0-3.0-7.0-0.5","3gpfppyz5w6lkwk","practice_recog","5f56056a645a6e9dba848fa2","5f60e3c0a3b16e07647b2ff9","5f6380873c299a069075","true","757.0600002072752","./Stimuli/ImagesPractice/LN2.jpg","83","","","","test","true","","83","","LN","LN2.jpg","","old","38","3","practice_recog","left","","","",""
"categorize-image","106","423891","0.0-3.0-7.0-0.6","3gpfppyz5w6lkwk","practice_recog","5f56056a645a6e9dba848fa2","5f60e3c0a3b16e07647b2ff9","5f6380873c299a069075","true","635.8600000385195","./Stimuli/ImagesPractice/SM62.jpg","76","","","","test","true","","76","","SM","SM62.jpg","","new","39","3","practice_recog","right","","","",""
"categorize-image","107","425108","0.0-3.0-7.0-0.7","3gpfppyz5w6lkwk","practice_recog","5f56056a645a6e9dba848fa2","5f60e3c0a3b16e07647b2ff9","5f6380873c299a069075","true","696.6349999420345","./Stimuli/ImagesPractice/SN75.jpg","83","","","","test","true","","83","","SN","SN75.jpg","","old","40","3","practice_recog","left","","","",""
"categorize-image","108","426360","0.0-3.0-7.0-0.8","3gpfppyz5w6lkwk","practice_recog","5f56056a645a6e9dba848fa2","5f60e3c0a3b16e07647b2ff9","5f6380873c299a069075","true","725.9850001428276","./Stimuli/ImagesPractice/SM61.jpg","76","","","","test","true","","76","","SM","SM61.jpg","","new","41","3","practice_recog","right","","","",""
"categorize-image","109","427973","0.0-3.0-7.0-0.9","3gpfppyz5w6lkwk","practice_recog","5f56056a645a6e9dba848fa2","5f60e3c0a3b16e07647b2ff9","5f6380873c299a069075","true","1094.0950000658631","./Stimuli/ImagesPractice/SN205.jpg","76","","","","test","true","","76","","SN","SN205.jpg","","new","42","3","practice_recog","right","","","",""
"categorize-image","110","429241","0.0-3.0-7.0-0.10","3gpfppyz5w6lkwk","practice_recog","5f56056a645a6e9dba848fa2","5f60e3c0a3b16e07647b2ff9","5f6380873c299a069075","true","755.3449999541044","./Stimuli/ImagesPractice/SM98.jpg","76","","","","test","true","","76","","SM","SM98.jpg","","new","43","3","practice_recog","right","","","",""
"categorize-image","111","430673","0.0-3.0-7.0-0.11","3gpfppyz5w6lkwk","practice_recog","5f56056a645a6e9dba848fa2","5f60e3c0a3b16e07647b2ff9","5f6380873c299a069075","true","913.3099999744445","./Stimuli/ImagesPractice/SM97.jpg","83","","","","test","false","","76","","SM","SM97.jpg","","new","44","3","practice_recog","left","","","",""
"categorize-image","112","432591","0.0-3.0-7.0-0.12","3gpfppyz5w6lkwk","practice_recog","5f56056a645a6e9dba848fa2","5f60e3c0a3b16e07647b2ff9","5f6380873c299a069075","true","1403.2000000588596","./Stimuli/ImagesPractice/SM37.jpg","76","","","","test","true","","76","","SM","SM37.jpg","","new","45","3","practice_recog","right","","","",""
"categorize-image","113","433891","0.0-3.0-7.0-0.13","3gpfppyz5w6lkwk","practice_recog","5f56056a645a6e9dba848fa2","5f60e3c0a3b16e07647b2ff9","5f6380873c299a069075","true","792.1400000341237","./Stimuli/ImagesPractice/LM239.jpg","83","","","","test","true","","83","","LM","LM239.jpg","","old","46","3","practice_recog","left","","","",""
"categorize-image","114","435340","0.0-3.0-7.0-0.14","3gpfppyz5w6lkwk","practice_recog","5f56056a645a6e9dba848fa2","5f60e3c0a3b16e07647b2ff9","5f6380873c299a069075","true","942.4350000917912","./Stimuli/ImagesPractice/LM143.jpg","76","","","","test","true","","76","","LM","LM143.jpg","","new","47","3","practice_recog","right","","","",""
"categorize-image","115","436873","0.0-3.0-7.0-0.15","3gpfppyz5w6lkwk","practice_recog","5f56056a645a6e9dba848fa2","5f60e3c0a3b16e07647b2ff9","5f6380873c299a069075","true","1021.5449999086559","./Stimuli/ImagesPractice/LN15.jpg","83","","","","test","true","","83","","LN","LN15.jpg","","old","48","3","practice_recog","left","","","",""
"html-keyboard-response","116","439580","0.0-3.0-8.0","3gpfppyz5w6lkwk","instructions","5f56056a645a6e9dba848fa2","5f60e3c0a3b16e07647b2ff9","5f6380873c299a069075","false","2704.105000011623","<div align=left> Great!<br><br>Are you ready to continue?<br>If you want to reread the instructions and redo the practice trials, please <br>press „Z“.<br><br>You can proceed when you are ready.<br><br>After the presentation of each object, you will receive an instruction whether to <br>remember or to forget the object.<br>We will test your memory of the following pictures only at the very end of <br>the experiment after all learning blocks are completed. <br><br>Press SPACE to CONTINUE when you are ready. </div>","32","","","","","","","","","","","","","","","","","","","",""
"html-keyboard-response","117","442924","0.0-4.0-0.0","3gpfppyz5w6lkwk","instructions","5f56056a645a6e9dba848fa2","5f60e3c0a3b16e07647b2ff9","5f6380873c299a069075","false","3341.389999957755","<div align=left> The actual experiment is about to start.<br>The practice trials are over!<br><br>Please always respond both fast and accurately!<br><br>Remember: <br> <br><li> Please place your index fingers on the <strong>'S'</strong> and <strong>'L'</strong> keys <br>to respond as fast and accurately as possible.</li><li> Every picture can be classified as either mechanical or non-mechanical.</li><li> If you do not respond in time or commit an error, you will receive a corresponding feedback.<br> Please try to respond as <strong> fast </strong> and as <strong> accurately as possible </strong>.</li><li> Remember the <span style='color: dodgerblue; font-size: 28px'>O</span> pictures. <br></li><li> Please minimize distractions and stay focused. </li><br><br>Press SPACE to START.</div>","32","","","","","","","","","","","","","","","","","","","",""
"html-keyboard-response","118","443641","0.0-4.0-1.0-0.0","3gpfppyz5w6lkwk","prime","5f56056a645a6e9dba848fa2","5f60e3c0a3b16e07647b2ff9","5f6380873c299a069075","false","null","<span style=""color: black; font-size: 48px"">N + M</span>","null","","","","resp_prompt","","","","","","","","","","","","","","","",""
"categorize-image","119","444540","0.0-4.0-1.0-1.0","3gpfppyz5w6lkwk","prime","5f56056a645a6e9dba848fa2","5f60e3c0a3b16e07647b2ff9","5f6380873c299a069075","true","891.8850000482053","./Stimuli/SelectedImages/LN/LN28.bmp","83","","","","test","true","N + M","83","repetition","LN","LN28.bmp","remember","","49","3","prime1","left","","","",""
"html-keyboard-response","120","446555","0.0-4.0-1.0-3.0","3gpfppyz5w6lkwk","prime","5f56056a645a6e9dba848fa2","5f60e3c0a3b16e07647b2ff9","5f6380873c299a069075","false","null","<div style=""align-items: center; display: flex; color: dodgerblue; font-size: 90px""><b>o</b></div>","null","","","","forget_cue","","","","","","","","","","","","","","","",""
"html-keyboard-response","121","447258","0.0-4.0-1.0-0.1","3gpfppyz5w6lkwk","prime","5f56056a645a6e9dba848fa2","5f60e3c0a3b16e07647b2ff9","5f6380873c299a069075","false","null","<span style=""color: black; font-size: 48px"">N + M</span>","null","","","","resp_prompt","","","","","","","","","","","","","","","",""
"categorize-image","122","448181","0.0-4.0-1.0-1.1","3gpfppyz5w6lkwk","prime","5f56056a645a6e9dba848fa2","5f60e3c0a3b16e07647b2ff9","5f6380873c299a069075","true","916.8749998789281","./Stimuli/SelectedImages/SM/SM200.bmp","76","","","","test","true","N + M","76","switch","SM","SM200.bmp","forget","","50","3","prime1","right","","","",""
"html-keyboard-response","123","450189","0.0-4.0-1.0-3.1","3gpfppyz5w6lkwk","prime","5f56056a645a6e9dba848fa2","5f60e3c0a3b16e07647b2ff9","5f6380873c299a069075","false","null","<div style=""align-items: center; display: flex; color: darkorange; font-size: 90px""><b>ø</b></div>","null","","","","forget_cue","","","","","","","","","","","","","","","",""
"html-keyboard-response","124","450906","0.0-4.0-1.0-0.2","3gpfppyz5w6lkwk","prime","5f56056a645a6e9dba848fa2","5f60e3c0a3b16e07647b2ff9","5f6380873c299a069075","false","null","<span style=""color: black; font-size: 48px"">N + M</span>","null","","","","resp_prompt","","","","","","","","","","","","","","","",""
"categorize-image","125","451965","0.0-4.0-1.0-1.2","3gpfppyz5w6lkwk","prime","5f56056a645a6e9dba848fa2","5f60e3c0a3b16e07647b2ff9","5f6380873c299a069075","true","1051.0600002016872","./Stimuli/SelectedImages/SN/SN93.bmp","83","","","","test","true","N + M","83","repetition","SN","SN93.bmp","forget","","51","3","prime1","left","","","",""
"html-keyboard-response","126","453971","0.0-4.0-1.0-3.2","3gpfppyz5w6lkwk","prime","5f56056a645a6e9dba848fa2","5f60e3c0a3b16e07647b2ff9","5f6380873c299a069075","false","null","<div style=""align-items: center; display: flex; color: darkorange; font-size: 90px""><b>ø</b></div>","null","","","","forget_cue","","","","","","","","","","","","","","","",""
"html-keyboard-response","127","454689","0.0-4.0-1.0-0.3","3gpfppyz5w6lkwk","prime","5f56056a645a6e9dba848fa2","5f60e3c0a3b16e07647b2ff9","5f6380873c299a069075","false","null","<span style=""color: black; font-size: 48px"">N + M</span>","null","","","","resp_prompt","","","","","","","","","","","","","","","",""
"categorize-image","128","455690","0.0-4.0-1.0-1.3","3gpfppyz5w6lkwk","prime","5f56056a645a6e9dba848fa2","5f60e3c0a3b16e07647b2ff9","5f6380873c299a069075","true","993.9500000327826","./Stimuli/SelectedImages/LN/LN149.bmp","83","","","","test","true","N + M","83","switch","LN","LN149.bmp","forget","","52","3","prime1","left","","","",""
"html-keyboard-response","129","457705","0.0-4.0-1.0-3.3","3gpfppyz5w6lkwk","prime","5f56056a645a6e9dba848fa2","5f60e3c0a3b16e07647b2ff9","5f6380873c299a069075","false","null","<div style=""align-items: center; display: flex; color: darkorange; font-size: 90px""><b>ø</b></div>","null","","","","forget_cue","","","","","","","","","","","","","","","",""
"html-keyboard-response","130","458422","0.0-4.0-1.0-0.4","3gpfppyz5w6lkwk","prime","5f56056a645a6e9dba848fa2","5f60e3c0a3b16e07647b2ff9","5f6380873c299a069075","false","null","<span style=""color: black; font-size: 48px"">N + M</span>","null","","","","resp_prompt","","","","","","","","","","","","","","","",""
"categorize-image","131","459153","0.0-4.0-1.0-1.4","3gpfppyz5w6lkwk","prime","5f56056a645a6e9dba848fa2","5f60e3c0a3b16e07647b2ff9","5f6380873c299a069075","true","722.9049999732524","./Stimuli/SelectedImages/SN/SN182.bmp","83","","","","test","true","N + M","83","repetition","SN","SN182.bmp","remember","","53","3","prime1","left","","","",""
"html-keyboard-response","132","461170","0.0-4.0-1.0-3.4","3gpfppyz5w6lkwk","prime","5f56056a645a6e9dba848fa2","5f60e3c0a3b16e07647b2ff9","5f6380873c299a069075","false","null","<div style=""align-items: center; display: flex; color: dodgerblue; font-size: 90px""><b>o</b></div>","null","","","","forget_cue","","","","","","","","","","","","","","","",""
"html-keyboard-response","133","461888","0.0-4.0-1.0-0.5","3gpfppyz5w6lkwk","prime","5f56056a645a6e9dba848fa2","5f60e3c0a3b16e07647b2ff9","5f6380873c299a069075","false","null","<span style=""color: black; font-size: 48px"">M + N</span>","null","","","","resp_prompt","","","","","","","","","","","","","","","",""
"categorize-image","134","463732","0.0-4.0-1.0-1.5","3gpfppyz5w6lkwk","prime","5f56056a645a6e9dba848fa2","5f60e3c0a3b16e07647b2ff9","5f6380873c299a069075","true","1836.7049999069422","./Stimuli/SelectedImages/LN/LN131.bmp","83","","","","test","false","M + N","76","repetition","LN","LN131.bmp","remember","","54","3","prime1","left","","","",""
"html-keyboard-response","135","464239","0.0-4.0-1.0-2.5-0.5","3gpfppyz5w6lkwk","prime","5f56056a645a6e9dba848fa2","5f60e3c0a3b16e07647b2ff9","5f6380873c299a069075","false","null","<span style=""color: red; font-size: 48px"">Error!</span>","null","","","","feedback","","","","","","","","","","","","","","","",""
"html-keyboard-response","136","466251","0.0-4.0-1.0-3.5","3gpfppyz5w6lkwk","prime","5f56056a645a6e9dba848fa2","5f60e3c0a3b16e07647b2ff9","5f6380873c299a069075","false","null","<div style=""align-items: center; display: flex; color: dodgerblue; font-size: 90px""><b>o</b></div>","null","","","","forget_cue","","","","","","","","","","","","","","","",""
"html-keyboard-response","137","466956","0.0-4.0-1.0-0.6","3gpfppyz5w6lkwk","prime","5f56056a645a6e9dba848fa2","5f60e3c0a3b16e07647b2ff9","5f6380873c299a069075","false","null","<span style=""color: black; font-size: 48px"">M + N</span>","null","","","","resp_prompt","","","","","","","","","","","","","","","",""
"categorize-image","138","468256","0.0-4.0-1.0-1.6","3gpfppyz5w6lkwk","prime","5f56056a645a6e9dba848fa2","5f60e3c0a3b16e07647b2ff9","5f6380873c299a069075","true","1292.2450001351535","./Stimuli/SelectedImages/LM/LM179.bmp","83","","","","test","true","M + N","83","repetition","LM","LM179.bmp","remember","","55","3","prime1","left","","","",""
"html-keyboard-response","139","470270","0.0-4.0-1.0-3.6","3gpfppyz5w6lkwk","prime","5f56056a645a6e9dba848fa2","5f60e3c0a3b16e07647b2ff9","5f6380873c299a069075","false","null","<div style=""align-items: center; display: flex; color: dodgerblue; font-size: 90px""><b>o</b></div>","null","","","","forget_cue","","","","","","","","","","","","","","","",""
"html-keyboard-response","140","470988","0.0-4.0-1.0-0.7","3gpfppyz5w6lkwk","prime","5f56056a645a6e9dba848fa2","5f60e3c0a3b16e07647b2ff9","5f6380873c299a069075","false","null","<span style=""color: black; font-size: 48px"">M + N</span>","null","","","","resp_prompt","","","","","","","","","","","","","","","",""
"categorize-image","141","472234","0.0-4.0-1.0-1.7","3gpfppyz5w6lkwk","prime","5f56056a645a6e9dba848fa2","5f60e3c0a3b16e07647b2ff9","5f6380873c299a069075","true","1238.6749999132007","./Stimuli/SelectedImages/SN/SN18.bmp","76","","","","test","true","M + N","76","switch","SN","SN18.bmp","remember","","56","3","prime1","right","","","",""
"html-keyboard-response","142","474250","0.0-4.0-1.0-3.7","3gpfppyz5w6lkwk","prime","5f56056a645a6e9dba848fa2","5f60e3c0a3b16e07647b2ff9","5f6380873c299a069075","false","null","<div style=""align-items: center; display: flex; color: dodgerblue; font-size: 90px""><b>o</b></div>","null","","","","forget_cue","","","","","","","","","","","","","","","",""
"html-keyboard-response","143","474969","0.0-4.0-1.0-0.8","3gpfppyz5w6lkwk","prime","5f56056a645a6e9dba848fa2","5f60e3c0a3b16e07647b2ff9","5f6380873c299a069075","false","null","<span style=""color: black; font-size: 48px"">N + M</span>","null","","","","resp_prompt","","","","","","","","","","","","","","","",""
"categorize-image","144","475774","0.0-4.0-1.0-1.8","3gpfppyz5w6lkwk","prime","5f56056a645a6e9dba848fa2","5f60e3c0a3b16e07647b2ff9","5f6380873c299a069075","true","798.380000051111","./Stimuli/SelectedImages/SM/SM106.bmp","76","","","","test","true","N + M","76","repetition","SM","SM106.bmp","remember","","57","3","prime1","right","","","",""
"html-keyboard-response","145","477784","0.0-4.0-1.0-3.8","3gpfppyz5w6lkwk","prime","5f56056a645a6e9dba848fa2","5f60e3c0a3b16e07647b2ff9","5f6380873c299a069075","false","null","<div style=""align-items: center; display: flex; color: dodgerblue; font-size: 90px""><b>o</b></div>","null","","","","forget_cue","","","","","","","","","","","","","","","",""
"html-keyboard-response","146","478502","0.0-4.0-1.0-0.9","3gpfppyz5w6lkwk","prime","5f56056a645a6e9dba848fa2","5f60e3c0a3b16e07647b2ff9","5f6380873c299a069075","false","null","<span style=""color: black; font-size: 48px"">M + N</span>","null","","","","resp_prompt","","","","","","","","","","","","","","","",""
"categorize-image","147","479654","0.0-4.0-1.0-1.9","3gpfppyz5w6lkwk","prime","5f56056a645a6e9dba848fa2","5f60e3c0a3b16e07647b2ff9","5f6380873c299a069075","true","1145.9150000009686","./Stimuli/SelectedImages/SN/SN60.bmp","76","","","","test","true","M + N","76","switch","SN","SN60.bmp","forget","","58","3","prime1","right","","","",""
"html-keyboard-response","148","481666","0.0-4.0-1.0-3.9","3gpfppyz5w6lkwk","prime","5f56056a645a6e9dba848fa2","5f60e3c0a3b16e07647b2ff9","5f6380873c299a069075","false","null","<div style=""align-items: center; display: flex; color: darkorange; font-size: 90px""><b>ø</b></div>","null","","","","forget_cue","","","","","","","","","","","","","","","",""
"html-keyboard-response","149","482384","0.0-4.0-1.0-0.10","3gpfppyz5w6lkwk","prime","5f56056a645a6e9dba848fa2","5f60e3c0a3b16e07647b2ff9","5f6380873c299a069075","false","null","<span style=""color: black; font-size: 48px"">M + N</span>","null","","","","resp_prompt","","","","","","","","","","","","","","","",""
"categorize-image","150","483431","0.0-4.0-1.0-1.10","3gpfppyz5w6lkwk","prime","5f56056a645a6e9dba848fa2","5f60e3c0a3b16e07647b2ff9","5f6380873c299a069075","true","1039.1949999611825","./Stimuli/SelectedImages/LN/LN101.bmp","76","","","","test","true","M + N","76","switch","LN","LN101.bmp","remember","","59","3","prime1","right","","","",""
"html-keyboard-response","151","485449","0.0-4.0-1.0-3.10","3gpfppyz5w6lkwk","prime","5f56056a645a6e9dba848fa2","5f60e3c0a3b16e07647b2ff9","5f6380873c299a069075","false","null","<div style=""align-items: center; display: flex; color: dodgerblue; font-size: 90px""><b>o</b></div>","null","","","","forget_cue","","","","","","","","","","","","","","","",""
"html-keyboard-response","152","486152","0.0-4.0-1.0-0.11","3gpfppyz5w6lkwk","prime","5f56056a645a6e9dba848fa2","5f60e3c0a3b16e07647b2ff9","5f6380873c299a069075","false","null","<span style=""color: black; font-size: 48px"">M + N</span>","null","","","","resp_prompt","","","","","","","","","","","","","","","",""
"categorize-image","153","487241","0.0-4.0-1.0-1.11","3gpfppyz5w6lkwk","prime","5f56056a645a6e9dba848fa2","5f60e3c0a3b16e07647b2ff9","5f6380873c299a069075","true","1079.9950000364333","./Stimuli/SelectedImages/SM/SM78.bmp","83","","","","test","true","M + N","83","repetition","SM","SM78.bmp","forget","","60","3","prime1","left","","","",""
"html-keyboard-response","154","489249","0.0-4.0-1.0-3.11","3gpfppyz5w6lkwk","prime","5f56056a645a6e9dba848fa2","5f60e3c0a3b16e07647b2ff9","5f6380873c299a069075","false","null","<div style=""align-items: center; display: flex; color: darkorange; font-size: 90px""><b>ø</b></div>","null","","","","forget_cue","","","","","","","","","","","","","","","",""
"html-keyboard-response","155","489966","0.0-4.0-1.0-0.12","3gpfppyz5w6lkwk","prime","5f56056a645a6e9dba848fa2","5f60e3c0a3b16e07647b2ff9","5f6380873c299a069075","false","null","<span style=""color: black; font-size: 48px"">N + M</span>","null","","","","resp_prompt","","","","","","","","","","","","","","","",""
"categorize-image","156","490872","0.0-4.0-1.0-1.12","3gpfppyz5w6lkwk","prime","5f56056a645a6e9dba848fa2","5f60e3c0a3b16e07647b2ff9","5f6380873c299a069075","true","896.269999910146","./Stimuli/SelectedImages/SN/SN52.bmp","83","","","","test","true","N + M","83","repetition","SN","SN52.bmp","forget","","61","3","prime1","left","","","",""
"html-keyboard-response","157","492881","0.0-4.0-1.0-3.12","3gpfppyz5w6lkwk","prime","5f56056a645a6e9dba848fa2","5f60e3c0a3b16e07647b2ff9","5f6380873c299a069075","false","null","<div style=""align-items: center; display: flex; color: darkorange; font-size: 90px""><b>ø</b></div>","null","","","","forget_cue","","","","","","","","","","","","","","","",""
"html-keyboard-response","158","493599","0.0-4.0-1.0-0.13","3gpfppyz5w6lkwk","prime","5f56056a645a6e9dba848fa2","5f60e3c0a3b16e07647b2ff9","5f6380873c299a069075","false","null","<span style=""color: black; font-size: 48px"">M + N</span>","null","","","","resp_prompt","","","","","","","","","","","","","","","",""
"categorize-image","159","494568","0.0-4.0-1.0-1.13","3gpfppyz5w6lkwk","prime","5f56056a645a6e9dba848fa2","5f60e3c0a3b16e07647b2ff9","5f6380873c299a069075","true","962.3449998907745","./Stimuli/SelectedImages/SN/SN128.bmp","76","","","","test","true","M + N","76","repetition","SN","SN128.bmp","forget","","62","3","prime1","right","","","",""
"html-keyboard-response","160","496581","0.0-4.0-1.0-3.13","3gpfppyz5w6lkwk","prime","5f56056a645a6e9dba848fa2","5f60e3c0a3b16e07647b2ff9","5f6380873c299a069075","false","null","<div style=""align-items: center; display: flex; color: darkorange; font-size: 90px""><b>ø</b></div>","null","","","","forget_cue","","","","","","","","","","","","","","","",""
"html-keyboard-response","161","497298","0.0-4.0-1.0-0.14","3gpfppyz5w6lkwk","prime","5f56056a645a6e9dba848fa2","5f60e3c0a3b16e07647b2ff9","5f6380873c299a069075","false","null","<span style=""color: black; font-size: 48px"">N + M</span>","null","","","","resp_prompt","","","","","","","","","","","","","","","",""
"categorize-image","162","498230","0.0-4.0-1.0-1.14","3gpfppyz5w6lkwk","prime","5f56056a645a6e9dba848fa2","5f60e3c0a3b16e07647b2ff9","5f6380873c299a069075","true","924.2849999573082","./Stimuli/SelectedImages/SM/SM128.bmp","76","","","","test","true","N + M","76","repetition","SM","SM128.bmp","forget","","63","3","prime1","right","","","",""
"html-keyboard-response","163","500247","0.0-4.0-1.0-3.14","3gpfppyz5w6lkwk","prime","5f56056a645a6e9dba848fa2","5f60e3c0a3b16e07647b2ff9","5f6380873c299a069075","false","null","<div style=""align-items: center; display: flex; color: darkorange; font-size: 90px""><b>ø</b></div>","null","","","","forget_cue","","","","","","","","","","","","","","","",""
"html-keyboard-response","164","500965","0.0-4.0-1.0-0.15","3gpfppyz5w6lkwk","prime","5f56056a645a6e9dba848fa2","5f60e3c0a3b16e07647b2ff9","5f6380873c299a069075","false","null","<span style=""color: black; font-size: 48px"">N + M</span>","null","","","","resp_prompt","","","","","","","","","","","","","","","",""
"categorize-image","165","501731","0.0-4.0-1.0-1.15","3gpfppyz5w6lkwk","prime","5f56056a645a6e9dba848fa2","5f60e3c0a3b16e07647b2ff9","5f6380873c299a069075","true","758.3699999377131","./Stimuli/SelectedImages/SN/SN155.bmp","83","","","","test","true","N + M","83","switch","SN","SN155.bmp","remember","","64","3","prime1","left","","","",""
"html-keyboard-response","166","503746","0.0-4.0-1.0-3.15","3gpfppyz5w6lkwk","prime","5f56056a645a6e9dba848fa2","5f60e3c0a3b16e07647b2ff9","5f6380873c299a069075","false","null","<div style=""align-items: center; display: flex; color: dodgerblue; font-size: 90px""><b>o</b></div>","null","","","","forget_cue","","","","","","","","","","","","","","","",""
"html-keyboard-response","167","504464","0.0-4.0-1.0-0.16","3gpfppyz5w6lkwk","prime","5f56056a645a6e9dba848fa2","5f60e3c0a3b16e07647b2ff9","5f6380873c299a069075","false","null","<span style=""color: black; font-size: 48px"">M + N</span>","null","","","","resp_prompt","","","","","","","","","","","","","","","",""
"categorize-image","168","506066","0.0-4.0-1.0-1.16","3gpfppyz5w6lkwk","prime","5f56056a645a6e9dba848fa2","5f60e3c0a3b16e07647b2ff9","5f6380873c299a069075","true","1591.6900001466274","./Stimuli/SelectedImages/LN/LN166.bmp","76","","","","test","true","M + N","76","repetition","LN","LN166.bmp","forget","","65","3","prime1","right","","","",""
"html-keyboard-response","169","508078","0.0-4.0-1.0-3.16","3gpfppyz5w6lkwk","prime","5f56056a645a6e9dba848fa2","5f60e3c0a3b16e07647b2ff9","5f6380873c299a069075","false","null","<div style=""align-items: center; display: flex; color: darkorange; font-size: 90px""><b>ø</b></div>","null","","","","forget_cue","","","","","","","","","","","","","","","",""
"html-keyboard-response","170","508782","0.0-4.0-1.0-0.17","3gpfppyz5w6lkwk","prime","5f56056a645a6e9dba848fa2","5f60e3c0a3b16e07647b2ff9","5f6380873c299a069075","false","null","<span style=""color: black; font-size: 48px"">N + M</span>","null","","","","resp_prompt","","","","","","","","","","","","","","","",""
"categorize-image","171","509807","0.0-4.0-1.0-1.17","3gpfppyz5w6lkwk","prime","5f56056a645a6e9dba848fa2","5f60e3c0a3b16e07647b2ff9","5f6380873c299a069075","true","1016.330000013113","./Stimuli/SelectedImages/LM/LM167.bmp","76","","","","test","true","N + M","76","switch","LM","LM167.bmp","forget","","66","3","prime1","right","","","",""
"html-keyboard-response","172","511828","0.0-4.0-1.0-3.17","3gpfppyz5w6lkwk","prime","5f56056a645a6e9dba848fa2","5f60e3c0a3b16e07647b2ff9","5f6380873c299a069075","false","null","<div style=""align-items: center; display: flex; color: darkorange; font-size: 90px""><b>ø</b></div>","null","","","","forget_cue","","","","","","","","","","","","","","","",""
"html-keyboard-response","173","512546","0.0-4.0-1.0-0.18","3gpfppyz5w6lkwk","prime","5f56056a645a6e9dba848fa2","5f60e3c0a3b16e07647b2ff9","5f6380873c299a069075","false","null","<span style=""color: black; font-size: 48px"">M + N</span>","null","","","","resp_prompt","","","","","","","","","","","","","","","",""
"categorize-image","174","513417","0.0-4.0-1.0-1.18","3gpfppyz5w6lkwk","prime","5f56056a645a6e9dba848fa2","5f60e3c0a3b16e07647b2ff9","5f6380873c299a069075","true","862.2550000436604","./Stimuli/SelectedImages/LM/LM235.bmp","83","","","","test","true","M + N","83","repetition","LM","LM235.bmp","forget","","67","3","prime1","left","","","",""
"html-keyboard-response","175","515427","0.0-4.0-1.0-3.18","3gpfppyz5w6lkwk","prime","5f56056a645a6e9dba848fa2","5f60e3c0a3b16e07647b2ff9","5f6380873c299a069075","false","null","<div style=""align-items: center; display: flex; color: darkorange; font-size: 90px""><b>ø</b></div>","null","","","","forget_cue","","","","","","","","","","","","","","","",""
"html-keyboard-response","176","516130","0.0-4.0-1.0-0.19","3gpfppyz5w6lkwk","prime","5f56056a645a6e9dba848fa2","5f60e3c0a3b16e07647b2ff9","5f6380873c299a069075","false","null","<span style=""color: black; font-size: 48px"">M + N</span>","null","","","","resp_prompt","","","","","","","","","","","","","","","",""
"categorize-image","177","517415","0.0-4.0-1.0-1.19","3gpfppyz5w6lkwk","prime","5f56056a645a6e9dba848fa2","5f60e3c0a3b16e07647b2ff9","5f6380873c299a069075","true","1276.4949998818338","./Stimuli/SelectedImages/SM/SM17.bmp","83","","","","test","true","M + N","83","switch","SM","SM17.bmp","remember","","68","3","prime1","left","","","",""
"html-keyboard-response","178","519427","0.0-4.0-1.0-3.19","3gpfppyz5w6lkwk","prime","5f56056a645a6e9dba848fa2","5f60e3c0a3b16e07647b2ff9","5f6380873c299a069075","false","null","<div style=""align-items: center; display: flex; color: dodgerblue; font-size: 90px""><b>o</b></div>","null","","","","forget_cue","","","","","","","","","","","","","","","",""
"html-keyboard-response","179","520144","0.0-4.0-1.0-0.20","3gpfppyz5w6lkwk","prime","5f56056a645a6e9dba848fa2","5f60e3c0a3b16e07647b2ff9","5f6380873c299a069075","false","null","<span style=""color: black; font-size: 48px"">N + M</span>","null","","","","resp_prompt","","","","","","","","","","","","","","","",""
"categorize-image","180","520897","0.0-4.0-1.0-1.20","3gpfppyz5w6lkwk","prime","5f56056a645a6e9dba848fa2","5f60e3c0a3b16e07647b2ff9","5f6380873c299a069075","true","743.5500000137836","./Stimuli/SelectedImages/SN/SN27.bmp","83","","","","test","true","N + M","83","switch","SN","SN27.bmp","forget","","69","3","prime1","left","","","",""
"html-keyboard-response","181","522909","0.0-4.0-1.0-3.20","3gpfppyz5w6lkwk","prime","5f56056a645a6e9dba848fa2","5f60e3c0a3b16e07647b2ff9","5f6380873c299a069075","false","null","<div style=""align-items: center; display: flex; color: darkorange; font-size: 90px""><b>ø</b></div>","null","","","","forget_cue","","","","","","","","","","","","","","","",""
"html-keyboard-response","182","523612","0.0-4.0-1.0-0.21","3gpfppyz5w6lkwk","prime","5f56056a645a6e9dba848fa2","5f60e3c0a3b16e07647b2ff9","5f6380873c299a069075","false","null","<span style=""color: black; font-size: 48px"">M + N</span>","null","","","","resp_prompt","","","","","","","","","","","","","","","",""
"categorize-image","183","524585","0.0-4.0-1.0-1.21","3gpfppyz5w6lkwk","prime","5f56056a645a6e9dba848fa2","5f60e3c0a3b16e07647b2ff9","5f6380873c299a069075","true","966.0499999299645","./Stimuli/SelectedImages/SN/SN240.bmp","76","","","","test","true","M + N","76","repetition","SN","SN240.bmp","remember","","70","3","prime1","right","","","",""
"html-keyboard-response","184","526593","0.0-4.0-1.0-3.21","3gpfppyz5w6lkwk","prime","5f56056a645a6e9dba848fa2","5f60e3c0a3b16e07647b2ff9","5f6380873c299a069075","false","null","<div style=""align-items: center; display: flex; color: dodgerblue; font-size: 90px""><b>o</b></div>","null","","","","forget_cue","","","","","","","","","","","","","","","",""
"html-keyboard-response","185","527313","0.0-4.0-1.0-0.22","3gpfppyz5w6lkwk","prime","5f56056a645a6e9dba848fa2","5f60e3c0a3b16e07647b2ff9","5f6380873c299a069075","false","null","<span style=""color: black; font-size: 48px"">M + N</span>","null","","","","resp_prompt","","","","","","","","","","","","","","","",""
"categorize-image","186","528247","0.0-4.0-1.0-1.22","3gpfppyz5w6lkwk","prime","5f56056a645a6e9dba848fa2","5f60e3c0a3b16e07647b2ff9","5f6380873c299a069075","true","911.5649999585003","./Stimuli/SelectedImages/LM/LM59.bmp","83","","","","test","true","M + N","83","switch","LM","LM59.bmp","forget","","71","3","prime1","left","","","",""
"html-keyboard-response","187","530261","0.0-4.0-1.0-3.22","3gpfppyz5w6lkwk","prime","5f56056a645a6e9dba848fa2","5f60e3c0a3b16e07647b2ff9","5f6380873c299a069075","false","null","<div style=""align-items: center; display: flex; color: darkorange; font-size: 90px""><b>ø</b></div>","null","","","","forget_cue","","","","","","","","","","","","","","","",""
"html-keyboard-response","188","530979","0.0-4.0-1.0-0.23","3gpfppyz5w6lkwk","prime","5f56056a645a6e9dba848fa2","5f60e3c0a3b16e07647b2ff9","5f6380873c299a069075","false","null","<span style=""color: black; font-size: 48px"">M + N</span>","null","","","","resp_prompt","","","","","","","","","","","","","","","",""
"categorize-image","189","531663","0.0-4.0-1.0-1.23","3gpfppyz5w6lkwk","prime","5f56056a645a6e9dba848fa2","5f60e3c0a3b16e07647b2ff9","5f6380873c299a069075","true","666.4250001776963","./Stimuli/SelectedImages/LN/LN92.bmp","76","","","","test","true","M + N","76","switch","LN","LN92.bmp","forget","","72","3","prime1","right","","","",""
"html-keyboard-response","190","533674","0.0-4.0-1.0-3.23","3gpfppyz5w6lkwk","prime","5f56056a645a6e9dba848fa2","5f60e3c0a3b16e07647b2ff9","5f6380873c299a069075","false","null","<div style=""align-items: center; display: flex; color: darkorange; font-size: 90px""><b>ø</b></div>","null","","","","forget_cue","","","","","","","","","","","","","","","",""
"html-keyboard-response","191","534377","0.0-4.0-1.0-0.24","3gpfppyz5w6lkwk","prime","5f56056a645a6e9dba848fa2","5f60e3c0a3b16e07647b2ff9","5f6380873c299a069075","false","null","<span style=""color: black; font-size: 48px"">N + M</span>","null","","","","resp_prompt","","","","","","","","","","","","","","","",""
"categorize-image","192","535194","0.0-4.0-1.0-1.24","3gpfppyz5w6lkwk","prime","5f56056a645a6e9dba848fa2","5f60e3c0a3b16e07647b2ff9","5f6380873c299a069075","true","807.9149997793138","./Stimuli/SelectedImages/SM/SM24.bmp","83","","","","test","false","N + M","76","switch","SM","SM24.bmp","forget","","73","3","prime1","left","","","",""
"html-keyboard-response","193","535719","0.0-4.0-1.0-2.24-0.24","3gpfppyz5w6lkwk","prime","5f56056a645a6e9dba848fa2","5f60e3c0a3b16e07647b2ff9","5f6380873c299a069075","false","null","<span style=""color: red; font-size: 48px"">Error!</span>","null","","","","feedback","","","","","","","","","","","","","","","",""
"html-keyboard-response","194","537725","0.0-4.0-1.0-3.24","3gpfppyz5w6lkwk","prime","5f56056a645a6e9dba848fa2","5f60e3c0a3b16e07647b2ff9","5f6380873c299a069075","false","null","<div style=""align-items: center; display: flex; color: darkorange; font-size: 90px""><b>ø</b></div>","null","","","","forget_cue","","","","","","","","","","","","","","","",""
"html-keyboard-response","195","538443","0.0-4.0-1.0-0.25","3gpfppyz5w6lkwk","prime","5f56056a645a6e9dba848fa2","5f60e3c0a3b16e07647b2ff9","5f6380873c299a069075","false","null","<span style=""color: black; font-size: 48px"">N + M</span>","null","","","","resp_prompt","","","","","","","","","","","","","","","",""
"categorize-image","196","539190","0.0-4.0-1.0-1.25","3gpfppyz5w6lkwk","prime","5f56056a645a6e9dba848fa2","5f60e3c0a3b16e07647b2ff9","5f6380873c299a069075","true","732.564999954775","./Stimuli/SelectedImages/LM/LM129.bmp","76","","","","test","true","N + M","76","repetition","LM","LM129.bmp","forget","","74","3","prime1","right","","","",""
"html-keyboard-response","197","541205","0.0-4.0-1.0-3.25","3gpfppyz5w6lkwk","prime","5f56056a645a6e9dba848fa2","5f60e3c0a3b16e07647b2ff9","5f6380873c299a069075","false","null","<div style=""align-items: center; display: flex; color: darkorange; font-size: 90px""><b>ø</b></div>","null","","","","forget_cue","","","","","","","","","","","","","","","",""
"html-keyboard-response","198","541926","0.0-4.0-1.0-0.26","3gpfppyz5w6lkwk","prime","5f56056a645a6e9dba848fa2","5f60e3c0a3b16e07647b2ff9","5f6380873c299a069075","false","null","<span style=""color: black; font-size: 48px"">N + M</span>","null","","","","resp_prompt","","","","","","","","","","","","","","","",""
"categorize-image","199","542845","0.0-4.0-1.0-1.26","3gpfppyz5w6lkwk","prime","5f56056a645a6e9dba848fa2","5f60e3c0a3b16e07647b2ff9","5f6380873c299a069075","true","894.8500000406057","./Stimuli/SelectedImages/SM/SM205.bmp","76","","","","test","true","N + M","76","switch","SM","SM205.bmp","remember","","75","3","prime1","right","","","",""
"html-keyboard-response","200","544859","0.0-4.0-1.0-3.26","3gpfppyz5w6lkwk","prime","5f56056a645a6e9dba848fa2","5f60e3c0a3b16e07647b2ff9","5f6380873c299a069075","false","null","<div style=""align-items: center; display: flex; color: dodgerblue; font-size: 90px""><b>o</b></div>","null","","","","forget_cue","","","","","","","","","","","","","","","",""
"html-keyboard-response","201","545576","0.0-4.0-1.0-0.27","3gpfppyz5w6lkwk","prime","5f56056a645a6e9dba848fa2","5f60e3c0a3b16e07647b2ff9","5f6380873c299a069075","false","null","<span style=""color: black; font-size: 48px"">M + N</span>","null","","","","resp_prompt","","","","","","","","","","","","","","","",""
"categorize-image","202","546586","0.0-4.0-1.0-1.27","3gpfppyz5w6lkwk","prime","5f56056a645a6e9dba848fa2","5f60e3c0a3b16e07647b2ff9","5f6380873c299a069075","true","1002.6599999982864","./Stimuli/SelectedImages/SN/SN111.bmp","83","","","","test","false","M + N","76","repetition","SN","SN111.bmp","remember","","76","3","prime1","left","","","",""
"html-keyboard-response","203","547106","0.0-4.0-1.0-2.27-0.27","3gpfppyz5w6lkwk","prime","5f56056a645a6e9dba848fa2","5f60e3c0a3b16e07647b2ff9","5f6380873c299a069075","false","null","<span style=""color: red; font-size: 48px"">Error!</span>","null","","","","feedback","","","","","","","","","","","","","","","",""
"html-keyboard-response","204","549123","0.0-4.0-1.0-3.27","3gpfppyz5w6lkwk","prime","5f56056a645a6e9dba848fa2","5f60e3c0a3b16e07647b2ff9","5f6380873c299a069075","false","null","<div style=""align-items: center; display: flex; color: dodgerblue; font-size: 90px""><b>o</b></div>","null","","","","forget_cue","","","","","","","","","","","","","","","",""
"html-keyboard-response","205","549840","0.0-4.0-1.0-0.28","3gpfppyz5w6lkwk","prime","5f56056a645a6e9dba848fa2","5f60e3c0a3b16e07647b2ff9","5f6380873c299a069075","false","null","<span style=""color: black; font-size: 48px"">M + N</span>","null","","","","resp_prompt","","","","","","","","","","","","","","","",""
"categorize-image","206","550805","0.0-4.0-1.0-1.28","3gpfppyz5w6lkwk","prime","5f56056a645a6e9dba848fa2","5f60e3c0a3b16e07647b2ff9","5f6380873c299a069075","true","957.6100001577288","./Stimuli/SelectedImages/SM/SM108.bmp","83","","","","test","true","M + N","83","repetition","SM","SM108.bmp","forget","","77","3","prime1","left","","","",""
"html-keyboard-response","207","552824","0.0-4.0-1.0-3.28","3gpfppyz5w6lkwk","prime","5f56056a645a6e9dba848fa2","5f60e3c0a3b16e07647b2ff9","5f6380873c299a069075","false","null","<div style=""align-items: center; display: flex; color: darkorange; font-size: 90px""><b>ø</b></div>","null","","","","forget_cue","","","","","","","","","","","","","","","",""
"html-keyboard-response","208","553540","0.0-4.0-1.0-0.29","3gpfppyz5w6lkwk","prime","5f56056a645a6e9dba848fa2","5f60e3c0a3b16e07647b2ff9","5f6380873c299a069075","false","null","<span style=""color: black; font-size: 48px"">M + N</span>","null","","","","resp_prompt","","","","","","","","","","","","","","","",""
"categorize-image","209","554410","0.0-4.0-1.0-1.29","3gpfppyz5w6lkwk","prime","5f56056a645a6e9dba848fa2","5f60e3c0a3b16e07647b2ff9","5f6380873c299a069075","true","860.3450001683086","./Stimuli/SelectedImages/LM/LM57.bmp","83","","","","test","true","M + N","83","switch","LM","LM57.bmp","remember","","78","3","prime1","left","","","",""
"html-keyboard-response","210","556421","0.0-4.0-1.0-3.29","3gpfppyz5w6lkwk","prime","5f56056a645a6e9dba848fa2","5f60e3c0a3b16e07647b2ff9","5f6380873c299a069075","false","null","<div style=""align-items: center; display: flex; color: dodgerblue; font-size: 90px""><b>o</b></div>","null","","","","forget_cue","","","","","","","","","","","","","","","",""
"html-keyboard-response","211","557125","0.0-4.0-1.0-0.30","3gpfppyz5w6lkwk","prime","5f56056a645a6e9dba848fa2","5f60e3c0a3b16e07647b2ff9","5f6380873c299a069075","false","null","<span style=""color: black; font-size: 48px"">N + M</span>","null","","","","resp_prompt","","","","","","","","","","","","","","","",""
"categorize-image","212","558021","0.0-4.0-1.0-1.30","3gpfppyz5w6lkwk","prime","5f56056a645a6e9dba848fa2","5f60e3c0a3b16e07647b2ff9","5f6380873c299a069075","true","848.2450000010431","./Stimuli/SelectedImages/LN/LN150.bmp","83","","","","test","true","N + M","83","repetition","LN","LN150.bmp","forget","","79","3","prime1","left","","","",""
"html-keyboard-response","213","560037","0.0-4.0-1.0-3.30","3gpfppyz5w6lkwk","prime","5f56056a645a6e9dba848fa2","5f60e3c0a3b16e07647b2ff9","5f6380873c299a069075","false","null","<div style=""align-items: center; display: flex; color: darkorange; font-size: 90px""><b>ø</b></div>","null","","","","forget_cue","","","","","","","","","","","","","","","",""
"html-keyboard-response","214","560742","0.0-4.0-1.0-0.31","3gpfppyz5w6lkwk","prime","5f56056a645a6e9dba848fa2","5f60e3c0a3b16e07647b2ff9","5f6380873c299a069075","false","null","<span style=""color: black; font-size: 48px"">N + M</span>","null","","","","resp_prompt","","","","","","","","","","","","","","","",""
"categorize-image","215","561629","0.0-4.0-1.0-1.31","3gpfppyz5w6lkwk","prime","5f56056a645a6e9dba848fa2","5f60e3c0a3b16e07647b2ff9","5f6380873c299a069075","true","879.674999974668","./Stimuli/SelectedImages/LM/LM100.bmp","76","","","","test","true","N + M","76","switch","LM","LM100.bmp","forget","","80","3","prime1","right","","","",""
"html-keyboard-response","216","563636","0.0-4.0-1.0-3.31","3gpfppyz5w6lkwk","prime","5f56056a645a6e9dba848fa2","5f60e3c0a3b16e07647b2ff9","5f6380873c299a069075","false","null","<div style=""align-items: center; display: flex; color: darkorange; font-size: 90px""><b>ø</b></div>","null","","","","forget_cue","","","","","","","","","","","","","","","",""
"html-keyboard-response","217","564354","0.0-4.0-1.0-0.32","3gpfppyz5w6lkwk","prime","5f56056a645a6e9dba848fa2","5f60e3c0a3b16e07647b2ff9","5f6380873c299a069075","false","null","<span style=""color: black; font-size: 48px"">N + M</span>","null","","","","resp_prompt","","","","","","","","","","","","","","","",""
"categorize-image","218","565068","0.0-4.0-1.0-1.32","3gpfppyz5w6lkwk","prime","5f56056a645a6e9dba848fa2","5f60e3c0a3b16e07647b2ff9","5f6380873c299a069075","true","697.1849999390543","./Stimuli/SelectedImages/SM/SM207.bmp","76","","","","test","true","N + M","76","repetition","SM","SM207.bmp","remember","","81","3","prime1","right","","","",""
"html-keyboard-response","219","567070","0.0-4.0-1.0-3.32","3gpfppyz5w6lkwk","prime","5f56056a645a6e9dba848fa2","5f60e3c0a3b16e07647b2ff9","5f6380873c299a069075","false","null","<div style=""align-items: center; display: flex; color: dodgerblue; font-size: 90px""><b>o</b></div>","null","","","","forget_cue","","","","","","","","","","","","","","","",""
"html-keyboard-response","220","567787","0.0-4.0-1.0-0.33","3gpfppyz5w6lkwk","prime","5f56056a645a6e9dba848fa2","5f60e3c0a3b16e07647b2ff9","5f6380873c299a069075","false","null","<span style=""color: black; font-size: 48px"">N + M</span>","null","","","","resp_prompt","","","","","","","","","","","","","","","",""
"categorize-image","221","568564","0.0-4.0-1.0-1.33","3gpfppyz5w6lkwk","prime","5f56056a645a6e9dba848fa2","5f60e3c0a3b16e07647b2ff9","5f6380873c299a069075","true","768.1150001008064","./Stimuli/SelectedImages/SN/SN49.bmp","83","","","","test","true","N + M","83","switch","SN","SN49.bmp","remember","","82","3","prime1","left","","","",""
"html-keyboard-response","222","570585","0.0-4.0-1.0-3.33","3gpfppyz5w6lkwk","prime","5f56056a645a6e9dba848fa2","5f60e3c0a3b16e07647b2ff9","5f6380873c299a069075","false","null","<div style=""align-items: center; display: flex; color: dodgerblue; font-size: 90px""><b>o</b></div>","null","","","","forget_cue","","","","","","","","","","","","","","","",""
"html-keyboard-response","223","571302","0.0-4.0-1.0-0.34","3gpfppyz5w6lkwk","prime","5f56056a645a6e9dba848fa2","5f60e3c0a3b16e07647b2ff9","5f6380873c299a069075","false","null","<span style=""color: black; font-size: 48px"">M + N</span>","null","","","","resp_prompt","","","","","","","","","","","","","","","",""
"categorize-image","224","572082","0.0-4.0-1.0-1.34","3gpfppyz5w6lkwk","prime","5f56056a645a6e9dba848fa2","5f60e3c0a3b16e07647b2ff9","5f6380873c299a069075","true","772.3649998661131","./Stimuli/SelectedImages/LM/LM48.bmp","83","","","","test","true","M + N","83","switch","LM","LM48.bmp","forget","","83","3","prime1","left","","","",""
"html-keyboard-response","225","574102","0.0-4.0-1.0-3.34","3gpfppyz5w6lkwk","prime","5f56056a645a6e9dba848fa2","5f60e3c0a3b16e07647b2ff9","5f6380873c299a069075","false","null","<div style=""align-items: center; display: flex; color: darkorange; font-size: 90px""><b>ø</b></div>","null","","","","forget_cue","","","","","","","","","","","","","","","",""
"html-keyboard-response","226","574820","0.0-4.0-1.0-0.35","3gpfppyz5w6lkwk","prime","5f56056a645a6e9dba848fa2","5f60e3c0a3b16e07647b2ff9","5f6380873c299a069075","false","null","<span style=""color: black; font-size: 48px"">N + M</span>","null","","","","resp_prompt","","","","","","","","","","","","","","","",""
"categorize-image","227","575633","0.0-4.0-1.0-1.35","3gpfppyz5w6lkwk","prime","5f56056a645a6e9dba848fa2","5f60e3c0a3b16e07647b2ff9","5f6380873c299a069075","true","800.7400000933558","./Stimuli/SelectedImages/SM/SM213.bmp","76","","","","test","true","N + M","76","switch","SM","SM213.bmp","remember","","84","3","prime1","right","","","",""
"html-keyboard-response","228","577652","0.0-4.0-1.0-3.35","3gpfppyz5w6lkwk","prime","5f56056a645a6e9dba848fa2","5f60e3c0a3b16e07647b2ff9","5f6380873c299a069075","false","null","<div style=""align-items: center; display: flex; color: dodgerblue; font-size: 90px""><b>o</b></div>","null","","","","forget_cue","","","","","","","","","","","","","","","",""
"html-keyboard-response","229","578369","0.0-4.0-1.0-0.36","3gpfppyz5w6lkwk","prime","5f56056a645a6e9dba848fa2","5f60e3c0a3b16e07647b2ff9","5f6380873c299a069075","false","null","<span style=""color: black; font-size: 48px"">N + M</span>","null","","","","resp_prompt","","","","","","","","","","","","","","","",""
"categorize-image","230","579050","0.0-4.0-1.0-1.36","3gpfppyz5w6lkwk","prime","5f56056a645a6e9dba848fa2","5f60e3c0a3b16e07647b2ff9","5f6380873c299a069075","true","672.8000000584871","./Stimuli/SelectedImages/LM/LM75.bmp","76","","","","test","true","N + M","76","repetition","LM","LM75.bmp","forget","","85","3","prime1","right","","","",""
"html-keyboard-response","231","581069","0.0-4.0-1.0-3.36","3gpfppyz5w6lkwk","prime","5f56056a645a6e9dba848fa2","5f60e3c0a3b16e07647b2ff9","5f6380873c299a069075","false","null","<div style=""align-items: center; display: flex; color: darkorange; font-size: 90px""><b>ø</b></div>","null","","","","forget_cue","","","","","","","","","","","","","","","",""
"html-keyboard-response","232","581788","0.0-4.0-1.0-0.37","3gpfppyz5w6lkwk","prime","5f56056a645a6e9dba848fa2","5f60e3c0a3b16e07647b2ff9","5f6380873c299a069075","false","null","<span style=""color: black; font-size: 48px"">M + N</span>","null","","","","resp_prompt","","","","","","","","","","","","","","","",""
"categorize-image","233","582635","0.0-4.0-1.0-1.37","3gpfppyz5w6lkwk","prime","5f56056a645a6e9dba848fa2","5f60e3c0a3b16e07647b2ff9","5f6380873c299a069075","true","829.5449998695403","./Stimuli/SelectedImages/SN/SN181.bmp","76","","","","test","true","M + N","76","switch","SN","SN181.bmp","forget","","86","3","prime1","right","","","",""
"html-keyboard-response","234","584652","0.0-4.0-1.0-3.37","3gpfppyz5w6lkwk","prime","5f56056a645a6e9dba848fa2","5f60e3c0a3b16e07647b2ff9","5f6380873c299a069075","false","null","<div style=""align-items: center; display: flex; color: darkorange; font-size: 90px""><b>ø</b></div>","null","","","","forget_cue","","","","","","","","","","","","","","","",""
"html-keyboard-response","235","585370","0.0-4.0-1.0-0.38","3gpfppyz5w6lkwk","prime","5f56056a645a6e9dba848fa2","5f60e3c0a3b16e07647b2ff9","5f6380873c299a069075","false","null","<span style=""color: black; font-size: 48px"">N + M</span>","null","","","","resp_prompt","","","","","","","","","","","","","","","",""
"categorize-image","236","586201","0.0-4.0-1.0-1.38","3gpfppyz5w6lkwk","prime","5f56056a645a6e9dba848fa2","5f60e3c0a3b16e07647b2ff9","5f6380873c299a069075","true","806.0349998995662","./Stimuli/SelectedImages/LM/LM157.bmp","76","","","","test","true","N + M","76","repetition","LM","LM157.bmp","remember","","87","3","prime1","right","","","",""
"html-keyboard-response","237","588219","0.0-4.0-1.0-3.38","3gpfppyz5w6lkwk","prime","5f56056a645a6e9dba848fa2","5f60e3c0a3b16e07647b2ff9","5f6380873c299a069075","false","null","<div style=""align-items: center; display: flex; color: dodgerblue; font-size: 90px""><b>o</b></div>","null","","","","forget_cue","","","","","","","","","","","","","","","",""
"html-keyboard-response","238","588938","0.0-4.0-1.0-0.39","3gpfppyz5w6lkwk","prime","5f56056a645a6e9dba848fa2","5f60e3c0a3b16e07647b2ff9","5f6380873c299a069075","false","null","<span style=""color: black; font-size: 48px"">N + M</span>","null","","","","resp_prompt","","","","","","","","","","","","","","","",""
"categorize-image","239","590124","0.0-4.0-1.0-1.39","3gpfppyz5w6lkwk","prime","5f56056a645a6e9dba848fa2","5f60e3c0a3b16e07647b2ff9","5f6380873c299a069075","true","1144.5150000508875","./Stimuli/SelectedImages/SM/SM148.bmp","76","","","","test","true","N + M","76","repetition","SM","SM148.bmp","forget","","88","3","prime1","right","","","",""
"html-keyboard-response","240","592136","0.0-4.0-1.0-3.39","3gpfppyz5w6lkwk","prime","5f56056a645a6e9dba848fa2","5f60e3c0a3b16e07647b2ff9","5f6380873c299a069075","false","null","<div style=""align-items: center; display: flex; color: darkorange; font-size: 90px""><b>ø</b></div>","null","","","","forget_cue","","","","","","","","","","","","","","","",""
"html-keyboard-response","241","592854","0.0-4.0-1.0-0.40","3gpfppyz5w6lkwk","prime","5f56056a645a6e9dba848fa2","5f60e3c0a3b16e07647b2ff9","5f6380873c299a069075","false","null","<span style=""color: black; font-size: 48px"">N + M</span>","null","","","","resp_prompt","","","","","","","","","","","","","","","",""
"categorize-image","242","593767","0.0-4.0-1.0-1.40","3gpfppyz5w6lkwk","prime","5f56056a645a6e9dba848fa2","5f60e3c0a3b16e07647b2ff9","5f6380873c299a069075","true","877.0349998958409","./Stimuli/SelectedImages/LM/LM216.bmp","76","","","","test","true","N + M","76","repetition","LM","LM216.bmp","remember","","89","3","prime1","right","","","",""
"html-keyboard-response","243","595780","0.0-4.0-1.0-3.40","3gpfppyz5w6lkwk","prime","5f56056a645a6e9dba848fa2","5f60e3c0a3b16e07647b2ff9","5f6380873c299a069075","false","null","<div style=""align-items: center; display: flex; color: dodgerblue; font-size: 90px""><b>o</b></div>","null","","","","forget_cue","","","","","","","","","","","","","","","",""
"html-keyboard-response","244","596499","0.0-4.0-1.0-0.41","3gpfppyz5w6lkwk","prime","5f56056a645a6e9dba848fa2","5f60e3c0a3b16e07647b2ff9","5f6380873c299a069075","false","null","<span style=""color: black; font-size: 48px"">N + M</span>","null","","","","resp_prompt","","","","","","","","","","","","","","","",""
"categorize-image","245","597497","0.0-4.0-1.0-1.41","3gpfppyz5w6lkwk","prime","5f56056a645a6e9dba848fa2","5f60e3c0a3b16e07647b2ff9","5f6380873c299a069075","true","973.2099999673665","./Stimuli/SelectedImages/LM/LM58.bmp","76","","","","test","true","N + M","76","switch","LM","LM58.bmp","remember","","90","3","prime1","right","","","",""
"html-keyboard-response","246","599512","0.0-4.0-1.0-3.41","3gpfppyz5w6lkwk","prime","5f56056a645a6e9dba848fa2","5f60e3c0a3b16e07647b2ff9","5f6380873c299a069075","false","null","<div style=""align-items: center; display: flex; color: dodgerblue; font-size: 90px""><b>o</b></div>","null","","","","forget_cue","","","","","","","","","","","","","","","",""
"html-keyboard-response","247","600229","0.0-4.0-1.0-0.42","3gpfppyz5w6lkwk","prime","5f56056a645a6e9dba848fa2","5f60e3c0a3b16e07647b2ff9","5f6380873c299a069075","false","null","<span style=""color: black; font-size: 48px"">M + N</span>","null","","","","resp_prompt","","","","","","","","","","","","","","","",""
"categorize-image","248","601429","0.0-4.0-1.0-1.42","3gpfppyz5w6lkwk","prime","5f56056a645a6e9dba848fa2","5f60e3c0a3b16e07647b2ff9","5f6380873c299a069075","true","1176.9599998369813","./Stimuli/SelectedImages/LM/LM150.bmp","83","","","","test","true","M + N","83","switch","LM","LM150.bmp","remember","","91","3","prime1","left","","","",""
"html-keyboard-response","249","603445","0.0-4.0-1.0-3.42","3gpfppyz5w6lkwk","prime","5f56056a645a6e9dba848fa2","5f60e3c0a3b16e07647b2ff9","5f6380873c299a069075","false","null","<div style=""align-items: center; display: flex; color: dodgerblue; font-size: 90px""><b>o</b></div>","null","","","","forget_cue","","","","","","","","","","","","","","","",""
"html-keyboard-response","250","604168","0.0-4.0-1.0-0.43","3gpfppyz5w6lkwk","prime","5f56056a645a6e9dba848fa2","5f60e3c0a3b16e07647b2ff9","5f6380873c299a069075","false","null","<span style=""color: black; font-size: 48px"">N + M</span>","null","","","","resp_prompt","","","","","","","","","","","","","","","",""
"categorize-image","251","605116","0.0-4.0-1.0-1.43","3gpfppyz5w6lkwk","prime","5f56056a645a6e9dba848fa2","5f60e3c0a3b16e07647b2ff9","5f6380873c299a069075","true","919.2950001452118","./Stimuli/SelectedImages/SN/SN64.bmp","83","","","","test","true","N + M","83","switch","SN","SN64.bmp","forget","","92","3","prime1","left","","","",""
"html-keyboard-response","252","607141","0.0-4.0-1.0-3.43","3gpfppyz5w6lkwk","prime","5f56056a645a6e9dba848fa2","5f60e3c0a3b16e07647b2ff9","5f6380873c299a069075","false","null","<div style=""align-items: center; display: flex; color: darkorange; font-size: 90px""><b>ø</b></div>","null","","","","forget_cue","","","","","","","","","","","","","","","",""
"html-keyboard-response","253","607848","0.0-4.0-1.0-0.44","3gpfppyz5w6lkwk","prime","5f56056a645a6e9dba848fa2","5f60e3c0a3b16e07647b2ff9","5f6380873c299a069075","false","null","<span style=""color: black; font-size: 48px"">M + N</span>","null","","","","resp_prompt","","","","","","","","","","","","","","","",""
"categorize-image","254","608946","0.0-4.0-1.0-1.44","3gpfppyz5w6lkwk","prime","5f56056a645a6e9dba848fa2","5f60e3c0a3b16e07647b2ff9","5f6380873c299a069075","true","1057.5850000604987","./Stimuli/SelectedImages/SM/SM76.bmp","83","","","","test","true","M + N","83","repetition","SM","SM76.bmp","remember","","93","3","prime1","left","","","",""
"html-keyboard-response","255","610960","0.0-4.0-1.0-3.44","3gpfppyz5w6lkwk","prime","5f56056a645a6e9dba848fa2","5f60e3c0a3b16e07647b2ff9","5f6380873c299a069075","false","null","<div style=""align-items: center; display: flex; color: dodgerblue; font-size: 90px""><b>o</b></div>","null","","","","forget_cue","","","","","","","","","","","","","","","",""
