"trial_type","trial_index","time_elapsed","internal_node_id","subject","exp_part","prolific_PID","study_ID","session_ID","use","rt","stimulus","key_press","button_pressed","responses","question_order","trial_part","correct","resp_map","correct_resp","probe_condition","category","image","forget_condition","list","trial_num","block_num","block","response","test_part","n_span","sequence","num_spaces"
"pavlovia","0","1","0.0-0.0","s7r6fra6gnr0vwh","","5f3d5e296531630e53fb4a5a","5f60e3c0a3b16e07647b2ff9","5f60ef608178dc01b91aafde","false","","","","","","","","","","","","","","","","","","","","","","",""
"html-keyboard-response","1","1829","0.0-1.0-0.0-0.0","s7r6fra6gnr0vwh","welcome","5f3d5e296531630e53fb4a5a","5f60e3c0a3b16e07647b2ff9","5f60ef608178dc01b91aafde","false","1826.8599999992148","<div align=left>Dear participant, <br> thank you for participating in an online study of the Cognition, Action, and Sustainability Unit of the University of Freiburg! <br> <br>The aim of this study is to examine our ability to remember previously learned information. <br>Our goal is to find out, whether our memory improves, when we only remember information that is relevant to us. <br>The experiment will take about 35 minutes to complete. <br> <br>Please, note that you can only participate in this study if you are using a device with a keyboard (PC, Laptop etc.) <br>and not if you are using a mobile device such as a tablet or smartphone.<br> <br>Press 'SPACE' to proceed to the experiment. </div>","32","","","","","","","","","","","","","","","","","","","",""
"html-keyboard-response","2","2437","0.0-1.0-0.0-1.0","s7r6fra6gnr0vwh","welcome","5f3d5e296531630e53fb4a5a","5f60e3c0a3b16e07647b2ff9","5f60ef608178dc01b91aafde","false","607.2100000001228","<div align=left><strong> Time Course of this experiment: </strong> <br><br> <strong> 1.</strong>  First, please fill in some information regarding your demographic data. <br><br> <strong> 2.</strong>  Next, your task will be to classify everyday objects. <br>In addition, you will be asked to remember certain objects and recall them later. <br>Working on these tasks requires your undivided attention and concentration.<br>It is therefore essential that you eliminate any sources of distraction in your  <br>environment and ensure that you will not be disturbed. <br><br><strong> 3.</strong>  At the end of the experiment, you will be asked to answer a few additional questions. <br> <br><strong> Important:</strong> After finishing the experiment, only close the browser window <br> by clicking on the 'end the experiment'-button when you are asked to do so. <br>Closing the browser window prematurely will make the allocation of your participation credit impossible. <br><br> Press 'SPACE' to start the experiment. </div>","32","","","","","","","","","","","","","","","","","","","",""
"html-button-response","3","3591","0.0-1.0-0.0-2.0","s7r6fra6gnr0vwh","welcome","5f3d5e296531630e53fb4a5a","5f60e3c0a3b16e07647b2ff9","5f60ef608178dc01b91aafde","true","1153.6599999999453","<div align=left><strong> Informed consent </strong>  <br>The aim of our research is to better understand human behavior and mental processes. <br>In the following study your behavior (e.g. choices, reaction times) will be studied. <br> <br><strong> Voluntariness and Anonymity </strong> <br>Your participation in this study is  <strong> voluntary</strong>.<br>You may withdraw your consent to participate at any time without providing a reason for doing so and without fear of prejudice. <br><br>As no personal data will be collected, <strong>your data and your person cannot be connected after data collection</strong> – the data-set is anonymous. <br>Respectively, deletion of your data will not be possible after data collection has been completed, as we cannot retrace your data-set.<br>The results and anonymized data collected in this study will be published as a scientific publication. <br>This will happen in an <strong>anonymized format</strong>, so that no data can be traced back to a specific person. <br> <br>The anonymized data of this study will be made available to other researchers and/or in a data archive on the Internet as a means of transparency and to enable subsequent re-use. By doing so, this study follows the recommendations of the Deutsche Forschungsgemeinschaft (DFG, German Research Foundation) and Deutsche Gesellschaft für Psychologie (DGPS, German Psychological Society) regarding quality assurance in research.<br>If you have any questions now or after the experiment, please contact our team (experiments@cs.uni-freiburg.de).<br><br><br>I hereby declare, that I understand the above described conditions of participation and I agree to participate under these conditions. <br><br> </div>","","0","","","","","","","","","","","","","","","","","","",""
"html-keyboard-response","4","4365","0.0-1.0-0.0-3.0","s7r6fra6gnr0vwh","welcome","5f3d5e296531630e53fb4a5a","5f60e3c0a3b16e07647b2ff9","5f60ef608178dc01b91aafde","false","772.8750000005675","<div align=left><strong> General information concerning the experiment </strong>  <br> <br>Please follow the instructions:<ol> <li><strong> Do not leave this tab (your browser window) during the experiment and do not reload this tab! </strong>  <br>If you do switch tabs/windows during the experiment (to check your mail or visit another website, for example), <br>the experiment will end automatically and you will <strong>not receive credit</strong> for your participation. <br>Repeated participation or resumption of the experiment is impossible.</li> <br><li>Please close all other programs for the duration of your participation. </li> <br><li>Please mute or turn off your phone and put it out of your reach. </li> <br><li>Please also take off any disturbing accessories (such as wristwatches, bracelets, etc.). </li> <br><li>If you have music playing in the background, please turn it off now. </li> <br></ol>Thank you! <br>Press 'SPACE' to continue. </div>","32","","","","","","","","","","","","","","","","","","","",""
"survey-text","5","6280","0.0-1.0-1.0-0.0","s7r6fra6gnr0vwh","demographics","5f3d5e296531630e53fb4a5a","5f60e3c0a3b16e07647b2ff9","5f60ef608178dc01b91aafde","true","1913.3600000004662","","","","{""age"":""22""}","","","","","","","","","","","","","","","","","",""
"survey-multi-choice","6","15674","0.0-1.0-1.0-1.0","s7r6fra6gnr0vwh","demographics","5f3d5e296531630e53fb4a5a","5f60e3c0a3b16e07647b2ff9","5f60ef608178dc01b91aafde","true","9393.159999999625","","","","{""gender"":""male"",""school"":""high school"",""education"":""Still in training/ university""}","[0,1,2]","","","","","","","","","","","","","","","","",""
"survey-text","7","21435","0.0-1.0-1.0-2.0-0.0","s7r6fra6gnr0vwh","demographics","5f3d5e296531630e53fb4a5a","5f60e3c0a3b16e07647b2ff9","5f60ef608178dc01b91aafde","true","5757.939999999508","","","","{""education_text"":""electrical installtion""}","","","","","","","","","","","","","","","","","",""
"html-keyboard-response","8","22973","0.0-1.0-2.0","s7r6fra6gnr0vwh","instructions","5f3d5e296531630e53fb4a5a","5f60e3c0a3b16e07647b2ff9","5f60ef608178dc01b91aafde","false","1537.2599999991508","<div align=left> The experiment is now about to start: <br> <br>In the following part, you will be presented pictures of everyday objects. <br>Your first task is to <strong>classify these objects. </strong> <br> <br> You will classify them either as mechanical or non-mechanical objects. <br> <br>Objects that include any kind of technical mechanism (for example, wheels, switches, levers, <br> electronic components) fall under the category of <strong>mechanical</strong> objects. <br>Only objects without any kind of technical mechanism should be classified as <strong>non-mechanical</strong>. <br><br>Press 'SPACE' to continue. </div>","32","","","","","","","","","","","","","","","","","","","",""
"html-keyboard-response","9","24421","0.0-2.0-0.0","s7r6fra6gnr0vwh","instructions","5f3d5e296531630e53fb4a5a","5f60e3c0a3b16e07647b2ff9","5f60ef608178dc01b91aafde","false","1447.58499999989","<div align=justify>You will classify the objects using the <strong>'S'</strong> and the <strong>'L'</strong> keys on your keyboard.<br>For doing so, please place your <strong>left index finger</strong> on the <strong>'S'</strong> key and place your <strong>right index finger</strong> on the <strong>'L'</strong> key. <br><br> Each trial starts with an instruction, indicating which key ('S'/'L') you need to press to classify <br>the object as mechanical (letter M) or non-mechanical (letter N).<br>The instruction <strong>M + N</strong> indicates that, in the current trial, by pressing the left key ('S') you classify the displayed object as mechanical (M) <br> and by pressing the right key ('L') you classify the object as non-mechanical (N). <br>The instruction <strong>N + M</strong> on the other hand indicates that by pressing the left key ('S') you classify the displayed object as non-mechanical (N) <br> and by pressing the right key ('L') you classify the object as mechanical (M). <br><br>Please press the key corresponding to the correct classification as fast as possible as soon as the object is displayed and try to avoid making mistakes.<br>If you do not respond within a 2 second window, a corresponding feedback will be displayed and the next trial will start.<br> The experiment is divided into multiple blocks to give you the opportunity to take a break after each block. <br>First, you can now practice this task. <br><br>Please place your <strong>LEFT INDEX FINGER</strong> on the 'S' key and your <strong>RIGHT INDEX FINGER</strong> on the 'L' key now. <br><br>Press SPACE to continue.</div>","32","","","","","","","","","","","","","","","","","","","",""
"html-keyboard-response","10","29149","0.0-2.0-1.0","s7r6fra6gnr0vwh","instructions","5f3d5e296531630e53fb4a5a","5f60e3c0a3b16e07647b2ff9","5f60ef608178dc01b91aafde","false","4727.580000000671","<div align=left> You will now have time to practice this task.<br><br>Remember: <br> <br><li>Please place your index fingers on the <strong>'S'</strong> and <strong>'L'</strong> keys <br>to respond as fast and accurately as possible.</li><li>Every picture can be classified as either mechanical or non-mechanical.</li><li>If you do not respond in time or commit an error, you will receive a corresponding feedback. </li><li> Please try to respond as <strong> fast </strong> and as <strong> accurately as possible </strong> .<br><li>To ensure optimal results, please minimize distractions and stay focused. </li><br><br>Press SPACE to continue.</div>","32","","","","","","","","","","","","","","","","","","","",""
"html-keyboard-response","11","29854","0.0-2.0-2.0-0.0","s7r6fra6gnr0vwh","practice_no_cue","5f3d5e296531630e53fb4a5a","5f60e3c0a3b16e07647b2ff9","5f60ef608178dc01b91aafde","false","null","<span style=""color: black; font-size: 48px"">M + N</span>","null","","","","resp_prompt","","","","","","","","","","","","","","","",""
"categorize-image","12","31771","0.0-2.0-2.0-1.0","s7r6fra6gnr0vwh","practice_no_cue","5f3d5e296531630e53fb4a5a","5f60e3c0a3b16e07647b2ff9","5f60ef608178dc01b91aafde","true","1406.1349999992672","./Stimuli/ImagesPractice/SM98.jpg","83","","","","test","true","M + N","83","","SM","SM98.jpg","forget","old","1","1","start","left","","","",""
"html-keyboard-response","13","32482","0.0-2.0-2.0-0.1","s7r6fra6gnr0vwh","practice_no_cue","5f3d5e296531630e53fb4a5a","5f60e3c0a3b16e07647b2ff9","5f60ef608178dc01b91aafde","false","null","<span style=""color: black; font-size: 48px"">N + M</span>","null","","","","resp_prompt","","","","","","","","","","","","","","","",""
"categorize-image","14","33909","0.0-2.0-2.0-1.1","s7r6fra6gnr0vwh","practice_no_cue","5f3d5e296531630e53fb4a5a","5f60e3c0a3b16e07647b2ff9","5f60ef608178dc01b91aafde","true","922.0800000002782","./Stimuli/ImagesPractice/SM35.jpg","83","","","","test","false","N + M","76","","SM","SM35.jpg","remember","old","2","1","start","left","","","",""
"html-keyboard-response","15","34622","0.0-2.0-2.0-0.2","s7r6fra6gnr0vwh","practice_no_cue","5f3d5e296531630e53fb4a5a","5f60e3c0a3b16e07647b2ff9","5f60ef608178dc01b91aafde","false","null","<span style=""color: black; font-size: 48px"">M + N</span>","null","","","","resp_prompt","","","","","","","","","","","","","","","",""
"categorize-image","16","35681","0.0-2.0-2.0-1.2","s7r6fra6gnr0vwh","practice_no_cue","5f3d5e296531630e53fb4a5a","5f60e3c0a3b16e07647b2ff9","5f60ef608178dc01b91aafde","true","549.8250000000553","./Stimuli/ImagesPractice/LM55.jpg","83","","","","test","true","M + N","83","","LM","LM55.jpg","remember","old","3","1","start","left","","","",""
"html-keyboard-response","17","36394","0.0-2.0-2.0-0.3","s7r6fra6gnr0vwh","practice_no_cue","5f3d5e296531630e53fb4a5a","5f60e3c0a3b16e07647b2ff9","5f60ef608178dc01b91aafde","false","null","<span style=""color: black; font-size: 48px"">N + M</span>","null","","","","resp_prompt","","","","","","","","","","","","","","","",""
"categorize-image","18","37416","0.0-2.0-2.0-1.3","s7r6fra6gnr0vwh","practice_no_cue","5f3d5e296531630e53fb4a5a","5f60e3c0a3b16e07647b2ff9","5f60ef608178dc01b91aafde","true","518.5650000003079","./Stimuli/ImagesPractice/SN222.jpg","76","","","","test","false","N + M","83","","SN","SN222.jpg","remember","old","4","1","start","right","","","",""
"html-keyboard-response","19","38130","0.0-2.0-2.0-0.4","s7r6fra6gnr0vwh","practice_no_cue","5f3d5e296531630e53fb4a5a","5f60e3c0a3b16e07647b2ff9","5f60ef608178dc01b91aafde","false","null","<span style=""color: black; font-size: 48px"">N + M</span>","null","","","","resp_prompt","","","","","","","","","","","","","","","",""
"categorize-image","20","39398","0.0-2.0-2.0-1.4","s7r6fra6gnr0vwh","practice_no_cue","5f3d5e296531630e53fb4a5a","5f60e3c0a3b16e07647b2ff9","5f60ef608178dc01b91aafde","true","754.2200000007142","./Stimuli/ImagesPractice/SM37.jpg","83","","","","test","false","N + M","76","","SM","SM37.jpg","remember","old","5","1","start","left","","","",""
"html-keyboard-response","21","40111","0.0-2.0-2.0-0.5","s7r6fra6gnr0vwh","practice_no_cue","5f3d5e296531630e53fb4a5a","5f60e3c0a3b16e07647b2ff9","5f60ef608178dc01b91aafde","false","null","<span style=""color: black; font-size: 48px"">M + N</span>","null","","","","resp_prompt","","","","","","","","","","","","","","","",""
"categorize-image","22","41361","0.0-2.0-2.0-1.5","s7r6fra6gnr0vwh","practice_no_cue","5f3d5e296531630e53fb4a5a","5f60e3c0a3b16e07647b2ff9","5f60ef608178dc01b91aafde","true","745.4699999998411","./Stimuli/ImagesPractice/LN109.jpg","83","","","","test","false","M + N","76","","LN","LN109.jpg","forget","old","6","1","start","left","","","",""
"html-keyboard-response","23","42076","0.0-2.0-2.0-0.6","s7r6fra6gnr0vwh","practice_no_cue","5f3d5e296531630e53fb4a5a","5f60e3c0a3b16e07647b2ff9","5f60ef608178dc01b91aafde","false","null","<span style=""color: black; font-size: 48px"">M + N</span>","null","","","","resp_prompt","","","","","","","","","","","","","","","",""
"categorize-image","24","43182","0.0-2.0-2.0-1.6","s7r6fra6gnr0vwh","practice_no_cue","5f3d5e296531630e53fb4a5a","5f60e3c0a3b16e07647b2ff9","5f60ef608178dc01b91aafde","true","600.1000000014756","./Stimuli/ImagesPractice/LN15.jpg","76","","","","test","true","M + N","76","","LN","LN15.jpg","remember","old","7","1","start","right","","","",""
"html-keyboard-response","25","43897","0.0-2.0-2.0-0.7","s7r6fra6gnr0vwh","practice_no_cue","5f3d5e296531630e53fb4a5a","5f60e3c0a3b16e07647b2ff9","5f60ef608178dc01b91aafde","false","null","<span style=""color: black; font-size: 48px"">M + N</span>","null","","","","resp_prompt","","","","","","","","","","","","","","","",""
"categorize-image","26","45000","0.0-2.0-2.0-1.7","s7r6fra6gnr0vwh","practice_no_cue","5f3d5e296531630e53fb4a5a","5f60e3c0a3b16e07647b2ff9","5f60ef608178dc01b91aafde","true","587.6250000001164","./Stimuli/ImagesPractice/LN17.jpg","76","","","","test","true","M + N","76","","LN","LN17.jpg","remember","old","8","1","start","right","","","",""
"html-keyboard-response","27","45711","0.0-2.0-2.0-0.8","s7r6fra6gnr0vwh","practice_no_cue","5f3d5e296531630e53fb4a5a","5f60e3c0a3b16e07647b2ff9","5f60ef608178dc01b91aafde","false","null","<span style=""color: black; font-size: 48px"">N + M</span>","null","","","","resp_prompt","","","","","","","","","","","","","","","",""
"categorize-image","28","47040","0.0-2.0-2.0-1.8","s7r6fra6gnr0vwh","practice_no_cue","5f3d5e296531630e53fb4a5a","5f60e3c0a3b16e07647b2ff9","5f60ef608178dc01b91aafde","true","817.4900000012713","./Stimuli/ImagesPractice/SM61.jpg","76","","","","test","true","N + M","76","","SM","SM61.jpg","forget","old","9","1","start","right","","","",""
"html-keyboard-response","29","47750","0.0-2.0-2.0-0.9","s7r6fra6gnr0vwh","practice_no_cue","5f3d5e296531630e53fb4a5a","5f60e3c0a3b16e07647b2ff9","5f60ef608178dc01b91aafde","false","null","<span style=""color: black; font-size: 48px"">N + M</span>","null","","","","resp_prompt","","","","","","","","","","","","","","","",""
"categorize-image","30","48900","0.0-2.0-2.0-1.9","s7r6fra6gnr0vwh","practice_no_cue","5f3d5e296531630e53fb4a5a","5f60e3c0a3b16e07647b2ff9","5f60ef608178dc01b91aafde","true","645.9700000013981","./Stimuli/ImagesPractice/SN220.jpg","83","","","","test","true","N + M","83","","SN","SN220.jpg","forget","old","10","1","start","left","","","",""
"html-keyboard-response","31","49608","0.0-2.0-2.0-0.10","s7r6fra6gnr0vwh","practice_no_cue","5f3d5e296531630e53fb4a5a","5f60e3c0a3b16e07647b2ff9","5f60ef608178dc01b91aafde","false","null","<span style=""color: black; font-size: 48px"">M + N</span>","null","","","","resp_prompt","","","","","","","","","","","","","","","",""
"categorize-image","32","50822","0.0-2.0-2.0-1.10","s7r6fra6gnr0vwh","practice_no_cue","5f3d5e296531630e53fb4a5a","5f60e3c0a3b16e07647b2ff9","5f60ef608178dc01b91aafde","true","699.9049999994895","./Stimuli/ImagesPractice/SM97.jpg","83","","","","test","true","M + N","83","","SM","SM97.jpg","forget","old","11","1","start","left","","","",""
"html-keyboard-response","33","51534","0.0-2.0-2.0-0.11","s7r6fra6gnr0vwh","practice_no_cue","5f3d5e296531630e53fb4a5a","5f60e3c0a3b16e07647b2ff9","5f60ef608178dc01b91aafde","false","null","<span style=""color: black; font-size: 48px"">N + M</span>","null","","","","resp_prompt","","","","","","","","","","","","","","","",""
"categorize-image","34","52708","0.0-2.0-2.0-1.11","s7r6fra6gnr0vwh","practice_no_cue","5f3d5e296531630e53fb4a5a","5f60e3c0a3b16e07647b2ff9","5f60ef608178dc01b91aafde","true","670.0949999994918","./Stimuli/ImagesPractice/LM147.jpg","76","","","","test","true","N + M","76","","LM","LM147.jpg","remember","old","12","1","start","right","","","",""
"html-keyboard-response","35","53420","0.0-2.0-2.0-0.12","s7r6fra6gnr0vwh","practice_no_cue","5f3d5e296531630e53fb4a5a","5f60e3c0a3b16e07647b2ff9","5f60ef608178dc01b91aafde","false","null","<span style=""color: black; font-size: 48px"">M + N</span>","null","","","","resp_prompt","","","","","","","","","","","","","","","",""
"categorize-image","36","54709","0.0-2.0-2.0-1.12","s7r6fra6gnr0vwh","practice_no_cue","5f3d5e296531630e53fb4a5a","5f60e3c0a3b16e07647b2ff9","5f60ef608178dc01b91aafde","true","780.3949999997712","./Stimuli/ImagesPractice/SN76.jpg","76","","","","test","true","M + N","76","","SN","SN76.jpg","forget","old","13","1","start","right","","","",""
"html-keyboard-response","37","55419","0.0-2.0-2.0-0.13","s7r6fra6gnr0vwh","practice_no_cue","5f3d5e296531630e53fb4a5a","5f60e3c0a3b16e07647b2ff9","5f60ef608178dc01b91aafde","false","null","<span style=""color: black; font-size: 48px"">N + M</span>","null","","","","resp_prompt","","","","","","","","","","","","","","","",""
"categorize-image","38","56546","0.0-2.0-2.0-1.13","s7r6fra6gnr0vwh","practice_no_cue","5f3d5e296531630e53fb4a5a","5f60e3c0a3b16e07647b2ff9","5f60ef608178dc01b91aafde","true","613.4400000009919","./Stimuli/ImagesPractice/SN205.jpg","83","","","","test","true","N + M","83","","SN","SN205.jpg","forget","old","14","1","start","left","","","",""
"html-keyboard-response","39","57257","0.0-2.0-2.0-0.14","s7r6fra6gnr0vwh","practice_no_cue","5f3d5e296531630e53fb4a5a","5f60e3c0a3b16e07647b2ff9","5f60ef608178dc01b91aafde","false","null","<span style=""color: black; font-size: 48px"">M + N</span>","null","","","","resp_prompt","","","","","","","","","","","","","","","",""
"categorize-image","40","59607","0.0-2.0-2.0-1.14","s7r6fra6gnr0vwh","practice_no_cue","5f3d5e296531630e53fb4a5a","5f60e3c0a3b16e07647b2ff9","5f60ef608178dc01b91aafde","true","1847.364999999627","./Stimuli/ImagesPractice/LN2.jpg","76","","","","test","true","M + N","76","","LN","LN2.jpg","remember","old","15","1","start","right","","","",""
"html-keyboard-response","41","60321","0.0-2.0-2.0-0.15","s7r6fra6gnr0vwh","practice_no_cue","5f3d5e296531630e53fb4a5a","5f60e3c0a3b16e07647b2ff9","5f60ef608178dc01b91aafde","false","null","<span style=""color: black; font-size: 48px"">N + M</span>","null","","","","resp_prompt","","","","","","","","","","","","","","","",""
"categorize-image","42","61602","0.0-2.0-2.0-1.15","s7r6fra6gnr0vwh","practice_no_cue","5f3d5e296531630e53fb4a5a","5f60e3c0a3b16e07647b2ff9","5f60ef608178dc01b91aafde","true","767.5699999999779","./Stimuli/ImagesPractice/LM224.jpg","76","","","","test","true","N + M","76","","LM","LM224.jpg","forget","old","16","1","start","right","","","",""
"html-keyboard-response","43","90345","0.0-2.0-3.0","s7r6fra6gnr0vwh","break","5f3d5e296531630e53fb4a5a","5f60e3c0a3b16e07647b2ff9","5f60ef608178dc01b91aafde","false","28742.019999999684","<p style='font-size: 32px;'>Break</><br><br><br><br><br><p style='font-size: 24px;'>In the last block, you committed 4 errors and did not respond in time on 0 trials.
</p><p style='font-size: 24px;'>Try to respond as fast and accurately as possible in the next block as well! </p><p style='font-size: 24px;'>Press SPACE to continue.</p>","32","","","","","","","","","","","","","","","","","","","",""
"html-keyboard-response","44","92661","0.0-2.0-4.0","s7r6fra6gnr0vwh","instructions","5f3d5e296531630e53fb4a5a","5f60e3c0a3b16e07647b2ff9","5f60ef608178dc01b91aafde","false","2315.1399999987916","<div align=left> Great!<br><br>Are you ready to continue?<br><br>If you want to reread the instructions and redo the practice trials, <br>please press „Z“. <br><br>Press SPACE to CONTINUE with the experiment when you are ready. </div>","32","","","","","","","","","","","","","","","","","","","",""
"html-keyboard-response","45","93493","0.0-3.0-0.0","s7r6fra6gnr0vwh","instructions","5f3d5e296531630e53fb4a5a","5f60e3c0a3b16e07647b2ff9","5f60ef608178dc01b91aafde","false","831.4250000003085","<div align=left>Great!<br> <strong>Attention</strong>! You will now receive a second, additional task! <br><br>To this point it was you <strong>first task</strong> to correctly <strong>classify objects</strong>. <br><br>As mentioned in the beginning, we aim to examine how well humans can remember previously learned information.<br>We would like to find out whether our memory improves if we only remember information that is relevant to us. <br><br>Therefore, your <strong>second task</strong> will be to <strong>remember</strong> the pictures you are to categorize. <br> After the learning phase, there will be a memory test phase, in which you will be asked to indicate whether you have seen a picture before or not. <br>Some, but not all pictures shown in the learning phase will appear in the memory test phase.<br>After classifying a picture, you will be told whether you should remember it for the memory test phase or not. <br>Thus, some pictures can be forgotten, whereas others have to be remembered. <br><br>Note: From now on, feedback will only be displayed if you responded incorrectly or not in time.<br><br>Press SPACE to continue.</div>","32","","","","","","","","","","","","","","","","","","","",""
"html-keyboard-response","46","94541","0.0-3.0-1.0","s7r6fra6gnr0vwh","instructions","5f3d5e296531630e53fb4a5a","5f60e3c0a3b16e07647b2ff9","5f60ef608178dc01b91aafde","false","1047.6699999999255","<div align=left>In the following part, you will thus have to remember only some pictures. <br>Immediately after seeing and classifying the picture, a symbol will be displayed, indicating whether you should remember or forget the previous picture. <br><br>A <span style='color: dodgerblue; font-size: 28px'>O</span> indicates REMEMBER. That means, you have to remember this picture, because it will be tested later. <br><br>A <span style='color: darkorange; font-size:28px'>Ø</span> indicates FORGET. You do not have to remember this picture. <br><br> As you will have to remember a lot of pictures, it will be hard for you to remember all of them. <br>It will put you at an advantage if you instantly forget the pictures you are not asked to remember. <br> This will make it easier for you to remember the pictures that will be tested afterwards. <br><br>Press SPACE to continue.</div>","32","","","","","","","","","","","","","","","","","","","",""
"html-keyboard-response","47","95197","0.0-3.0-2.0","s7r6fra6gnr0vwh","instructions","5f3d5e296531630e53fb4a5a","5f60e3c0a3b16e07647b2ff9","5f60ef608178dc01b91aafde","false","655.6449999989127","<div align=left> Now you have the chance to practice both tasks together.<br><br>Remember: <br> <br><li>Please place your index fingers on the <strong>'S'</strong> and <strong>'L'</strong> keys <br>to respond as fast and accurately as possible.</li><li>Every picture can be classified as either mechanical or non-mechanical.</li><li>If you do not respond in time or commit an error, you will receive a corresponding feedback. <br>Please try to respond as <strong> fast </strong> and as <strong> accurately as possible </strong>.</li><li> Please remember only the to-be-remembered <span style='color: dodgerblue; font-size: 28px'>O</span> pictures. <br></li><li> Please minimize distractions and stay focused. </li><br><br>Press SPACE to START</div>","32","","","","","","","","","","","","","","","","","","","",""
"html-keyboard-response","48","95907","0.0-3.0-3.0-0.0","s7r6fra6gnr0vwh","practice_cue","5f3d5e296531630e53fb4a5a","5f60e3c0a3b16e07647b2ff9","5f60ef608178dc01b91aafde","false","null","<span style=""color: black; font-size: 48px"">M + N</span>","null","","","","resp_prompt","","","","","","","","","","","","","","","",""
"categorize-image","49","96491","0.0-3.0-3.0-1.0","s7r6fra6gnr0vwh","practice_cue","5f3d5e296531630e53fb4a5a","5f60e3c0a3b16e07647b2ff9","5f60ef608178dc01b91aafde","true","581.6749999994499","./Stimuli/ImagesPractice/LN2.jpg","76","","","","test","true","M + N","76","","LN","LN2.jpg","remember","old","17","2","practice_forget","right","","","",""
"html-keyboard-response","50","98501","0.0-3.0-3.0-3.0","s7r6fra6gnr0vwh","practice_cue","5f3d5e296531630e53fb4a5a","5f60e3c0a3b16e07647b2ff9","5f60ef608178dc01b91aafde","false","null","<div style=""align-items: center; display: flex; color: dodgerblue; font-size: 90px""><b>o</b></div>","null","","","","forget_cue","","","","","","","","","","","","","","","",""
"html-keyboard-response","51","99213","0.0-3.0-3.0-0.1","s7r6fra6gnr0vwh","practice_cue","5f3d5e296531630e53fb4a5a","5f60e3c0a3b16e07647b2ff9","5f60ef608178dc01b91aafde","false","null","<span style=""color: black; font-size: 48px"">M + N</span>","null","","","","resp_prompt","","","","","","","","","","","","","","","",""
"categorize-image","52","99871","0.0-3.0-3.0-1.1","s7r6fra6gnr0vwh","practice_cue","5f3d5e296531630e53fb4a5a","5f60e3c0a3b16e07647b2ff9","5f60ef608178dc01b91aafde","true","655.3999999996449","./Stimuli/ImagesPractice/LN109.jpg","76","","","","test","true","M + N","76","","LN","LN109.jpg","forget","old","18","2","practice_forget","right","","","",""
"html-keyboard-response","53","101887","0.0-3.0-3.0-3.1","s7r6fra6gnr0vwh","practice_cue","5f3d5e296531630e53fb4a5a","5f60e3c0a3b16e07647b2ff9","5f60ef608178dc01b91aafde","false","null","<div style=""align-items: center; display: flex; color: darkorange; font-size: 90px""><b>ø</b></div>","null","","","","forget_cue","","","","","","","","","","","","","","","",""
"html-keyboard-response","54","102597","0.0-3.0-3.0-0.2","s7r6fra6gnr0vwh","practice_cue","5f3d5e296531630e53fb4a5a","5f60e3c0a3b16e07647b2ff9","5f60ef608178dc01b91aafde","false","null","<span style=""color: black; font-size: 48px"">N + M</span>","null","","","","resp_prompt","","","","","","","","","","","","","","","",""
"categorize-image","55","103291","0.0-3.0-3.0-1.2","s7r6fra6gnr0vwh","practice_cue","5f3d5e296531630e53fb4a5a","5f60e3c0a3b16e07647b2ff9","5f60ef608178dc01b91aafde","true","691.7799999991985","./Stimuli/ImagesPractice/SN222.jpg","83","","","","test","true","N + M","83","","SN","SN222.jpg","remember","old","19","2","practice_forget","left","","","",""
"html-keyboard-response","56","105297","0.0-3.0-3.0-3.2","s7r6fra6gnr0vwh","practice_cue","5f3d5e296531630e53fb4a5a","5f60e3c0a3b16e07647b2ff9","5f60ef608178dc01b91aafde","false","null","<div style=""align-items: center; display: flex; color: dodgerblue; font-size: 90px""><b>o</b></div>","null","","","","forget_cue","","","","","","","","","","","","","","","",""
"html-keyboard-response","57","106006","0.0-3.0-3.0-0.3","s7r6fra6gnr0vwh","practice_cue","5f3d5e296531630e53fb4a5a","5f60e3c0a3b16e07647b2ff9","5f60ef608178dc01b91aafde","false","null","<span style=""color: black; font-size: 48px"">M + N</span>","null","","","","resp_prompt","","","","","","","","","","","","","","","",""
"categorize-image","58","106803","0.0-3.0-3.0-1.3","s7r6fra6gnr0vwh","practice_cue","5f3d5e296531630e53fb4a5a","5f60e3c0a3b16e07647b2ff9","5f60ef608178dc01b91aafde","true","794.739999999365","./Stimuli/ImagesPractice/LM55.jpg","83","","","","test","true","M + N","83","","LM","LM55.jpg","remember","old","20","2","practice_forget","left","","","",""
"html-keyboard-response","59","108805","0.0-3.0-3.0-3.3","s7r6fra6gnr0vwh","practice_cue","5f3d5e296531630e53fb4a5a","5f60e3c0a3b16e07647b2ff9","5f60ef608178dc01b91aafde","false","null","<div style=""align-items: center; display: flex; color: dodgerblue; font-size: 90px""><b>o</b></div>","null","","","","forget_cue","","","","","","","","","","","","","","","",""
"html-keyboard-response","60","109516","0.0-3.0-3.0-0.4","s7r6fra6gnr0vwh","practice_cue","5f3d5e296531630e53fb4a5a","5f60e3c0a3b16e07647b2ff9","5f60ef608178dc01b91aafde","false","null","<span style=""color: black; font-size: 48px"">N + M</span>","null","","","","resp_prompt","","","","","","","","","","","","","","","",""
"categorize-image","61","110267","0.0-3.0-3.0-1.4","s7r6fra6gnr0vwh","practice_cue","5f3d5e296531630e53fb4a5a","5f60e3c0a3b16e07647b2ff9","5f60ef608178dc01b91aafde","true","747.7799999996932","./Stimuli/ImagesPractice/LM147.jpg","76","","","","test","true","N + M","76","","LM","LM147.jpg","remember","old","21","2","practice_forget","right","","","",""
"html-keyboard-response","62","112283","0.0-3.0-3.0-3.4","s7r6fra6gnr0vwh","practice_cue","5f3d5e296531630e53fb4a5a","5f60e3c0a3b16e07647b2ff9","5f60ef608178dc01b91aafde","false","null","<div style=""align-items: center; display: flex; color: dodgerblue; font-size: 90px""><b>o</b></div>","null","","","","forget_cue","","","","","","","","","","","","","","","",""
"html-keyboard-response","63","112993","0.0-3.0-3.0-0.5","s7r6fra6gnr0vwh","practice_cue","5f3d5e296531630e53fb4a5a","5f60e3c0a3b16e07647b2ff9","5f60ef608178dc01b91aafde","false","null","<span style=""color: black; font-size: 48px"">N + M</span>","null","","","","resp_prompt","","","","","","","","","","","","","","","",""
"categorize-image","64","113523","0.0-3.0-3.0-1.5","s7r6fra6gnr0vwh","practice_cue","5f3d5e296531630e53fb4a5a","5f60e3c0a3b16e07647b2ff9","5f60ef608178dc01b91aafde","true","527.5699999983772","./Stimuli/ImagesPractice/SM35.jpg","83","","","","test","false","N + M","76","","SM","SM35.jpg","remember","old","22","2","practice_forget","left","","","",""
"html-keyboard-response","65","114024","0.0-3.0-3.0-2.5-0.5","s7r6fra6gnr0vwh","practice_cue","5f3d5e296531630e53fb4a5a","5f60e3c0a3b16e07647b2ff9","5f60ef608178dc01b91aafde","false","null","<span style=""color: red; font-size: 48px"">Error!</span>","null","","","","feedback","","","","","","","","","","","","","","","",""
"html-keyboard-response","66","116031","0.0-3.0-3.0-3.5","s7r6fra6gnr0vwh","practice_cue","5f3d5e296531630e53fb4a5a","5f60e3c0a3b16e07647b2ff9","5f60ef608178dc01b91aafde","false","null","<div style=""align-items: center; display: flex; color: dodgerblue; font-size: 90px""><b>o</b></div>","null","","","","forget_cue","","","","","","","","","","","","","","","",""
"html-keyboard-response","67","116741","0.0-3.0-3.0-0.6","s7r6fra6gnr0vwh","practice_cue","5f3d5e296531630e53fb4a5a","5f60e3c0a3b16e07647b2ff9","5f60ef608178dc01b91aafde","false","null","<span style=""color: black; font-size: 48px"">M + N</span>","null","","","","resp_prompt","","","","","","","","","","","","","","","",""
"categorize-image","68","117627","0.0-3.0-3.0-1.6","s7r6fra6gnr0vwh","practice_cue","5f3d5e296531630e53fb4a5a","5f60e3c0a3b16e07647b2ff9","5f60ef608178dc01b91aafde","true","883.3250000006956","./Stimuli/ImagesPractice/SM98.jpg","83","","","","test","true","M + N","83","","SM","SM98.jpg","forget","old","23","2","practice_forget","left","","","",""
"html-keyboard-response","69","119637","0.0-3.0-3.0-3.6","s7r6fra6gnr0vwh","practice_cue","5f3d5e296531630e53fb4a5a","5f60e3c0a3b16e07647b2ff9","5f60ef608178dc01b91aafde","false","null","<div style=""align-items: center; display: flex; color: darkorange; font-size: 90px""><b>ø</b></div>","null","","","","forget_cue","","","","","","","","","","","","","","","",""
"html-keyboard-response","70","120347","0.0-3.0-3.0-0.7","s7r6fra6gnr0vwh","practice_cue","5f3d5e296531630e53fb4a5a","5f60e3c0a3b16e07647b2ff9","5f60ef608178dc01b91aafde","false","null","<span style=""color: black; font-size: 48px"">N + M</span>","null","","","","resp_prompt","","","","","","","","","","","","","","","",""
"categorize-image","71","121427","0.0-3.0-3.0-1.7","s7r6fra6gnr0vwh","practice_cue","5f3d5e296531630e53fb4a5a","5f60e3c0a3b16e07647b2ff9","5f60ef608178dc01b91aafde","true","1077.080000000933","./Stimuli/ImagesPractice/SN220.jpg","76","","","","test","false","N + M","83","","SN","SN220.jpg","forget","old","24","2","practice_forget","right","","","",""
"html-keyboard-response","72","121933","0.0-3.0-3.0-2.7-0.7","s7r6fra6gnr0vwh","practice_cue","5f3d5e296531630e53fb4a5a","5f60e3c0a3b16e07647b2ff9","5f60ef608178dc01b91aafde","false","null","<span style=""color: red; font-size: 48px"">Error!</span>","null","","","","feedback","","","","","","","","","","","","","","","",""
"html-keyboard-response","73","123942","0.0-3.0-3.0-3.7","s7r6fra6gnr0vwh","practice_cue","5f3d5e296531630e53fb4a5a","5f60e3c0a3b16e07647b2ff9","5f60ef608178dc01b91aafde","false","null","<div style=""align-items: center; display: flex; color: darkorange; font-size: 90px""><b>ø</b></div>","null","","","","forget_cue","","","","","","","","","","","","","","","",""
"html-keyboard-response","74","124646","0.0-3.0-3.0-0.8","s7r6fra6gnr0vwh","practice_cue","5f3d5e296531630e53fb4a5a","5f60e3c0a3b16e07647b2ff9","5f60ef608178dc01b91aafde","false","null","<span style=""color: black; font-size: 48px"">M + N</span>","null","","","","resp_prompt","","","","","","","","","","","","","","","",""
"categorize-image","75","125127","0.0-3.0-3.0-1.8","s7r6fra6gnr0vwh","practice_cue","5f3d5e296531630e53fb4a5a","5f60e3c0a3b16e07647b2ff9","5f60ef608178dc01b91aafde","true","478.76999999971304","./Stimuli/ImagesPractice/LN17.jpg","76","","","","test","true","M + N","76","","LN","LN17.jpg","remember","old","25","2","practice_forget","right","","","",""
"html-keyboard-response","76","127141","0.0-3.0-3.0-3.8","s7r6fra6gnr0vwh","practice_cue","5f3d5e296531630e53fb4a5a","5f60e3c0a3b16e07647b2ff9","5f60ef608178dc01b91aafde","false","null","<div style=""align-items: center; display: flex; color: dodgerblue; font-size: 90px""><b>o</b></div>","null","","","","forget_cue","","","","","","","","","","","","","","","",""
"html-keyboard-response","77","127857","0.0-3.0-3.0-0.9","s7r6fra6gnr0vwh","practice_cue","5f3d5e296531630e53fb4a5a","5f60e3c0a3b16e07647b2ff9","5f60ef608178dc01b91aafde","false","null","<span style=""color: black; font-size: 48px"">M + N</span>","null","","","","resp_prompt","","","","","","","","","","","","","","","",""
"categorize-image","78","128347","0.0-3.0-3.0-1.9","s7r6fra6gnr0vwh","practice_cue","5f3d5e296531630e53fb4a5a","5f60e3c0a3b16e07647b2ff9","5f60ef608178dc01b91aafde","true","486.51500000050873","./Stimuli/ImagesPractice/LN15.jpg","76","","","","test","true","M + N","76","","LN","LN15.jpg","remember","old","26","2","practice_forget","right","","","",""
"html-keyboard-response","79","130360","0.0-3.0-3.0-3.9","s7r6fra6gnr0vwh","practice_cue","5f3d5e296531630e53fb4a5a","5f60e3c0a3b16e07647b2ff9","5f60ef608178dc01b91aafde","false","null","<div style=""align-items: center; display: flex; color: dodgerblue; font-size: 90px""><b>o</b></div>","null","","","","forget_cue","","","","","","","","","","","","","","","",""
"html-keyboard-response","80","131067","0.0-3.0-3.0-0.10","s7r6fra6gnr0vwh","practice_cue","5f3d5e296531630e53fb4a5a","5f60e3c0a3b16e07647b2ff9","5f60ef608178dc01b91aafde","false","null","<span style=""color: black; font-size: 48px"">M + N</span>","null","","","","resp_prompt","","","","","","","","","","","","","","","",""
"categorize-image","81","131683","0.0-3.0-3.0-1.10","s7r6fra6gnr0vwh","practice_cue","5f3d5e296531630e53fb4a5a","5f60e3c0a3b16e07647b2ff9","5f60ef608178dc01b91aafde","true","613.6049999986426","./Stimuli/ImagesPractice/SN76.jpg","76","","","","test","true","M + N","76","","SN","SN76.jpg","forget","old","27","2","practice_forget","right","","","",""
"html-keyboard-response","82","133697","0.0-3.0-3.0-3.10","s7r6fra6gnr0vwh","practice_cue","5f3d5e296531630e53fb4a5a","5f60e3c0a3b16e07647b2ff9","5f60ef608178dc01b91aafde","false","null","<div style=""align-items: center; display: flex; color: darkorange; font-size: 90px""><b>ø</b></div>","null","","","","forget_cue","","","","","","","","","","","","","","","",""
"html-keyboard-response","83","134408","0.0-3.0-3.0-0.11","s7r6fra6gnr0vwh","practice_cue","5f3d5e296531630e53fb4a5a","5f60e3c0a3b16e07647b2ff9","5f60ef608178dc01b91aafde","false","null","<span style=""color: black; font-size: 48px"">N + M</span>","null","","","","resp_prompt","","","","","","","","","","","","","","","",""
"categorize-image","84","135075","0.0-3.0-3.0-1.11","s7r6fra6gnr0vwh","practice_cue","5f3d5e296531630e53fb4a5a","5f60e3c0a3b16e07647b2ff9","5f60ef608178dc01b91aafde","true","664.6799999998475","./Stimuli/ImagesPractice/LM224.jpg","76","","","","test","true","N + M","76","","LM","LM224.jpg","forget","old","28","2","practice_forget","right","","","",""
"html-keyboard-response","85","137080","0.0-3.0-3.0-3.11","s7r6fra6gnr0vwh","practice_cue","5f3d5e296531630e53fb4a5a","5f60e3c0a3b16e07647b2ff9","5f60ef608178dc01b91aafde","false","null","<div style=""align-items: center; display: flex; color: darkorange; font-size: 90px""><b>ø</b></div>","null","","","","forget_cue","","","","","","","","","","","","","","","",""
"html-keyboard-response","86","137793","0.0-3.0-3.0-0.12","s7r6fra6gnr0vwh","practice_cue","5f3d5e296531630e53fb4a5a","5f60e3c0a3b16e07647b2ff9","5f60ef608178dc01b91aafde","false","null","<span style=""color: black; font-size: 48px"">N + M</span>","null","","","","resp_prompt","","","","","","","","","","","","","","","",""
"categorize-image","87","138667","0.0-3.0-3.0-1.12","s7r6fra6gnr0vwh","practice_cue","5f3d5e296531630e53fb4a5a","5f60e3c0a3b16e07647b2ff9","5f60ef608178dc01b91aafde","true","871.8250000001863","./Stimuli/ImagesPractice/SM37.jpg","76","","","","test","true","N + M","76","","SM","SM37.jpg","remember","old","29","2","practice_forget","right","","","",""
"html-keyboard-response","88","140680","0.0-3.0-3.0-3.12","s7r6fra6gnr0vwh","practice_cue","5f3d5e296531630e53fb4a5a","5f60e3c0a3b16e07647b2ff9","5f60ef608178dc01b91aafde","false","null","<div style=""align-items: center; display: flex; color: dodgerblue; font-size: 90px""><b>o</b></div>","null","","","","forget_cue","","","","","","","","","","","","","","","",""
"html-keyboard-response","89","141391","0.0-3.0-3.0-0.13","s7r6fra6gnr0vwh","practice_cue","5f3d5e296531630e53fb4a5a","5f60e3c0a3b16e07647b2ff9","5f60ef608178dc01b91aafde","false","null","<span style=""color: black; font-size: 48px"">M + N</span>","null","","","","resp_prompt","","","","","","","","","","","","","","","",""
"categorize-image","90","142071","0.0-3.0-3.0-1.13","s7r6fra6gnr0vwh","practice_cue","5f3d5e296531630e53fb4a5a","5f60e3c0a3b16e07647b2ff9","5f60ef608178dc01b91aafde","true","677.2049999999581","./Stimuli/ImagesPractice/SM97.jpg","83","","","","test","true","M + N","83","","SM","SM97.jpg","forget","old","30","2","practice_forget","left","","","",""
"html-keyboard-response","91","144085","0.0-3.0-3.0-3.13","s7r6fra6gnr0vwh","practice_cue","5f3d5e296531630e53fb4a5a","5f60e3c0a3b16e07647b2ff9","5f60ef608178dc01b91aafde","false","null","<div style=""align-items: center; display: flex; color: darkorange; font-size: 90px""><b>ø</b></div>","null","","","","forget_cue","","","","","","","","","","","","","","","",""
"html-keyboard-response","92","144798","0.0-3.0-3.0-0.14","s7r6fra6gnr0vwh","practice_cue","5f3d5e296531630e53fb4a5a","5f60e3c0a3b16e07647b2ff9","5f60ef608178dc01b91aafde","false","null","<span style=""color: black; font-size: 48px"">N + M</span>","null","","","","resp_prompt","","","","","","","","","","","","","","","",""
"categorize-image","93","145670","0.0-3.0-3.0-1.14","s7r6fra6gnr0vwh","practice_cue","5f3d5e296531630e53fb4a5a","5f60e3c0a3b16e07647b2ff9","5f60ef608178dc01b91aafde","true","870.3050000003714","./Stimuli/ImagesPractice/SM61.jpg","76","","","","test","true","N + M","76","","SM","SM61.jpg","forget","old","31","2","practice_forget","right","","","",""
"html-keyboard-response","94","147677","0.0-3.0-3.0-3.14","s7r6fra6gnr0vwh","practice_cue","5f3d5e296531630e53fb4a5a","5f60e3c0a3b16e07647b2ff9","5f60ef608178dc01b91aafde","false","null","<div style=""align-items: center; display: flex; color: darkorange; font-size: 90px""><b>ø</b></div>","null","","","","forget_cue","","","","","","","","","","","","","","","",""
"html-keyboard-response","95","148384","0.0-3.0-3.0-0.15","s7r6fra6gnr0vwh","practice_cue","5f3d5e296531630e53fb4a5a","5f60e3c0a3b16e07647b2ff9","5f60ef608178dc01b91aafde","false","null","<span style=""color: black; font-size: 48px"">N + M</span>","null","","","","resp_prompt","","","","","","","","","","","","","","","",""
"categorize-image","96","149251","0.0-3.0-3.0-1.15","s7r6fra6gnr0vwh","practice_cue","5f3d5e296531630e53fb4a5a","5f60e3c0a3b16e07647b2ff9","5f60ef608178dc01b91aafde","true","864.3300000003364","./Stimuli/ImagesPractice/SN205.jpg","83","","","","test","true","N + M","83","","SN","SN205.jpg","forget","old","32","2","practice_forget","left","","","",""
"html-keyboard-response","97","151265","0.0-3.0-3.0-3.15","s7r6fra6gnr0vwh","practice_cue","5f3d5e296531630e53fb4a5a","5f60e3c0a3b16e07647b2ff9","5f60ef608178dc01b91aafde","false","null","<div style=""align-items: center; display: flex; color: darkorange; font-size: 90px""><b>ø</b></div>","null","","","","forget_cue","","","","","","","","","","","","","","","",""
"html-keyboard-response","98","152201","0.0-3.0-4.0","s7r6fra6gnr0vwh","break","5f3d5e296531630e53fb4a5a","5f60e3c0a3b16e07647b2ff9","5f60ef608178dc01b91aafde","false","935.6800000004878","<p style='font-size: 32px;'>Break</><br><br><br><br><br><p style='font-size: 24px;'>In the last block, you committed 2 errors and did not respond in time on 0 trials.
</p><p style='font-size: 24px;'>Try to respond as fast and accurately as possible in the next block as well! </p><p style='font-size: 24px;'>Press SPACE to continue.</p>","32","","","","","","","","","","","","","","","","","","","",""
"html-keyboard-response","99","152973","0.0-3.0-5.0","s7r6fra6gnr0vwh","instructions","5f3d5e296531630e53fb4a5a","5f60e3c0a3b16e07647b2ff9","5f60ef608178dc01b91aafde","false","771.6500000006054","<div align=left> Now, to practice, we kindly ask you to remember as many of the to-be-remembered pictures<br>of the previous learning phase as possible.<br><br>The pictures you were instructed to remember were the pictures followed by a <span style='color: dodgerblue; font-size: 28px'>O</span>.<br><br>In this memory test phase, you will also see some new pictures.<br>It is your task to remember whether you were presented with this specific picture in this study so far or not.<br>If you recognize an object (you have already seen it in this study), it is an OLD object. <br>If you do not recognize an object (you have NOT seen it in this study), it is a NEW object. <br><strong> Attention</strong>: As already mentioned, <span style='color: darkorange; font-size:28px'>Ø</span>-pictures will <strong>never</strong> appear in this memory test (neither as new objects). <br><br>Press SPACE to continue. </div>","32","","","","","","","","","","","","","","","","","","","",""
"html-keyboard-response","100","153649","0.0-3.0-6.0","s7r6fra6gnr0vwh","instructions","5f3d5e296531630e53fb4a5a","5f60e3c0a3b16e07647b2ff9","5f60ef608178dc01b91aafde","false","675.5100000009406","<div align=left> M and N no longer will appear on the left/right of the fixation cross. <br>Instead there will be a note at the bottom of the left or right side  <br>indicating which key you should press for an old or new object:  <br> <br>Press the <strong>right</strong> key to classify an object as <strong>old</strong> and press the <strong>left</strong>, to classify an object as <strong>new</strong>.<br>Please classify the objects as new/old by again placing your index finger on the 'S' and 'L' keys <br>and press them accordingly.<br><br><strong>Old:</strong> This object has been presented before. <br><strong>New:</strong> This object has <strong>not</strong> been presented.<br><br>Now please put your right and left index fingers on the 'S' and 'L' keys of your keyboard. <br>Please respond as fast and as accurately as possible!<br><br>Press SPACE to continue. </div>","32","","","","","","","","","","","","","","","","","","","",""
"categorize-image","101","156342","0.0-3.0-7.0-0.0","s7r6fra6gnr0vwh","practice_recog","5f3d5e296531630e53fb4a5a","5f60e3c0a3b16e07647b2ff9","5f60ef608178dc01b91aafde","true","2179.100000001199","./Stimuli/ImagesPractice/LN4.jpg","76","","","","test","false","","83","","LN","LN4.jpg","","new","33","3","practice_recog","right","","","",""
"categorize-image","102","157561","0.0-3.0-7.0-0.1","s7r6fra6gnr0vwh","practice_recog","5f3d5e296531630e53fb4a5a","5f60e3c0a3b16e07647b2ff9","5f60ef608178dc01b91aafde","true","714.814999999362","./Stimuli/ImagesPractice/LN2.jpg","76","","","","test","true","","76","","LN","LN2.jpg","","old","34","3","practice_recog","right","","","",""
"categorize-image","103","158905","0.0-3.0-7.0-0.2","s7r6fra6gnr0vwh","practice_recog","5f3d5e296531630e53fb4a5a","5f60e3c0a3b16e07647b2ff9","5f60ef608178dc01b91aafde","true","831.4850000005972","./Stimuli/ImagesPractice/LM143.jpg","83","","","","test","true","","83","","LM","LM143.jpg","","new","35","3","practice_recog","left","","","",""
"categorize-image","104","160076","0.0-3.0-7.0-0.3","s7r6fra6gnr0vwh","practice_recog","5f3d5e296531630e53fb4a5a","5f60e3c0a3b16e07647b2ff9","5f60ef608178dc01b91aafde","true","664.3499999991036","./Stimuli/ImagesPractice/SM37.jpg","76","","","","test","true","","76","","SM","SM37.jpg","","old","36","3","practice_recog","right","","","",""
"categorize-image","105","161163","0.0-3.0-7.0-0.4","s7r6fra6gnr0vwh","practice_recog","5f3d5e296531630e53fb4a5a","5f60e3c0a3b16e07647b2ff9","5f60ef608178dc01b91aafde","true","573.155000000057","./Stimuli/ImagesPractice/SM35.jpg","76","","","","test","true","","76","","SM","SM35.jpg","","old","37","3","practice_recog","right","","","",""
"categorize-image","106","162192","0.0-3.0-7.0-0.5","s7r6fra6gnr0vwh","practice_recog","5f3d5e296531630e53fb4a5a","5f60e3c0a3b16e07647b2ff9","5f60ef608178dc01b91aafde","true","518.08999999956","./Stimuli/ImagesPractice/SN222.jpg","76","","","","test","true","","76","","SN","SN222.jpg","","old","38","3","practice_recog","right","","","",""
"categorize-image","107","163410","0.0-3.0-7.0-0.6","s7r6fra6gnr0vwh","practice_recog","5f3d5e296531630e53fb4a5a","5f60e3c0a3b16e07647b2ff9","5f60ef608178dc01b91aafde","true","712.8099999990955","./Stimuli/ImagesPractice/LM239.jpg","83","","","","test","true","","83","","LM","LM239.jpg","","new","39","3","practice_recog","left","","","",""
"categorize-image","108","164657","0.0-3.0-7.0-0.7","s7r6fra6gnr0vwh","practice_recog","5f3d5e296531630e53fb4a5a","5f60e3c0a3b16e07647b2ff9","5f60ef608178dc01b91aafde","true","743.1049999995739","./Stimuli/ImagesPractice/LN72.jpg","83","","","","test","true","","83","","LN","LN72.jpg","","new","40","3","practice_recog","left","","","",""
"categorize-image","109","165749","0.0-3.0-7.0-0.8","s7r6fra6gnr0vwh","practice_recog","5f3d5e296531630e53fb4a5a","5f60e3c0a3b16e07647b2ff9","5f60ef608178dc01b91aafde","true","579.424999999901","./Stimuli/ImagesPractice/LM147.jpg","76","","","","test","true","","76","","LM","LM147.jpg","","old","41","3","practice_recog","right","","","",""
"categorize-image","110","166796","0.0-3.0-7.0-0.9","s7r6fra6gnr0vwh","practice_recog","5f3d5e296531630e53fb4a5a","5f60e3c0a3b16e07647b2ff9","5f60ef608178dc01b91aafde","true","536.3400000005786","./Stimuli/ImagesPractice/LN15.jpg","83","","","","test","false","","76","","LN","LN15.jpg","","old","42","3","practice_recog","left","","","",""
"categorize-image","111","168096","0.0-3.0-7.0-0.10","s7r6fra6gnr0vwh","practice_recog","5f3d5e296531630e53fb4a5a","5f60e3c0a3b16e07647b2ff9","5f60ef608178dc01b91aafde","true","785.1649999993388","./Stimuli/ImagesPractice/LM55.jpg","76","","","","test","true","","76","","LM","LM55.jpg","","old","43","3","practice_recog","right","","","",""
"categorize-image","112","169340","0.0-3.0-7.0-0.11","s7r6fra6gnr0vwh","practice_recog","5f3d5e296531630e53fb4a5a","5f60e3c0a3b16e07647b2ff9","5f60ef608178dc01b91aafde","true","728.6249999997672","./Stimuli/ImagesPractice/LM230.jpg","83","","","","test","true","","83","","LM","LM230.jpg","","new","44","3","practice_recog","left","","","",""
"categorize-image","113","170826","0.0-3.0-7.0-0.12","s7r6fra6gnr0vwh","practice_recog","5f3d5e296531630e53fb4a5a","5f60e3c0a3b16e07647b2ff9","5f60ef608178dc01b91aafde","true","977.3100000002305","./Stimuli/ImagesPractice/SN221.jpg","83","","","","test","true","","83","","SN","SN221.jpg","","new","45","3","practice_recog","left","","","",""
"categorize-image","114","172065","0.0-3.0-7.0-0.13","s7r6fra6gnr0vwh","practice_recog","5f3d5e296531630e53fb4a5a","5f60e3c0a3b16e07647b2ff9","5f60ef608178dc01b91aafde","true","730.9150000000955","./Stimuli/ImagesPractice/SN75.jpg","83","","","","test","true","","83","","SN","SN75.jpg","","new","46","3","practice_recog","left","","","",""
"categorize-image","115","173649","0.0-3.0-7.0-0.14","s7r6fra6gnr0vwh","practice_recog","5f3d5e296531630e53fb4a5a","5f60e3c0a3b16e07647b2ff9","5f60ef608178dc01b91aafde","true","1076.2300000005635","./Stimuli/ImagesPractice/LN17.jpg","76","","","","test","true","","76","","LN","LN17.jpg","","old","47","3","practice_recog","right","","","",""
"categorize-image","116","174978","0.0-3.0-7.0-0.15","s7r6fra6gnr0vwh","practice_recog","5f3d5e296531630e53fb4a5a","5f60e3c0a3b16e07647b2ff9","5f60ef608178dc01b91aafde","true","823.5750000003318","./Stimuli/ImagesPractice/SM62.jpg","83","","","","test","true","","83","","SM","SM62.jpg","","new","48","3","practice_recog","left","","","",""
"html-keyboard-response","117","175829","0.0-3.0-8.0","s7r6fra6gnr0vwh","instructions","5f3d5e296531630e53fb4a5a","5f60e3c0a3b16e07647b2ff9","5f60ef608178dc01b91aafde","false","851.1650000000373","<div align=left> Great!<br><br>Are you ready to continue?<br>If you want to reread the instructions and redo the practice trials, please <br>press „Z“.<br><br>You can proceed when you are ready.<br><br>After the presentation of each object, you will receive an instruction whether to <br>remember or to forget the object.<br>We will test your memory of the following pictures only at the very end of <br>the experiment after all learning blocks are completed. <br><br>Press SPACE to CONTINUE when you are ready. </div>","32","","","","","","","","","","","","","","","","","","","",""
"html-keyboard-response","118","177917","0.0-4.0-0.0","s7r6fra6gnr0vwh","instructions","5f3d5e296531630e53fb4a5a","5f60e3c0a3b16e07647b2ff9","5f60ef608178dc01b91aafde","false","2087.615000000369","<div align=left> The actual experiment is about to start.<br>The practice trials are over!<br><br>Please always respond both fast and accurately!<br><br>Remember: <br> <br><li> Please place your index fingers on the <strong>'S'</strong> and <strong>'L'</strong> keys <br>to respond as fast and accurately as possible.</li><li> Every picture can be classified as either mechanical or non-mechanical.</li><li> If you do not respond in time or commit an error, you will receive a corresponding feedback.<br> Please try to respond as <strong> fast </strong> and as <strong> accurately as possible </strong>.</li><li> Remember the <span style='color: dodgerblue; font-size: 28px'>O</span> pictures. <br></li><li> Please minimize distractions and stay focused. </li><br><br>Press SPACE to START.</div>","32","","","","","","","","","","","","","","","","","","","",""
"html-keyboard-response","119","178625","0.0-4.0-1.0-0.0","s7r6fra6gnr0vwh","prime","5f3d5e296531630e53fb4a5a","5f60e3c0a3b16e07647b2ff9","5f60ef608178dc01b91aafde","false","null","<span style=""color: black; font-size: 48px"">N + M</span>","null","","","","resp_prompt","","","","","","","","","","","","","","","",""
"categorize-image","120","179148","0.0-4.0-1.0-1.0","s7r6fra6gnr0vwh","prime","5f3d5e296531630e53fb4a5a","5f60e3c0a3b16e07647b2ff9","5f60ef608178dc01b91aafde","true","519.7399999997288","./Stimuli/SelectedImages/LM/LM235.bmp","76","","","","test","true","N + M","76","repetition","LM","LM235.bmp","remember","","49","3","prime1","right","","","",""
"html-keyboard-response","121","181149","0.0-4.0-1.0-3.0","s7r6fra6gnr0vwh","prime","5f3d5e296531630e53fb4a5a","5f60e3c0a3b16e07647b2ff9","5f60ef608178dc01b91aafde","false","null","<div style=""align-items: center; display: flex; color: dodgerblue; font-size: 90px""><b>o</b></div>","null","","","","forget_cue","","","","","","","","","","","","","","","",""
"html-keyboard-response","122","181865","0.0-4.0-1.0-0.1","s7r6fra6gnr0vwh","prime","5f3d5e296531630e53fb4a5a","5f60e3c0a3b16e07647b2ff9","5f60ef608178dc01b91aafde","false","null","<span style=""color: black; font-size: 48px"">N + M</span>","null","","","","resp_prompt","","","","","","","","","","","","","","","",""
"categorize-image","123","182416","0.0-4.0-1.0-1.1","s7r6fra6gnr0vwh","prime","5f3d5e296531630e53fb4a5a","5f60e3c0a3b16e07647b2ff9","5f60ef608178dc01b91aafde","true","547.749999999709","./Stimuli/SelectedImages/SM/SM17.bmp","76","","","","test","true","N + M","76","switch","SM","SM17.bmp","remember","","50","3","prime1","right","","","",""
"html-keyboard-response","124","184432","0.0-4.0-1.0-3.1","s7r6fra6gnr0vwh","prime","5f3d5e296531630e53fb4a5a","5f60e3c0a3b16e07647b2ff9","5f60ef608178dc01b91aafde","false","null","<div style=""align-items: center; display: flex; color: dodgerblue; font-size: 90px""><b>o</b></div>","null","","","","forget_cue","","","","","","","","","","","","","","","",""
"html-keyboard-response","125","185140","0.0-4.0-1.0-0.2","s7r6fra6gnr0vwh","prime","5f3d5e296531630e53fb4a5a","5f60e3c0a3b16e07647b2ff9","5f60ef608178dc01b91aafde","false","null","<span style=""color: black; font-size: 48px"">N + M</span>","null","","","","resp_prompt","","","","","","","","","","","","","","","",""
"categorize-image","126","185848","0.0-4.0-1.0-1.2","s7r6fra6gnr0vwh","prime","5f3d5e296531630e53fb4a5a","5f60e3c0a3b16e07647b2ff9","5f60ef608178dc01b91aafde","true","705.180000000837","./Stimuli/SelectedImages/SM/SM184.bmp","76","","","","test","true","N + M","76","repetition","SM","SM184.bmp","remember","","51","3","prime1","right","","","",""
"html-keyboard-response","127","187854","0.0-4.0-1.0-3.2","s7r6fra6gnr0vwh","prime","5f3d5e296531630e53fb4a5a","5f60e3c0a3b16e07647b2ff9","5f60ef608178dc01b91aafde","false","null","<div style=""align-items: center; display: flex; color: dodgerblue; font-size: 90px""><b>o</b></div>","null","","","","forget_cue","","","","","","","","","","","","","","","",""
"html-keyboard-response","128","188566","0.0-4.0-1.0-0.3","s7r6fra6gnr0vwh","prime","5f3d5e296531630e53fb4a5a","5f60e3c0a3b16e07647b2ff9","5f60ef608178dc01b91aafde","false","null","<span style=""color: black; font-size: 48px"">M + N</span>","null","","","","resp_prompt","","","","","","","","","","","","","","","",""
"categorize-image","129","189144","0.0-4.0-1.0-1.3","s7r6fra6gnr0vwh","prime","5f3d5e296531630e53fb4a5a","5f60e3c0a3b16e07647b2ff9","5f60ef608178dc01b91aafde","true","575.4849999993748","./Stimuli/SelectedImages/SM/SM108.bmp","83","","","","test","true","M + N","83","switch","SM","SM108.bmp","forget","","52","3","prime1","left","","","",""
"html-keyboard-response","130","191160","0.0-4.0-1.0-3.3","s7r6fra6gnr0vwh","prime","5f3d5e296531630e53fb4a5a","5f60e3c0a3b16e07647b2ff9","5f60ef608178dc01b91aafde","false","null","<div style=""align-items: center; display: flex; color: darkorange; font-size: 90px""><b>ø</b></div>","null","","","","forget_cue","","","","","","","","","","","","","","","",""
"html-keyboard-response","131","191874","0.0-4.0-1.0-0.4","s7r6fra6gnr0vwh","prime","5f3d5e296531630e53fb4a5a","5f60e3c0a3b16e07647b2ff9","5f60ef608178dc01b91aafde","false","null","<span style=""color: black; font-size: 48px"">M + N</span>","null","","","","resp_prompt","","","","","","","","","","","","","","","",""
"categorize-image","132","192912","0.0-4.0-1.0-1.4","s7r6fra6gnr0vwh","prime","5f3d5e296531630e53fb4a5a","5f60e3c0a3b16e07647b2ff9","5f60ef608178dc01b91aafde","true","1035.4950000000827","./Stimuli/SelectedImages/LM/LM216.bmp","83","","","","test","true","M + N","83","switch","LM","LM216.bmp","remember","","53","3","prime1","left","","","",""
"html-keyboard-response","133","194920","0.0-4.0-1.0-3.4","s7r6fra6gnr0vwh","prime","5f3d5e296531630e53fb4a5a","5f60e3c0a3b16e07647b2ff9","5f60ef608178dc01b91aafde","false","null","<div style=""align-items: center; display: flex; color: dodgerblue; font-size: 90px""><b>o</b></div>","null","","","","forget_cue","","","","","","","","","","","","","","","",""
"html-keyboard-response","134","195627","0.0-4.0-1.0-0.5","s7r6fra6gnr0vwh","prime","5f3d5e296531630e53fb4a5a","5f60e3c0a3b16e07647b2ff9","5f60ef608178dc01b91aafde","false","null","<span style=""color: black; font-size: 48px"">N + M</span>","null","","","","resp_prompt","","","","","","","","","","","","","","","",""
"categorize-image","135","196368","0.0-4.0-1.0-1.5","s7r6fra6gnr0vwh","prime","5f3d5e296531630e53fb4a5a","5f60e3c0a3b16e07647b2ff9","5f60ef608178dc01b91aafde","true","738.2350000007136","./Stimuli/SelectedImages/LN/LN128.bmp","76","","","","test","false","N + M","83","switch","LN","LN128.bmp","remember","","54","3","prime1","right","","","",""
"html-keyboard-response","136","196874","0.0-4.0-1.0-2.5-0.5","s7r6fra6gnr0vwh","prime","5f3d5e296531630e53fb4a5a","5f60e3c0a3b16e07647b2ff9","5f60ef608178dc01b91aafde","false","null","<span style=""color: red; font-size: 48px"">Error!</span>","null","","","","feedback","","","","","","","","","","","","","","","",""
"html-keyboard-response","137","198882","0.0-4.0-1.0-3.5","s7r6fra6gnr0vwh","prime","5f3d5e296531630e53fb4a5a","5f60e3c0a3b16e07647b2ff9","5f60ef608178dc01b91aafde","false","null","<div style=""align-items: center; display: flex; color: dodgerblue; font-size: 90px""><b>o</b></div>","null","","","","forget_cue","","","","","","","","","","","","","","","",""
"html-keyboard-response","138","199595","0.0-4.0-1.0-0.6","s7r6fra6gnr0vwh","prime","5f3d5e296531630e53fb4a5a","5f60e3c0a3b16e07647b2ff9","5f60ef608178dc01b91aafde","false","null","<span style=""color: black; font-size: 48px"">M + N</span>","null","","","","resp_prompt","","","","","","","","","","","","","","","",""
"categorize-image","139","200312","0.0-4.0-1.0-1.6","s7r6fra6gnr0vwh","prime","5f3d5e296531630e53fb4a5a","5f60e3c0a3b16e07647b2ff9","5f60ef608178dc01b91aafde","true","713.8799999993644","./Stimuli/SelectedImages/SM/SM207.bmp","83","","","","test","true","M + N","83","switch","SM","SM207.bmp","remember","","55","3","prime1","left","","","",""
"html-keyboard-response","140","202319","0.0-4.0-1.0-3.6","s7r6fra6gnr0vwh","prime","5f3d5e296531630e53fb4a5a","5f60e3c0a3b16e07647b2ff9","5f60ef608178dc01b91aafde","false","null","<div style=""align-items: center; display: flex; color: dodgerblue; font-size: 90px""><b>o</b></div>","null","","","","forget_cue","","","","","","","","","","","","","","","",""
"html-keyboard-response","141","203029","0.0-4.0-1.0-0.7","s7r6fra6gnr0vwh","prime","5f3d5e296531630e53fb4a5a","5f60e3c0a3b16e07647b2ff9","5f60ef608178dc01b91aafde","false","null","<span style=""color: black; font-size: 48px"">N + M</span>","null","","","","resp_prompt","","","","","","","","","","","","","","","",""
"categorize-image","142","204020","0.0-4.0-1.0-1.7","s7r6fra6gnr0vwh","prime","5f3d5e296531630e53fb4a5a","5f60e3c0a3b16e07647b2ff9","5f60ef608178dc01b91aafde","true","988.3000000008615","./Stimuli/SelectedImages/LM/LM179.bmp","76","","","","test","true","N + M","76","switch","LM","LM179.bmp","forget","","56","3","prime1","right","","","",""
"html-keyboard-response","143","206022","0.0-4.0-1.0-3.7","s7r6fra6gnr0vwh","prime","5f3d5e296531630e53fb4a5a","5f60e3c0a3b16e07647b2ff9","5f60ef608178dc01b91aafde","false","null","<div style=""align-items: center; display: flex; color: darkorange; font-size: 90px""><b>ø</b></div>","null","","","","forget_cue","","","","","","","","","","","","","","","",""
"html-keyboard-response","144","206733","0.0-4.0-1.0-0.8","s7r6fra6gnr0vwh","prime","5f3d5e296531630e53fb4a5a","5f60e3c0a3b16e07647b2ff9","5f60ef608178dc01b91aafde","false","null","<span style=""color: black; font-size: 48px"">N + M</span>","null","","","","resp_prompt","","","","","","","","","","","","","","","",""
"categorize-image","145","207379","0.0-4.0-1.0-1.8","s7r6fra6gnr0vwh","prime","5f3d5e296531630e53fb4a5a","5f60e3c0a3b16e07647b2ff9","5f60ef608178dc01b91aafde","true","644.0599999987171","./Stimuli/SelectedImages/LN/LN150.bmp","83","","","","test","true","N + M","83","repetition","LN","LN150.bmp","remember","","57","3","prime1","left","","","",""
"html-keyboard-response","146","209389","0.0-4.0-1.0-3.8","s7r6fra6gnr0vwh","prime","5f3d5e296531630e53fb4a5a","5f60e3c0a3b16e07647b2ff9","5f60ef608178dc01b91aafde","false","null","<div style=""align-items: center; display: flex; color: dodgerblue; font-size: 90px""><b>o</b></div>","null","","","","forget_cue","","","","","","","","","","","","","","","",""
"html-keyboard-response","147","210103","0.0-4.0-1.0-0.9","s7r6fra6gnr0vwh","prime","5f3d5e296531630e53fb4a5a","5f60e3c0a3b16e07647b2ff9","5f60ef608178dc01b91aafde","false","null","<span style=""color: black; font-size: 48px"">M + N</span>","null","","","","resp_prompt","","","","","","","","","","","","","","","",""
"categorize-image","148","210764","0.0-4.0-1.0-1.9","s7r6fra6gnr0vwh","prime","5f3d5e296531630e53fb4a5a","5f60e3c0a3b16e07647b2ff9","5f60ef608178dc01b91aafde","true","657.9199999996345","./Stimuli/SelectedImages/SN/SN155.bmp","76","","","","test","true","M + N","76","repetition","SN","SN155.bmp","remember","","58","3","prime1","right","","","",""
"html-keyboard-response","149","212771","0.0-4.0-1.0-3.9","s7r6fra6gnr0vwh","prime","5f3d5e296531630e53fb4a5a","5f60e3c0a3b16e07647b2ff9","5f60ef608178dc01b91aafde","false","null","<div style=""align-items: center; display: flex; color: dodgerblue; font-size: 90px""><b>o</b></div>","null","","","","forget_cue","","","","","","","","","","","","","","","",""
"html-keyboard-response","150","213482","0.0-4.0-1.0-0.10","s7r6fra6gnr0vwh","prime","5f3d5e296531630e53fb4a5a","5f60e3c0a3b16e07647b2ff9","5f60ef608178dc01b91aafde","false","null","<span style=""color: black; font-size: 48px"">N + M</span>","null","","","","resp_prompt","","","","","","","","","","","","","","","",""
"categorize-image","151","214196","0.0-4.0-1.0-1.10","s7r6fra6gnr0vwh","prime","5f3d5e296531630e53fb4a5a","5f60e3c0a3b16e07647b2ff9","5f60ef608178dc01b91aafde","true","711.1949999998615","./Stimuli/SelectedImages/LM/LM150.bmp","76","","","","test","true","N + M","76","repetition","LM","LM150.bmp","forget","","59","3","prime1","right","","","",""
"html-keyboard-response","152","216207","0.0-4.0-1.0-3.10","s7r6fra6gnr0vwh","prime","5f3d5e296531630e53fb4a5a","5f60e3c0a3b16e07647b2ff9","5f60ef608178dc01b91aafde","false","null","<div style=""align-items: center; display: flex; color: darkorange; font-size: 90px""><b>ø</b></div>","null","","","","forget_cue","","","","","","","","","","","","","","","",""
"html-keyboard-response","153","216919","0.0-4.0-1.0-0.11","s7r6fra6gnr0vwh","prime","5f3d5e296531630e53fb4a5a","5f60e3c0a3b16e07647b2ff9","5f60ef608178dc01b91aafde","false","null","<span style=""color: black; font-size: 48px"">M + N</span>","null","","","","resp_prompt","","","","","","","","","","","","","","","",""
"categorize-image","154","217560","0.0-4.0-1.0-1.11","s7r6fra6gnr0vwh","prime","5f3d5e296531630e53fb4a5a","5f60e3c0a3b16e07647b2ff9","5f60ef608178dc01b91aafde","true","638.2549999998591","./Stimuli/SelectedImages/LM/LM51.bmp","83","","","","test","true","M + N","83","switch","LM","LM51.bmp","forget","","60","3","prime1","left","","","",""
"html-keyboard-response","155","219576","0.0-4.0-1.0-3.11","s7r6fra6gnr0vwh","prime","5f3d5e296531630e53fb4a5a","5f60e3c0a3b16e07647b2ff9","5f60ef608178dc01b91aafde","false","null","<div style=""align-items: center; display: flex; color: darkorange; font-size: 90px""><b>ø</b></div>","null","","","","forget_cue","","","","","","","","","","","","","","","",""
"html-keyboard-response","156","220288","0.0-4.0-1.0-0.12","s7r6fra6gnr0vwh","prime","5f3d5e296531630e53fb4a5a","5f60e3c0a3b16e07647b2ff9","5f60ef608178dc01b91aafde","false","null","<span style=""color: black; font-size: 48px"">N + M</span>","null","","","","resp_prompt","","","","","","","","","","","","","","","",""
"categorize-image","157","221056","0.0-4.0-1.0-1.12","s7r6fra6gnr0vwh","prime","5f3d5e296531630e53fb4a5a","5f60e3c0a3b16e07647b2ff9","5f60ef608178dc01b91aafde","true","765.1600000008184","./Stimuli/SelectedImages/LN/LN111.bmp","83","","","","test","true","N + M","83","switch","LN","LN111.bmp","forget","","61","3","prime1","left","","","",""
"html-keyboard-response","158","223058","0.0-4.0-1.0-3.12","s7r6fra6gnr0vwh","prime","5f3d5e296531630e53fb4a5a","5f60e3c0a3b16e07647b2ff9","5f60ef608178dc01b91aafde","false","null","<div style=""align-items: center; display: flex; color: darkorange; font-size: 90px""><b>ø</b></div>","null","","","","forget_cue","","","","","","","","","","","","","","","",""
"html-keyboard-response","159","223767","0.0-4.0-1.0-0.13","s7r6fra6gnr0vwh","prime","5f3d5e296531630e53fb4a5a","5f60e3c0a3b16e07647b2ff9","5f60ef608178dc01b91aafde","false","null","<span style=""color: black; font-size: 48px"">N + M</span>","null","","","","resp_prompt","","","","","","","","","","","","","","","",""
"categorize-image","160","224451","0.0-4.0-1.0-1.13","s7r6fra6gnr0vwh","prime","5f3d5e296531630e53fb4a5a","5f60e3c0a3b16e07647b2ff9","5f60ef608178dc01b91aafde","true","681.7599999994854","./Stimuli/SelectedImages/SM/SM200.bmp","76","","","","test","true","N + M","76","repetition","SM","SM200.bmp","remember","","62","3","prime1","right","","","",""
"html-keyboard-response","161","226456","0.0-4.0-1.0-3.13","s7r6fra6gnr0vwh","prime","5f3d5e296531630e53fb4a5a","5f60e3c0a3b16e07647b2ff9","5f60ef608178dc01b91aafde","false","null","<div style=""align-items: center; display: flex; color: dodgerblue; font-size: 90px""><b>o</b></div>","null","","","","forget_cue","","","","","","","","","","","","","","","",""
"html-keyboard-response","162","227169","0.0-4.0-1.0-0.14","s7r6fra6gnr0vwh","prime","5f3d5e296531630e53fb4a5a","5f60e3c0a3b16e07647b2ff9","5f60ef608178dc01b91aafde","false","null","<span style=""color: black; font-size: 48px"">N + M</span>","null","","","","resp_prompt","","","","","","","","","","","","","","","",""
"categorize-image","163","227927","0.0-4.0-1.0-1.14","s7r6fra6gnr0vwh","prime","5f3d5e296531630e53fb4a5a","5f60e3c0a3b16e07647b2ff9","5f60ef608178dc01b91aafde","true","755.5400000001246","./Stimuli/SelectedImages/LM/LM48.bmp","76","","","","test","true","N + M","76","switch","LM","LM48.bmp","remember","","63","3","prime1","right","","","",""
"html-keyboard-response","164","229935","0.0-4.0-1.0-3.14","s7r6fra6gnr0vwh","prime","5f3d5e296531630e53fb4a5a","5f60e3c0a3b16e07647b2ff9","5f60ef608178dc01b91aafde","false","null","<div style=""align-items: center; display: flex; color: dodgerblue; font-size: 90px""><b>o</b></div>","null","","","","forget_cue","","","","","","","","","","","","","","","",""
"html-keyboard-response","165","230646","0.0-4.0-1.0-0.15","s7r6fra6gnr0vwh","prime","5f3d5e296531630e53fb4a5a","5f60e3c0a3b16e07647b2ff9","5f60ef608178dc01b91aafde","false","null","<span style=""color: black; font-size: 48px"">M + N</span>","null","","","","resp_prompt","","","","","","","","","","","","","","","",""
"categorize-image","166","231307","0.0-4.0-1.0-1.15","s7r6fra6gnr0vwh","prime","5f3d5e296531630e53fb4a5a","5f60e3c0a3b16e07647b2ff9","5f60ef608178dc01b91aafde","true","659.0350000005565","./Stimuli/SelectedImages/LM/LM75.bmp","83","","","","test","true","M + N","83","repetition","LM","LM75.bmp","forget","","64","3","prime1","left","","","",""
"html-keyboard-response","167","233312","0.0-4.0-1.0-3.15","s7r6fra6gnr0vwh","prime","5f3d5e296531630e53fb4a5a","5f60e3c0a3b16e07647b2ff9","5f60ef608178dc01b91aafde","false","null","<div style=""align-items: center; display: flex; color: darkorange; font-size: 90px""><b>ø</b></div>","null","","","","forget_cue","","","","","","","","","","","","","","","",""
"html-keyboard-response","168","234024","0.0-4.0-1.0-0.16","s7r6fra6gnr0vwh","prime","5f3d5e296531630e53fb4a5a","5f60e3c0a3b16e07647b2ff9","5f60ef608178dc01b91aafde","false","null","<span style=""color: black; font-size: 48px"">N + M</span>","null","","","","resp_prompt","","","","","","","","","","","","","","","",""
"categorize-image","169","234752","0.0-4.0-1.0-1.16","s7r6fra6gnr0vwh","prime","5f3d5e296531630e53fb4a5a","5f60e3c0a3b16e07647b2ff9","5f60ef608178dc01b91aafde","true","725.1750000014144","./Stimuli/SelectedImages/LM/LM100.bmp","76","","","","test","true","N + M","76","switch","LM","LM100.bmp","remember","","65","3","prime1","right","","","",""
"html-keyboard-response","170","236766","0.0-4.0-1.0-3.16","s7r6fra6gnr0vwh","prime","5f3d5e296531630e53fb4a5a","5f60e3c0a3b16e07647b2ff9","5f60ef608178dc01b91aafde","false","null","<div style=""align-items: center; display: flex; color: dodgerblue; font-size: 90px""><b>o</b></div>","null","","","","forget_cue","","","","","","","","","","","","","","","",""
"html-keyboard-response","171","237477","0.0-4.0-1.0-0.17","s7r6fra6gnr0vwh","prime","5f3d5e296531630e53fb4a5a","5f60e3c0a3b16e07647b2ff9","5f60ef608178dc01b91aafde","false","null","<span style=""color: black; font-size: 48px"">M + N</span>","null","","","","resp_prompt","","","","","","","","","","","","","","","",""
"categorize-image","172","237999","0.0-4.0-1.0-1.17","s7r6fra6gnr0vwh","prime","5f3d5e296531630e53fb4a5a","5f60e3c0a3b16e07647b2ff9","5f60ef608178dc01b91aafde","true","519.8099999997648","./Stimuli/SelectedImages/LM/LM167.bmp","83","","","","test","true","M + N","83","repetition","LM","LM167.bmp","remember","","66","3","prime1","left","","","",""
"html-keyboard-response","173","240012","0.0-4.0-1.0-3.17","s7r6fra6gnr0vwh","prime","5f3d5e296531630e53fb4a5a","5f60e3c0a3b16e07647b2ff9","5f60ef608178dc01b91aafde","false","null","<div style=""align-items: center; display: flex; color: dodgerblue; font-size: 90px""><b>o</b></div>","null","","","","forget_cue","","","","","","","","","","","","","","","",""
"html-keyboard-response","174","240723","0.0-4.0-1.0-0.18","s7r6fra6gnr0vwh","prime","5f3d5e296531630e53fb4a5a","5f60e3c0a3b16e07647b2ff9","5f60ef608178dc01b91aafde","false","null","<span style=""color: black; font-size: 48px"">M + N</span>","null","","","","resp_prompt","","","","","","","","","","","","","","","",""
"categorize-image","175","242328","0.0-4.0-1.0-1.18","s7r6fra6gnr0vwh","prime","5f3d5e296531630e53fb4a5a","5f60e3c0a3b16e07647b2ff9","5f60ef608178dc01b91aafde","true","1601.9500000001863","./Stimuli/SelectedImages/LN/LN13.bmp","83","","","","test","false","M + N","76","repetition","LN","LN13.bmp","remember","","67","3","prime1","left","","","",""
"html-keyboard-response","176","242830","0.0-4.0-1.0-2.18-0.18","s7r6fra6gnr0vwh","prime","5f3d5e296531630e53fb4a5a","5f60e3c0a3b16e07647b2ff9","5f60ef608178dc01b91aafde","false","null","<span style=""color: red; font-size: 48px"">Error!</span>","null","","","","feedback","","","","","","","","","","","","","","","",""
"html-keyboard-response","177","244844","0.0-4.0-1.0-3.18","s7r6fra6gnr0vwh","prime","5f3d5e296531630e53fb4a5a","5f60e3c0a3b16e07647b2ff9","5f60ef608178dc01b91aafde","false","null","<div style=""align-items: center; display: flex; color: dodgerblue; font-size: 90px""><b>o</b></div>","null","","","","forget_cue","","","","","","","","","","","","","","","",""
"html-keyboard-response","178","245559","0.0-4.0-1.0-0.19","s7r6fra6gnr0vwh","prime","5f3d5e296531630e53fb4a5a","5f60e3c0a3b16e07647b2ff9","5f60ef608178dc01b91aafde","false","null","<span style=""color: black; font-size: 48px"">N + M</span>","null","","","","resp_prompt","","","","","","","","","","","","","","","",""
"categorize-image","179","246184","0.0-4.0-1.0-1.19","s7r6fra6gnr0vwh","prime","5f3d5e296531630e53fb4a5a","5f60e3c0a3b16e07647b2ff9","5f60ef608178dc01b91aafde","true","622.029999998631","./Stimuli/SelectedImages/SM/SM24.bmp","76","","","","test","true","N + M","76","switch","SM","SM24.bmp","forget","","68","3","prime1","right","","","",""
"html-keyboard-response","180","248187","0.0-4.0-1.0-3.19","s7r6fra6gnr0vwh","prime","5f3d5e296531630e53fb4a5a","5f60e3c0a3b16e07647b2ff9","5f60ef608178dc01b91aafde","false","null","<div style=""align-items: center; display: flex; color: darkorange; font-size: 90px""><b>ø</b></div>","null","","","","forget_cue","","","","","","","","","","","","","","","",""
"html-keyboard-response","181","248899","0.0-4.0-1.0-0.20","s7r6fra6gnr0vwh","prime","5f3d5e296531630e53fb4a5a","5f60e3c0a3b16e07647b2ff9","5f60ef608178dc01b91aafde","false","null","<span style=""color: black; font-size: 48px"">N + M</span>","null","","","","resp_prompt","","","","","","","","","","","","","","","",""
"categorize-image","182","249420","0.0-4.0-1.0-1.20","s7r6fra6gnr0vwh","prime","5f3d5e296531630e53fb4a5a","5f60e3c0a3b16e07647b2ff9","5f60ef608178dc01b91aafde","true","517.8150000010792","./Stimuli/SelectedImages/LM/LM58.bmp","76","","","","test","true","N + M","76","repetition","LM","LM58.bmp","remember","","69","3","prime1","right","","","",""
"html-keyboard-response","183","251429","0.0-4.0-1.0-3.20","s7r6fra6gnr0vwh","prime","5f3d5e296531630e53fb4a5a","5f60e3c0a3b16e07647b2ff9","5f60ef608178dc01b91aafde","false","null","<div style=""align-items: center; display: flex; color: dodgerblue; font-size: 90px""><b>o</b></div>","null","","","","forget_cue","","","","","","","","","","","","","","","",""
"html-keyboard-response","184","252142","0.0-4.0-1.0-0.21","s7r6fra6gnr0vwh","prime","5f3d5e296531630e53fb4a5a","5f60e3c0a3b16e07647b2ff9","5f60ef608178dc01b91aafde","false","null","<span style=""color: black; font-size: 48px"">M + N</span>","null","","","","resp_prompt","","","","","","","","","","","","","","","",""
"categorize-image","185","252692","0.0-4.0-1.0-1.21","s7r6fra6gnr0vwh","prime","5f3d5e296531630e53fb4a5a","5f60e3c0a3b16e07647b2ff9","5f60ef608178dc01b91aafde","true","546.5249999997322","./Stimuli/SelectedImages/SM/SM76.bmp","83","","","","test","true","M + N","83","switch","SM","SM76.bmp","forget","","70","3","prime1","left","","","",""
"html-keyboard-response","186","254694","0.0-4.0-1.0-3.21","s7r6fra6gnr0vwh","prime","5f3d5e296531630e53fb4a5a","5f60e3c0a3b16e07647b2ff9","5f60ef608178dc01b91aafde","false","null","<div style=""align-items: center; display: flex; color: darkorange; font-size: 90px""><b>ø</b></div>","null","","","","forget_cue","","","","","","","","","","","","","","","",""
"html-keyboard-response","187","255407","0.0-4.0-1.0-0.22","s7r6fra6gnr0vwh","prime","5f3d5e296531630e53fb4a5a","5f60e3c0a3b16e07647b2ff9","5f60ef608178dc01b91aafde","false","null","<span style=""color: black; font-size: 48px"">M + N</span>","null","","","","resp_prompt","","","","","","","","","","","","","","","",""
"categorize-image","188","255895","0.0-4.0-1.0-1.22","s7r6fra6gnr0vwh","prime","5f3d5e296531630e53fb4a5a","5f60e3c0a3b16e07647b2ff9","5f60ef608178dc01b91aafde","true","486.019999998447","./Stimuli/SelectedImages/LM/LM57.bmp","83","","","","test","true","M + N","83","switch","LM","LM57.bmp","forget","","71","3","prime1","left","","","",""
"html-keyboard-response","189","257905","0.0-4.0-1.0-3.22","s7r6fra6gnr0vwh","prime","5f3d5e296531630e53fb4a5a","5f60e3c0a3b16e07647b2ff9","5f60ef608178dc01b91aafde","false","null","<div style=""align-items: center; display: flex; color: darkorange; font-size: 90px""><b>ø</b></div>","null","","","","forget_cue","","","","","","","","","","","","","","","",""
"html-keyboard-response","190","258610","0.0-4.0-1.0-0.23","s7r6fra6gnr0vwh","prime","5f3d5e296531630e53fb4a5a","5f60e3c0a3b16e07647b2ff9","5f60ef608178dc01b91aafde","false","null","<span style=""color: black; font-size: 48px"">M + N</span>","null","","","","resp_prompt","","","","","","","","","","","","","","","",""
"categorize-image","191","259088","0.0-4.0-1.0-1.23","s7r6fra6gnr0vwh","prime","5f3d5e296531630e53fb4a5a","5f60e3c0a3b16e07647b2ff9","5f60ef608178dc01b91aafde","true","475.0750000003027","./Stimuli/SelectedImages/SM/SM213.bmp","83","","","","test","true","M + N","83","repetition","SM","SM213.bmp","forget","","72","3","prime1","left","","","",""
"html-keyboard-response","192","261100","0.0-4.0-1.0-3.23","s7r6fra6gnr0vwh","prime","5f3d5e296531630e53fb4a5a","5f60e3c0a3b16e07647b2ff9","5f60ef608178dc01b91aafde","false","null","<div style=""align-items: center; display: flex; color: darkorange; font-size: 90px""><b>ø</b></div>","null","","","","forget_cue","","","","","","","","","","","","","","","",""
"html-keyboard-response","193","261809","0.0-4.0-1.0-0.24","s7r6fra6gnr0vwh","prime","5f3d5e296531630e53fb4a5a","5f60e3c0a3b16e07647b2ff9","5f60ef608178dc01b91aafde","false","null","<span style=""color: black; font-size: 48px"">N + M</span>","null","","","","resp_prompt","","","","","","","","","","","","","","","",""
"categorize-image","194","262595","0.0-4.0-1.0-1.24","s7r6fra6gnr0vwh","prime","5f3d5e296531630e53fb4a5a","5f60e3c0a3b16e07647b2ff9","5f60ef608178dc01b91aafde","true","784.1800000005751","./Stimuli/SelectedImages/LN/LN101.bmp","83","","","","test","true","N + M","83","repetition","LN","LN101.bmp","forget","","73","3","prime1","left","","","",""
"html-keyboard-response","195","264598","0.0-4.0-1.0-3.24","s7r6fra6gnr0vwh","prime","5f3d5e296531630e53fb4a5a","5f60e3c0a3b16e07647b2ff9","5f60ef608178dc01b91aafde","false","null","<div style=""align-items: center; display: flex; color: darkorange; font-size: 90px""><b>ø</b></div>","null","","","","forget_cue","","","","","","","","","","","","","","","",""
"html-keyboard-response","196","265313","0.0-4.0-1.0-0.25","s7r6fra6gnr0vwh","prime","5f3d5e296531630e53fb4a5a","5f60e3c0a3b16e07647b2ff9","5f60ef608178dc01b91aafde","false","null","<span style=""color: black; font-size: 48px"">N + M</span>","null","","","","resp_prompt","","","","","","","","","","","","","","","",""
"categorize-image","197","266132","0.0-4.0-1.0-1.25","s7r6fra6gnr0vwh","prime","5f3d5e296531630e53fb4a5a","5f60e3c0a3b16e07647b2ff9","5f60ef608178dc01b91aafde","true","815.5399999996298","./Stimuli/SelectedImages/LM/LM103.bmp","76","","","","test","true","N + M","76","repetition","LM","LM103.bmp","forget","","74","3","prime1","right","","","",""
"html-keyboard-response","198","268147","0.0-4.0-1.0-3.25","s7r6fra6gnr0vwh","prime","5f3d5e296531630e53fb4a5a","5f60e3c0a3b16e07647b2ff9","5f60ef608178dc01b91aafde","false","null","<div style=""align-items: center; display: flex; color: darkorange; font-size: 90px""><b>ø</b></div>","null","","","","forget_cue","","","","","","","","","","","","","","","",""
"html-keyboard-response","199","268861","0.0-4.0-1.0-0.26","s7r6fra6gnr0vwh","prime","5f3d5e296531630e53fb4a5a","5f60e3c0a3b16e07647b2ff9","5f60ef608178dc01b91aafde","false","null","<span style=""color: black; font-size: 48px"">M + N</span>","null","","","","resp_prompt","","","","","","","","","","","","","","","",""
"categorize-image","200","269592","0.0-4.0-1.0-1.26","s7r6fra6gnr0vwh","prime","5f3d5e296531630e53fb4a5a","5f60e3c0a3b16e07647b2ff9","5f60ef608178dc01b91aafde","true","728.465000000142","./Stimuli/SelectedImages/LM/LM59.bmp","83","","","","test","true","M + N","83","repetition","LM","LM59.bmp","forget","","75","3","prime1","left","","","",""
"html-keyboard-response","201","271601","0.0-4.0-1.0-3.26","s7r6fra6gnr0vwh","prime","5f3d5e296531630e53fb4a5a","5f60e3c0a3b16e07647b2ff9","5f60ef608178dc01b91aafde","false","null","<div style=""align-items: center; display: flex; color: darkorange; font-size: 90px""><b>ø</b></div>","null","","","","forget_cue","","","","","","","","","","","","","","","",""
"html-keyboard-response","202","272315","0.0-4.0-1.0-0.27","s7r6fra6gnr0vwh","prime","5f3d5e296531630e53fb4a5a","5f60e3c0a3b16e07647b2ff9","5f60ef608178dc01b91aafde","false","null","<span style=""color: black; font-size: 48px"">M + N</span>","null","","","","resp_prompt","","","","","","","","","","","","","","","",""
"categorize-image","203","272822","0.0-4.0-1.0-1.27","s7r6fra6gnr0vwh","prime","5f3d5e296531630e53fb4a5a","5f60e3c0a3b16e07647b2ff9","5f60ef608178dc01b91aafde","true","506.2550000002375","./Stimuli/SelectedImages/LN/LN166.bmp","76","","","","test","true","M + N","76","repetition","LN","LN166.bmp","remember","","76","3","prime1","right","","","",""
"html-keyboard-response","204","274829","0.0-4.0-1.0-3.27","s7r6fra6gnr0vwh","prime","5f3d5e296531630e53fb4a5a","5f60e3c0a3b16e07647b2ff9","5f60ef608178dc01b91aafde","false","null","<div style=""align-items: center; display: flex; color: dodgerblue; font-size: 90px""><b>o</b></div>","null","","","","forget_cue","","","","","","","","","","","","","","","",""
"html-keyboard-response","205","275541","0.0-4.0-1.0-0.28","s7r6fra6gnr0vwh","prime","5f3d5e296531630e53fb4a5a","5f60e3c0a3b16e07647b2ff9","5f60ef608178dc01b91aafde","false","null","<span style=""color: black; font-size: 48px"">M + N</span>","null","","","","resp_prompt","","","","","","","","","","","","","","","",""
"categorize-image","206","276043","0.0-4.0-1.0-1.28","s7r6fra6gnr0vwh","prime","5f3d5e296531630e53fb4a5a","5f60e3c0a3b16e07647b2ff9","5f60ef608178dc01b91aafde","true","498.9449999993667","./Stimuli/SelectedImages/SM/SM78.bmp","83","","","","test","true","M + N","83","repetition","SM","SM78.bmp","forget","","77","3","prime1","left","","","",""
"html-keyboard-response","207","278054","0.0-4.0-1.0-3.28","s7r6fra6gnr0vwh","prime","5f3d5e296531630e53fb4a5a","5f60e3c0a3b16e07647b2ff9","5f60ef608178dc01b91aafde","false","null","<div style=""align-items: center; display: flex; color: darkorange; font-size: 90px""><b>ø</b></div>","null","","","","forget_cue","","","","","","","","","","","","","","","",""
"html-keyboard-response","208","278769","0.0-4.0-1.0-0.29","s7r6fra6gnr0vwh","prime","5f3d5e296531630e53fb4a5a","5f60e3c0a3b16e07647b2ff9","5f60ef608178dc01b91aafde","false","null","<span style=""color: black; font-size: 48px"">N + M</span>","null","","","","resp_prompt","","","","","","","","","","","","","","","",""
"categorize-image","209","279395","0.0-4.0-1.0-1.29","s7r6fra6gnr0vwh","prime","5f3d5e296531630e53fb4a5a","5f60e3c0a3b16e07647b2ff9","5f60ef608178dc01b91aafde","true","623.6300000000629","./Stimuli/SelectedImages/LN/LN42.bmp","83","","","","test","true","N + M","83","repetition","LN","LN42.bmp","remember","","78","3","prime1","left","","","",""
"html-keyboard-response","210","281406","0.0-4.0-1.0-3.29","s7r6fra6gnr0vwh","prime","5f3d5e296531630e53fb4a5a","5f60e3c0a3b16e07647b2ff9","5f60ef608178dc01b91aafde","false","null","<div style=""align-items: center; display: flex; color: dodgerblue; font-size: 90px""><b>o</b></div>","null","","","","forget_cue","","","","","","","","","","","","","","","",""
"html-keyboard-response","211","282117","0.0-4.0-1.0-0.30","s7r6fra6gnr0vwh","prime","5f3d5e296531630e53fb4a5a","5f60e3c0a3b16e07647b2ff9","5f60ef608178dc01b91aafde","false","null","<span style=""color: black; font-size: 48px"">M + N</span>","null","","","","resp_prompt","","","","","","","","","","","","","","","",""
"categorize-image","212","282895","0.0-4.0-1.0-1.30","s7r6fra6gnr0vwh","prime","5f3d5e296531630e53fb4a5a","5f60e3c0a3b16e07647b2ff9","5f60ef608178dc01b91aafde","true","775.760000000475","./Stimuli/SelectedImages/LN/LN177.bmp","76","","","","test","true","M + N","76","switch","LN","LN177.bmp","remember","","79","3","prime1","right","","","",""
"html-keyboard-response","213","284910","0.0-4.0-1.0-3.30","s7r6fra6gnr0vwh","prime","5f3d5e296531630e53fb4a5a","5f60e3c0a3b16e07647b2ff9","5f60ef608178dc01b91aafde","false","null","<div style=""align-items: center; display: flex; color: dodgerblue; font-size: 90px""><b>o</b></div>","null","","","","forget_cue","","","","","","","","","","","","","","","",""
"html-keyboard-response","214","285624","0.0-4.0-1.0-0.31","s7r6fra6gnr0vwh","prime","5f3d5e296531630e53fb4a5a","5f60e3c0a3b16e07647b2ff9","5f60ef608178dc01b91aafde","false","null","<span style=""color: black; font-size: 48px"">N + M</span>","null","","","","resp_prompt","","","","","","","","","","","","","","","",""
"categorize-image","215","286195","0.0-4.0-1.0-1.31","s7r6fra6gnr0vwh","prime","5f3d5e296531630e53fb4a5a","5f60e3c0a3b16e07647b2ff9","5f60ef608178dc01b91aafde","true","567.895000000135","./Stimuli/SelectedImages/SN/SN128.bmp","83","","","","test","true","N + M","83","repetition","SN","SN128.bmp","remember","","80","3","prime1","left","","","",""
"html-keyboard-response","216","288200","0.0-4.0-1.0-3.31","s7r6fra6gnr0vwh","prime","5f3d5e296531630e53fb4a5a","5f60e3c0a3b16e07647b2ff9","5f60ef608178dc01b91aafde","false","null","<div style=""align-items: center; display: flex; color: dodgerblue; font-size: 90px""><b>o</b></div>","null","","","","forget_cue","","","","","","","","","","","","","","","",""
"html-keyboard-response","217","288910","0.0-4.0-1.0-0.32","s7r6fra6gnr0vwh","prime","5f3d5e296531630e53fb4a5a","5f60e3c0a3b16e07647b2ff9","5f60ef608178dc01b91aafde","false","null","<span style=""color: black; font-size: 48px"">N + M</span>","null","","","","resp_prompt","","","","","","","","","","","","","","","",""
"categorize-image","218","289619","0.0-4.0-1.0-1.32","s7r6fra6gnr0vwh","prime","5f3d5e296531630e53fb4a5a","5f60e3c0a3b16e07647b2ff9","5f60ef608178dc01b91aafde","true","705.7649999987916","./Stimuli/SelectedImages/SM/SM74.bmp","76","","","","test","true","N + M","76","repetition","SM","SM74.bmp","forget","","81","3","prime1","right","","","",""
"html-keyboard-response","219","291622","0.0-4.0-1.0-3.32","s7r6fra6gnr0vwh","prime","5f3d5e296531630e53fb4a5a","5f60e3c0a3b16e07647b2ff9","5f60ef608178dc01b91aafde","false","null","<div style=""align-items: center; display: flex; color: darkorange; font-size: 90px""><b>ø</b></div>","null","","","","forget_cue","","","","","","","","","","","","","","","",""
"html-keyboard-response","220","292334","0.0-4.0-1.0-0.33","s7r6fra6gnr0vwh","prime","5f3d5e296531630e53fb4a5a","5f60e3c0a3b16e07647b2ff9","5f60ef608178dc01b91aafde","false","null","<span style=""color: black; font-size: 48px"">N + M</span>","null","","","","resp_prompt","","","","","","","","","","","","","","","",""
"categorize-image","221","292823","0.0-4.0-1.0-1.33","s7r6fra6gnr0vwh","prime","5f3d5e296531630e53fb4a5a","5f60e3c0a3b16e07647b2ff9","5f60ef608178dc01b91aafde","true","485.7549999997136","./Stimuli/SelectedImages/LN/LN12.bmp","83","","","","test","true","N + M","83","switch","LN","LN12.bmp","forget","","82","3","prime1","left","","","",""
"html-keyboard-response","222","294833","0.0-4.0-1.0-3.33","s7r6fra6gnr0vwh","prime","5f3d5e296531630e53fb4a5a","5f60e3c0a3b16e07647b2ff9","5f60ef608178dc01b91aafde","false","null","<div style=""align-items: center; display: flex; color: darkorange; font-size: 90px""><b>ø</b></div>","null","","","","forget_cue","","","","","","","","","","","","","","","",""
"html-keyboard-response","223","295545","0.0-4.0-1.0-0.34","s7r6fra6gnr0vwh","prime","5f3d5e296531630e53fb4a5a","5f60e3c0a3b16e07647b2ff9","5f60ef608178dc01b91aafde","false","null","<span style=""color: black; font-size: 48px"">N + M</span>","null","","","","resp_prompt","","","","","","","","","","","","","","","",""
"categorize-image","224","296147","0.0-4.0-1.0-1.34","s7r6fra6gnr0vwh","prime","5f3d5e296531630e53fb4a5a","5f60e3c0a3b16e07647b2ff9","5f60ef608178dc01b91aafde","true","599.7250000000349","./Stimuli/SelectedImages/SN/SN27.bmp","83","","","","test","true","N + M","83","repetition","SN","SN27.bmp","forget","","83","3","prime1","left","","","",""
"html-keyboard-response","225","298162","0.0-4.0-1.0-3.34","s7r6fra6gnr0vwh","prime","5f3d5e296531630e53fb4a5a","5f60e3c0a3b16e07647b2ff9","5f60ef608178dc01b91aafde","false","null","<div style=""align-items: center; display: flex; color: darkorange; font-size: 90px""><b>ø</b></div>","null","","","","forget_cue","","","","","","","","","","","","","","","",""
"html-keyboard-response","226","298872","0.0-4.0-1.0-0.35","s7r6fra6gnr0vwh","prime","5f3d5e296531630e53fb4a5a","5f60e3c0a3b16e07647b2ff9","5f60ef608178dc01b91aafde","false","null","<span style=""color: black; font-size: 48px"">M + N</span>","null","","","","resp_prompt","","","","","","","","","","","","","","","",""
"categorize-image","227","299511","0.0-4.0-1.0-1.35","s7r6fra6gnr0vwh","prime","5f3d5e296531630e53fb4a5a","5f60e3c0a3b16e07647b2ff9","5f60ef608178dc01b91aafde","true","636.4249999988242","./Stimuli/SelectedImages/SM/SM128.bmp","83","","","","test","true","M + N","83","repetition","SM","SM128.bmp","remember","","84","3","prime1","left","","","",""
"html-keyboard-response","228","301516","0.0-4.0-1.0-3.35","s7r6fra6gnr0vwh","prime","5f3d5e296531630e53fb4a5a","5f60e3c0a3b16e07647b2ff9","5f60ef608178dc01b91aafde","false","null","<div style=""align-items: center; display: flex; color: dodgerblue; font-size: 90px""><b>o</b></div>","null","","","","forget_cue","","","","","","","","","","","","","","","",""
"html-keyboard-response","229","302228","0.0-4.0-1.0-0.36","s7r6fra6gnr0vwh","prime","5f3d5e296531630e53fb4a5a","5f60e3c0a3b16e07647b2ff9","5f60ef608178dc01b91aafde","false","null","<span style=""color: black; font-size: 48px"">M + N</span>","null","","","","resp_prompt","","","","","","","","","","","","","","","",""
"categorize-image","230","302895","0.0-4.0-1.0-1.36","s7r6fra6gnr0vwh","prime","5f3d5e296531630e53fb4a5a","5f60e3c0a3b16e07647b2ff9","5f60ef608178dc01b91aafde","true","664.1999999992549","./Stimuli/SelectedImages/SN/SN49.bmp","76","","","","test","true","M + N","76","switch","SN","SN49.bmp","remember","","85","3","prime1","right","","","",""
"html-keyboard-response","231","304907","0.0-4.0-1.0-3.36","s7r6fra6gnr0vwh","prime","5f3d5e296531630e53fb4a5a","5f60e3c0a3b16e07647b2ff9","5f60ef608178dc01b91aafde","false","null","<div style=""align-items: center; display: flex; color: dodgerblue; font-size: 90px""><b>o</b></div>","null","","","","forget_cue","","","","","","","","","","","","","","","",""
"html-keyboard-response","232","305619","0.0-4.0-1.0-0.37","s7r6fra6gnr0vwh","prime","5f3d5e296531630e53fb4a5a","5f60e3c0a3b16e07647b2ff9","5f60ef608178dc01b91aafde","false","null","<span style=""color: black; font-size: 48px"">M + N</span>","null","","","","resp_prompt","","","","","","","","","","","","","","","",""
"categorize-image","233","306118","0.0-4.0-1.0-1.37","s7r6fra6gnr0vwh","prime","5f3d5e296531630e53fb4a5a","5f60e3c0a3b16e07647b2ff9","5f60ef608178dc01b91aafde","true","497.3099999988335","./Stimuli/SelectedImages/SM/SM148.bmp","83","","","","test","true","M + N","83","switch","SM","SM148.bmp","remember","","86","3","prime1","left","","","",""
"html-keyboard-response","234","308120","0.0-4.0-1.0-3.37","s7r6fra6gnr0vwh","prime","5f3d5e296531630e53fb4a5a","5f60e3c0a3b16e07647b2ff9","5f60ef608178dc01b91aafde","false","null","<div style=""align-items: center; display: flex; color: dodgerblue; font-size: 90px""><b>o</b></div>","null","","","","forget_cue","","","","","","","","","","","","","","","",""
"html-keyboard-response","235","308834","0.0-4.0-1.0-0.38","s7r6fra6gnr0vwh","prime","5f3d5e296531630e53fb4a5a","5f60e3c0a3b16e07647b2ff9","5f60ef608178dc01b91aafde","false","null","<span style=""color: black; font-size: 48px"">M + N</span>","null","","","","resp_prompt","","","","","","","","","","","","","","","",""
"categorize-image","236","309683","0.0-4.0-1.0-1.38","s7r6fra6gnr0vwh","prime","5f3d5e296531630e53fb4a5a","5f60e3c0a3b16e07647b2ff9","5f60ef608178dc01b91aafde","true","846.4100000000908","./Stimuli/SelectedImages/LM/LM129.bmp","76","","","","test","false","M + N","83","switch","LM","LM129.bmp","remember","","87","3","prime1","right","","","",""
"html-keyboard-response","237","310192","0.0-4.0-1.0-2.38-0.38","s7r6fra6gnr0vwh","prime","5f3d5e296531630e53fb4a5a","5f60e3c0a3b16e07647b2ff9","5f60ef608178dc01b91aafde","false","null","<span style=""color: red; font-size: 48px"">Error!</span>","null","","","","feedback","","","","","","","","","","","","","","","",""
"html-keyboard-response","238","312205","0.0-4.0-1.0-3.38","s7r6fra6gnr0vwh","prime","5f3d5e296531630e53fb4a5a","5f60e3c0a3b16e07647b2ff9","5f60ef608178dc01b91aafde","false","null","<div style=""align-items: center; display: flex; color: dodgerblue; font-size: 90px""><b>o</b></div>","null","","","","forget_cue","","","","","","","","","","","","","","","",""
"html-keyboard-response","239","312915","0.0-4.0-1.0-0.39","s7r6fra6gnr0vwh","prime","5f3d5e296531630e53fb4a5a","5f60e3c0a3b16e07647b2ff9","5f60ef608178dc01b91aafde","false","null","<span style=""color: black; font-size: 48px"">M + N</span>","null","","","","resp_prompt","","","","","","","","","","","","","","","",""
"categorize-image","240","313459","0.0-4.0-1.0-1.39","s7r6fra6gnr0vwh","prime","5f3d5e296531630e53fb4a5a","5f60e3c0a3b16e07647b2ff9","5f60ef608178dc01b91aafde","true","540.7849999992177","./Stimuli/SelectedImages/LM/LM209.bmp","83","","","","test","true","M + N","83","repetition","LM","LM209.bmp","remember","","88","3","prime1","left","","","",""
"html-keyboard-response","241","315462","0.0-4.0-1.0-3.39","s7r6fra6gnr0vwh","prime","5f3d5e296531630e53fb4a5a","5f60e3c0a3b16e07647b2ff9","5f60ef608178dc01b91aafde","false","null","<div style=""align-items: center; display: flex; color: dodgerblue; font-size: 90px""><b>o</b></div>","null","","","","forget_cue","","","","","","","","","","","","","","","",""
"html-keyboard-response","242","316173","0.0-4.0-1.0-0.40","s7r6fra6gnr0vwh","prime","5f3d5e296531630e53fb4a5a","5f60e3c0a3b16e07647b2ff9","5f60ef608178dc01b91aafde","false","null","<span style=""color: black; font-size: 48px"">N + M</span>","null","","","","resp_prompt","","","","","","","","","","","","","","","",""
"categorize-image","243","316699","0.0-4.0-1.0-1.40","s7r6fra6gnr0vwh","prime","5f3d5e296531630e53fb4a5a","5f60e3c0a3b16e07647b2ff9","5f60ef608178dc01b91aafde","true","523.4649999983958","./Stimuli/SelectedImages/SN/SN111.bmp","83","","","","test","true","N + M","83","switch","SN","SN111.bmp","remember","","89","3","prime1","left","","","",""
"html-keyboard-response","244","318704","0.0-4.0-1.0-3.40","s7r6fra6gnr0vwh","prime","5f3d5e296531630e53fb4a5a","5f60e3c0a3b16e07647b2ff9","5f60ef608178dc01b91aafde","false","null","<div style=""align-items: center; display: flex; color: dodgerblue; font-size: 90px""><b>o</b></div>","null","","","","forget_cue","","","","","","","","","","","","","","","",""
"html-keyboard-response","245","319414","0.0-4.0-1.0-0.41","s7r6fra6gnr0vwh","prime","5f3d5e296531630e53fb4a5a","5f60e3c0a3b16e07647b2ff9","5f60ef608178dc01b91aafde","false","null","<span style=""color: black; font-size: 48px"">N + M</span>","null","","","","resp_prompt","","","","","","","","","","","","","","","",""
"categorize-image","246","320055","0.0-4.0-1.0-1.41","s7r6fra6gnr0vwh","prime","5f3d5e296531630e53fb4a5a","5f60e3c0a3b16e07647b2ff9","5f60ef608178dc01b91aafde","true","638.6049999982934","./Stimuli/SelectedImages/LM/LM157.bmp","76","","","","test","true","N + M","76","switch","LM","LM157.bmp","forget","","90","3","prime1","right","","","",""
"html-keyboard-response","247","322064","0.0-4.0-1.0-3.41","s7r6fra6gnr0vwh","prime","5f3d5e296531630e53fb4a5a","5f60e3c0a3b16e07647b2ff9","5f60ef608178dc01b91aafde","false","null","<div style=""align-items: center; display: flex; color: darkorange; font-size: 90px""><b>ø</b></div>","null","","","","forget_cue","","","","","","","","","","","","","","","",""
"html-keyboard-response","248","322777","0.0-4.0-1.0-0.42","s7r6fra6gnr0vwh","prime","5f3d5e296531630e53fb4a5a","5f60e3c0a3b16e07647b2ff9","5f60ef608178dc01b91aafde","false","null","<span style=""color: black; font-size: 48px"">N + M</span>","null","","","","resp_prompt","","","","","","","","","","","","","","","",""
"categorize-image","249","323403","0.0-4.0-1.0-1.42","s7r6fra6gnr0vwh","prime","5f3d5e296531630e53fb4a5a","5f60e3c0a3b16e07647b2ff9","5f60ef608178dc01b91aafde","true","623.1899999984307","./Stimuli/SelectedImages/SM/SM195.bmp","76","","","","test","true","N + M","76","switch","SM","SM195.bmp","forget","","91","3","prime1","right","","","",""
"html-keyboard-response","250","325418","0.0-4.0-1.0-3.42","s7r6fra6gnr0vwh","prime","5f3d5e296531630e53fb4a5a","5f60e3c0a3b16e07647b2ff9","5f60ef608178dc01b91aafde","false","null","<div style=""align-items: center; display: flex; color: darkorange; font-size: 90px""><b>ø</b></div>","null","","","","forget_cue","","","","","","","","","","","","","","","",""
"html-keyboard-response","251","326130","0.0-4.0-1.0-0.43","s7r6fra6gnr0vwh","prime","5f3d5e296531630e53fb4a5a","5f60e3c0a3b16e07647b2ff9","5f60ef608178dc01b91aafde","false","null","<span style=""color: black; font-size: 48px"">N + M</span>","null","","","","resp_prompt","","","","","","","","","","","","","","","",""
"categorize-image","252","326678","0.0-4.0-1.0-1.43","s7r6fra6gnr0vwh","prime","5f3d5e296531630e53fb4a5a","5f60e3c0a3b16e07647b2ff9","5f60ef608178dc01b91aafde","true","546.159999999858","./Stimuli/SelectedImages/SN/SN64.bmp","83","","","","test","true","N + M","83","switch","SN","SN64.bmp","remember","","92","3","prime1","left","","","",""
"html-keyboard-response","253","328685","0.0-4.0-1.0-3.43","s7r6fra6gnr0vwh","prime","5f3d5e296531630e53fb4a5a","5f60e3c0a3b16e07647b2ff9","5f60ef608178dc01b91aafde","false","null","<div style=""align-items: center; display: flex; color: dodgerblue; font-size: 90px""><b>o</b></div>","null","","","","forget_cue","","","","","","","","","","","","","","","",""
