"trial_type","trial_index","time_elapsed","internal_node_id","subject","exp_part","prolific_PID","study_ID","session_ID","use","rt","stimulus","key_press","button_pressed","responses","question_order","trial_part","correct","resp_map","correct_resp","probe_condition","category","image","forget_condition","list","trial_num","block_num","block","response","test_part","n_span","sequence","num_spaces"
"pavlovia","0","23","0.0-0.0","lfded7sdmfu3640","","5f44ee515cff5c02f09c17be","5f60e3c0a3b16e07647b2ff9","5f6382a21ff19e0635358962","false","","","","","","","","","","","","","","","","","","","","","","",""
"html-keyboard-response","1","15476","0.0-1.0-0.0-0.0","lfded7sdmfu3640","welcome","5f44ee515cff5c02f09c17be","5f60e3c0a3b16e07647b2ff9","5f6382a21ff19e0635358962","false","15445.465000000695","<div align=left>Dear participant, <br> thank you for participating in an online study of the Cognition, Action, and Sustainability Unit of the University of Freiburg! <br> <br>The aim of this study is to examine our ability to remember previously learned information. <br>Our goal is to find out, whether our memory improves, when we only remember information that is relevant to us. <br>The experiment will take about 35 minutes to complete. <br> <br>Please, note that you can only participate in this study if you are using a device with a keyboard (PC, Laptop etc.) <br>and not if you are using a mobile device such as a tablet or smartphone.<br> <br>Press 'SPACE' to proceed to the experiment. </div>","32","","","","","","","","","","","","","","","","","","","",""
"html-keyboard-response","2","34302","0.0-1.0-0.0-1.0","lfded7sdmfu3640","welcome","5f44ee515cff5c02f09c17be","5f60e3c0a3b16e07647b2ff9","5f6382a21ff19e0635358962","false","18820.670000000973","<div align=left><strong> Time Course of this experiment: </strong> <br><br> <strong> 1.</strong>  First, please fill in some information regarding your demographic data. <br><br> <strong> 2.</strong>  Next, your task will be to classify everyday objects. <br>In addition, you will be asked to remember certain objects and recall them later. <br>Working on these tasks requires your undivided attention and concentration.<br>It is therefore essential that you eliminate any sources of distraction in your  <br>environment and ensure that you will not be disturbed. <br><br><strong> 3.</strong>  At the end of the experiment, you will be asked to answer a few additional questions. <br> <br><strong> Important:</strong> After finishing the experiment, only close the browser window <br> by clicking on the 'end the experiment'-button when you are asked to do so. <br>Closing the browser window prematurely will make the allocation of your participation credit impossible. <br><br> Press 'SPACE' to start the experiment. </div>","32","","","","","","","","","","","","","","","","","","","",""
"html-button-response","3","51240","0.0-1.0-0.0-2.0","lfded7sdmfu3640","welcome","5f44ee515cff5c02f09c17be","5f60e3c0a3b16e07647b2ff9","5f6382a21ff19e0635358962","true","16933.219999998983","<div align=left><strong> Informed consent </strong>  <br>The aim of our research is to better understand human behavior and mental processes. <br>In the following study your behavior (e.g. choices, reaction times) will be studied. <br> <br><strong> Voluntariness and Anonymity </strong> <br>Your participation in this study is  <strong> voluntary</strong>.<br>You may withdraw your consent to participate at any time without providing a reason for doing so and without fear of prejudice. <br><br>As no personal data will be collected, <strong>your data and your person cannot be connected after data collection</strong> – the data-set is anonymous. <br>Respectively, deletion of your data will not be possible after data collection has been completed, as we cannot retrace your data-set.<br>The results and anonymized data collected in this study will be published as a scientific publication. <br>This will happen in an <strong>anonymized format</strong>, so that no data can be traced back to a specific person. <br> <br>The anonymized data of this study will be made available to other researchers and/or in a data archive on the Internet as a means of transparency and to enable subsequent re-use. By doing so, this study follows the recommendations of the Deutsche Forschungsgemeinschaft (DFG, German Research Foundation) and Deutsche Gesellschaft für Psychologie (DGPS, German Psychological Society) regarding quality assurance in research.<br>If you have any questions now or after the experiment, please contact our team (experiments@cs.uni-freiburg.de).<br><br><br>I hereby declare, that I understand the above described conditions of participation and I agree to participate under these conditions. <br><br> </div>","","0","","","","","","","","","","","","","","","","","","",""
"html-keyboard-response","4","74632","0.0-1.0-0.0-3.0","lfded7sdmfu3640","welcome","5f44ee515cff5c02f09c17be","5f60e3c0a3b16e07647b2ff9","5f6382a21ff19e0635358962","false","23386.270000000877","<div align=left><strong> General information concerning the experiment </strong>  <br> <br>Please follow the instructions:<ol> <li><strong> Do not leave this tab (your browser window) during the experiment and do not reload this tab! </strong>  <br>If you do switch tabs/windows during the experiment (to check your mail or visit another website, for example), <br>the experiment will end automatically and you will <strong>not receive credit</strong> for your participation. <br>Repeated participation or resumption of the experiment is impossible.</li> <br><li>Please close all other programs for the duration of your participation. </li> <br><li>Please mute or turn off your phone and put it out of your reach. </li> <br><li>Please also take off any disturbing accessories (such as wristwatches, bracelets, etc.). </li> <br><li>If you have music playing in the background, please turn it off now. </li> <br></ol>Thank you! <br>Press 'SPACE' to continue. </div>","32","","","","","","","","","","","","","","","","","","","",""
"survey-text","5","78927","0.0-1.0-1.0-0.0","lfded7sdmfu3640","demographics","5f44ee515cff5c02f09c17be","5f60e3c0a3b16e07647b2ff9","5f6382a21ff19e0635358962","true","4282.1899999999005","","","","{""age"":""25""}","","","","","","","","","","","","","","","","","",""
"survey-multi-choice","6","118123","0.0-1.0-1.0-1.0","lfded7sdmfu3640","demographics","5f44ee515cff5c02f09c17be","5f60e3c0a3b16e07647b2ff9","5f6382a21ff19e0635358962","true","39186.995000000024","","","","{""gender"":""female"",""school"":""others"",""education"":""Completed university degree or equivalent""}","[0,1,2]","","","","","","","","","","","","","","","","",""
"html-keyboard-response","7","135734","0.0-1.0-2.0","lfded7sdmfu3640","instructions","5f44ee515cff5c02f09c17be","5f60e3c0a3b16e07647b2ff9","5f6382a21ff19e0635358962","false","17604.45000000071","<div align=left> The experiment is now about to start: <br> <br>In the following part, you will be presented pictures of everyday objects. <br>Your first task is to <strong>classify these objects. </strong> <br> <br> You will classify them either as mechanical or non-mechanical objects. <br> <br>Objects that include any kind of technical mechanism (for example, wheels, switches, levers, <br> electronic components) fall under the category of <strong>mechanical</strong> objects. <br>Only objects without any kind of technical mechanism should be classified as <strong>non-mechanical</strong>. <br><br>Press 'SPACE' to continue. </div>","32","","","","","","","","","","","","","","","","","","","",""
"html-keyboard-response","8","168742","0.0-2.0-0.0","lfded7sdmfu3640","instructions","5f44ee515cff5c02f09c17be","5f60e3c0a3b16e07647b2ff9","5f6382a21ff19e0635358962","false","33004.25999999972","<div align=justify>You will classify the objects using the <strong>'S'</strong> and the <strong>'L'</strong> keys on your keyboard.<br>For doing so, please place your <strong>left index finger</strong> on the <strong>'S'</strong> key and place your <strong>right index finger</strong> on the <strong>'L'</strong> key. <br><br> Each trial starts with an instruction, indicating which key ('S'/'L') you need to press to classify <br>the object as mechanical (letter M) or non-mechanical (letter N).<br>The instruction <strong>M + N</strong> indicates that, in the current trial, by pressing the left key ('S') you classify the displayed object as mechanical (M) <br> and by pressing the right key ('L') you classify the object as non-mechanical (N). <br>The instruction <strong>N + M</strong> on the other hand indicates that by pressing the left key ('S') you classify the displayed object as non-mechanical (N) <br> and by pressing the right key ('L') you classify the object as mechanical (M). <br><br>Please press the key corresponding to the correct classification as fast as possible as soon as the object is displayed and try to avoid making mistakes.<br>If you do not respond within a 2 second window, a corresponding feedback will be displayed and the next trial will start.<br> The experiment is divided into multiple blocks to give you the opportunity to take a break after each block. <br>First, you can now practice this task. <br><br>Please place your <strong>LEFT INDEX FINGER</strong> on the 'S' key and your <strong>RIGHT INDEX FINGER</strong> on the 'L' key now. <br><br>Press SPACE to continue.</div>","32","","","","","","","","","","","","","","","","","","","",""
"html-keyboard-response","9","176730","0.0-2.0-1.0","lfded7sdmfu3640","instructions","5f44ee515cff5c02f09c17be","5f60e3c0a3b16e07647b2ff9","5f6382a21ff19e0635358962","false","7985.505000000587","<div align=left> You will now have time to practice this task.<br><br>Remember: <br> <br><li>Please place your index fingers on the <strong>'S'</strong> and <strong>'L'</strong> keys <br>to respond as fast and accurately as possible.</li><li>Every picture can be classified as either mechanical or non-mechanical.</li><li>If you do not respond in time or commit an error, you will receive a corresponding feedback. </li><li> Please try to respond as <strong> fast </strong> and as <strong> accurately as possible </strong> .<br><li>To ensure optimal results, please minimize distractions and stay focused. </li><br><br>Press SPACE to continue.</div>","32","","","","","","","","","","","","","","","","","","","",""
"html-keyboard-response","10","177445","0.0-2.0-2.0-0.0","lfded7sdmfu3640","practice_no_cue","5f44ee515cff5c02f09c17be","5f60e3c0a3b16e07647b2ff9","5f6382a21ff19e0635358962","false","null","<span style=""color: black; font-size: 48px"">N + M</span>","null","","","","resp_prompt","","","","","","","","","","","","","","","",""
"categorize-image","11","178760","0.0-2.0-2.0-1.0","lfded7sdmfu3640","practice_no_cue","5f44ee515cff5c02f09c17be","5f60e3c0a3b16e07647b2ff9","5f6382a21ff19e0635358962","true","810.1050000004761","./Stimuli/ImagesPractice/SN205.jpg","76","","","","test","false","N + M","83","","SN","SN205.jpg","forget","old","1","1","start","right","","","",""
"html-keyboard-response","12","179464","0.0-2.0-2.0-0.1","lfded7sdmfu3640","practice_no_cue","5f44ee515cff5c02f09c17be","5f60e3c0a3b16e07647b2ff9","5f6382a21ff19e0635358962","false","null","<span style=""color: black; font-size: 48px"">M + N</span>","null","","","","resp_prompt","","","","","","","","","","","","","","","",""
"categorize-image","13","180556","0.0-2.0-2.0-1.1","lfded7sdmfu3640","practice_no_cue","5f44ee515cff5c02f09c17be","5f60e3c0a3b16e07647b2ff9","5f6382a21ff19e0635358962","true","585.4700000000012","./Stimuli/ImagesPractice/SM35.jpg","83","","","","test","true","M + N","83","","SM","SM35.jpg","forget","old","2","1","start","left","","","",""
"html-keyboard-response","14","181258","0.0-2.0-2.0-0.2","lfded7sdmfu3640","practice_no_cue","5f44ee515cff5c02f09c17be","5f60e3c0a3b16e07647b2ff9","5f6382a21ff19e0635358962","false","null","<span style=""color: black; font-size: 48px"">M + N</span>","null","","","","resp_prompt","","","","","","","","","","","","","","","",""
"categorize-image","15","182386","0.0-2.0-2.0-1.2","lfded7sdmfu3640","practice_no_cue","5f44ee515cff5c02f09c17be","5f60e3c0a3b16e07647b2ff9","5f6382a21ff19e0635358962","true","621.3999999999651","./Stimuli/ImagesPractice/SN222.jpg","76","","","","test","true","M + N","76","","SN","SN222.jpg","forget","old","3","1","start","right","","","",""
"html-keyboard-response","16","183093","0.0-2.0-2.0-0.3","lfded7sdmfu3640","practice_no_cue","5f44ee515cff5c02f09c17be","5f60e3c0a3b16e07647b2ff9","5f6382a21ff19e0635358962","false","null","<span style=""color: black; font-size: 48px"">M + N</span>","null","","","","resp_prompt","","","","","","","","","","","","","","","",""
"categorize-image","17","184242","0.0-2.0-2.0-1.3","lfded7sdmfu3640","practice_no_cue","5f44ee515cff5c02f09c17be","5f60e3c0a3b16e07647b2ff9","5f6382a21ff19e0635358962","true","643.1049999992247","./Stimuli/ImagesPractice/SN76.jpg","83","","","","test","false","M + N","76","","SN","SN76.jpg","remember","old","4","1","start","left","","","",""
"html-keyboard-response","18","184946","0.0-2.0-2.0-0.4","lfded7sdmfu3640","practice_no_cue","5f44ee515cff5c02f09c17be","5f60e3c0a3b16e07647b2ff9","5f6382a21ff19e0635358962","false","null","<span style=""color: black; font-size: 48px"">M + N</span>","null","","","","resp_prompt","","","","","","","","","","","","","","","",""
"categorize-image","19","186216","0.0-2.0-2.0-1.4","lfded7sdmfu3640","practice_no_cue","5f44ee515cff5c02f09c17be","5f60e3c0a3b16e07647b2ff9","5f6382a21ff19e0635358962","true","765.7999999992026","./Stimuli/ImagesPractice/LM143.jpg","76","","","","test","false","M + N","83","","LM","LM143.jpg","remember","old","5","1","start","right","","","",""
"html-keyboard-response","20","186920","0.0-2.0-2.0-0.5","lfded7sdmfu3640","practice_no_cue","5f44ee515cff5c02f09c17be","5f60e3c0a3b16e07647b2ff9","5f6382a21ff19e0635358962","false","null","<span style=""color: black; font-size: 48px"">N + M</span>","null","","","","resp_prompt","","","","","","","","","","","","","","","",""
"categorize-image","21","188017","0.0-2.0-2.0-1.5","lfded7sdmfu3640","practice_no_cue","5f44ee515cff5c02f09c17be","5f60e3c0a3b16e07647b2ff9","5f6382a21ff19e0635358962","true","591.46999999939","./Stimuli/ImagesPractice/SN75.jpg","83","","","","test","true","N + M","83","","SN","SN75.jpg","remember","old","6","1","start","left","","","",""
"html-keyboard-response","22","188723","0.0-2.0-2.0-0.6","lfded7sdmfu3640","practice_no_cue","5f44ee515cff5c02f09c17be","5f60e3c0a3b16e07647b2ff9","5f6382a21ff19e0635358962","false","null","<span style=""color: black; font-size: 48px"">M + N</span>","null","","","","resp_prompt","","","","","","","","","","","","","","","",""
"categorize-image","23","190173","0.0-2.0-2.0-1.6","lfded7sdmfu3640","practice_no_cue","5f44ee515cff5c02f09c17be","5f60e3c0a3b16e07647b2ff9","5f6382a21ff19e0635358962","true","941.4400000004971","./Stimuli/ImagesPractice/LN4.jpg","76","","","","test","true","M + N","76","","LN","LN4.jpg","forget","old","7","1","start","right","","","",""
"html-keyboard-response","24","190877","0.0-2.0-2.0-0.7","lfded7sdmfu3640","practice_no_cue","5f44ee515cff5c02f09c17be","5f60e3c0a3b16e07647b2ff9","5f6382a21ff19e0635358962","false","null","<span style=""color: black; font-size: 48px"">M + N</span>","null","","","","resp_prompt","","","","","","","","","","","","","","","",""
"categorize-image","25","192017","0.0-2.0-2.0-1.7","lfded7sdmfu3640","practice_no_cue","5f44ee515cff5c02f09c17be","5f60e3c0a3b16e07647b2ff9","5f6382a21ff19e0635358962","true","635.0750000001572","./Stimuli/ImagesPractice/LM239.jpg","76","","","","test","false","M + N","83","","LM","LM239.jpg","forget","old","8","1","start","right","","","",""
"html-keyboard-response","26","192724","0.0-2.0-2.0-0.8","lfded7sdmfu3640","practice_no_cue","5f44ee515cff5c02f09c17be","5f60e3c0a3b16e07647b2ff9","5f6382a21ff19e0635358962","false","null","<span style=""color: black; font-size: 48px"">N + M</span>","null","","","","resp_prompt","","","","","","","","","","","","","","","",""
"categorize-image","27","194024","0.0-2.0-2.0-1.8","lfded7sdmfu3640","practice_no_cue","5f44ee515cff5c02f09c17be","5f60e3c0a3b16e07647b2ff9","5f6382a21ff19e0635358962","true","796.6950000009092","./Stimuli/ImagesPractice/SM37.jpg","76","","","","test","true","N + M","76","","SM","SM37.jpg","remember","old","9","1","start","right","","","",""
"html-keyboard-response","28","194727","0.0-2.0-2.0-0.9","lfded7sdmfu3640","practice_no_cue","5f44ee515cff5c02f09c17be","5f60e3c0a3b16e07647b2ff9","5f6382a21ff19e0635358962","false","null","<span style=""color: black; font-size: 48px"">N + M</span>","null","","","","resp_prompt","","","","","","","","","","","","","","","",""
"categorize-image","29","195856","0.0-2.0-2.0-1.9","lfded7sdmfu3640","practice_no_cue","5f44ee515cff5c02f09c17be","5f60e3c0a3b16e07647b2ff9","5f6382a21ff19e0635358962","true","625.7949999999255","./Stimuli/ImagesPractice/LM224.jpg","76","","","","test","true","N + M","76","","LM","LM224.jpg","forget","old","10","1","start","right","","","",""
"html-keyboard-response","30","196557","0.0-2.0-2.0-0.10","lfded7sdmfu3640","practice_no_cue","5f44ee515cff5c02f09c17be","5f60e3c0a3b16e07647b2ff9","5f6382a21ff19e0635358962","false","null","<span style=""color: black; font-size: 48px"">M + N</span>","null","","","","resp_prompt","","","","","","","","","","","","","","","",""
"categorize-image","31","197756","0.0-2.0-2.0-1.10","lfded7sdmfu3640","practice_no_cue","5f44ee515cff5c02f09c17be","5f60e3c0a3b16e07647b2ff9","5f6382a21ff19e0635358962","true","690.6400000007125","./Stimuli/ImagesPractice/LN72.jpg","76","","","","test","true","M + N","76","","LN","LN72.jpg","remember","old","11","1","start","right","","","",""
"html-keyboard-response","32","198464","0.0-2.0-2.0-0.11","lfded7sdmfu3640","practice_no_cue","5f44ee515cff5c02f09c17be","5f60e3c0a3b16e07647b2ff9","5f6382a21ff19e0635358962","false","null","<span style=""color: black; font-size: 48px"">N + M</span>","null","","","","resp_prompt","","","","","","","","","","","","","","","",""
"categorize-image","33","199588","0.0-2.0-2.0-1.11","lfded7sdmfu3640","practice_no_cue","5f44ee515cff5c02f09c17be","5f60e3c0a3b16e07647b2ff9","5f6382a21ff19e0635358962","true","615.8950000008335","./Stimuli/ImagesPractice/SM97.jpg","76","","","","test","true","N + M","76","","SM","SM97.jpg","remember","old","12","1","start","right","","","",""
"html-keyboard-response","34","200290","0.0-2.0-2.0-0.12","lfded7sdmfu3640","practice_no_cue","5f44ee515cff5c02f09c17be","5f60e3c0a3b16e07647b2ff9","5f6382a21ff19e0635358962","false","null","<span style=""color: black; font-size: 48px"">N + M</span>","null","","","","resp_prompt","","","","","","","","","","","","","","","",""
"categorize-image","35","201547","0.0-2.0-2.0-1.12","lfded7sdmfu3640","practice_no_cue","5f44ee515cff5c02f09c17be","5f60e3c0a3b16e07647b2ff9","5f6382a21ff19e0635358962","true","750.4300000000512","./Stimuli/ImagesPractice/SM62.jpg","83","","","","test","false","N + M","76","","SM","SM62.jpg","remember","old","13","1","start","left","","","",""
"html-keyboard-response","36","202249","0.0-2.0-2.0-0.13","lfded7sdmfu3640","practice_no_cue","5f44ee515cff5c02f09c17be","5f60e3c0a3b16e07647b2ff9","5f6382a21ff19e0635358962","false","null","<span style=""color: black; font-size: 48px"">M + N</span>","null","","","","resp_prompt","","","","","","","","","","","","","","","",""
"categorize-image","37","203517","0.0-2.0-2.0-1.13","lfded7sdmfu3640","practice_no_cue","5f44ee515cff5c02f09c17be","5f60e3c0a3b16e07647b2ff9","5f6382a21ff19e0635358962","true","761.419999998936","./Stimuli/ImagesPractice/LN2.jpg","76","","","","test","true","M + N","76","","LN","LN2.jpg","remember","old","14","1","start","right","","","",""
"html-keyboard-response","38","204222","0.0-2.0-2.0-0.14","lfded7sdmfu3640","practice_no_cue","5f44ee515cff5c02f09c17be","5f60e3c0a3b16e07647b2ff9","5f6382a21ff19e0635358962","false","null","<span style=""color: black; font-size: 48px"">N + M</span>","null","","","","resp_prompt","","","","","","","","","","","","","","","",""
"categorize-image","39","205424","0.0-2.0-2.0-1.14","lfded7sdmfu3640","practice_no_cue","5f44ee515cff5c02f09c17be","5f60e3c0a3b16e07647b2ff9","5f6382a21ff19e0635358962","true","698.6550000001444","./Stimuli/ImagesPractice/LN17.jpg","83","","","","test","true","N + M","83","","LN","LN17.jpg","forget","old","15","1","start","left","","","",""
"html-keyboard-response","40","206130","0.0-2.0-2.0-0.15","lfded7sdmfu3640","practice_no_cue","5f44ee515cff5c02f09c17be","5f60e3c0a3b16e07647b2ff9","5f6382a21ff19e0635358962","false","null","<span style=""color: black; font-size: 48px"">N + M</span>","null","","","","resp_prompt","","","","","","","","","","","","","","","",""
"categorize-image","41","207339","0.0-2.0-2.0-1.15","lfded7sdmfu3640","practice_no_cue","5f44ee515cff5c02f09c17be","5f60e3c0a3b16e07647b2ff9","5f6382a21ff19e0635358962","true","703.1699999988778","./Stimuli/ImagesPractice/LM230.jpg","76","","","","test","true","N + M","76","","LM","LM230.jpg","forget","old","16","1","start","right","","","",""
"html-keyboard-response","42","212347","0.0-2.0-3.0","lfded7sdmfu3640","break","5f44ee515cff5c02f09c17be","5f60e3c0a3b16e07647b2ff9","5f6382a21ff19e0635358962","false","5003.479999999399","<p style='font-size: 32px;'>Break</><br><br><br><br><br><p style='font-size: 24px;'>In the last block, you committed 5 errors and did not respond in time on 0 trials.
</p><p style='font-size: 24px;'>Try to respond as fast and accurately as possible in the next block as well! </p><p style='font-size: 24px;'>Press SPACE to continue.</p>","32","","","","","","","","","","","","","","","","","","","",""
"html-keyboard-response","43","217236","0.0-2.0-4.0","lfded7sdmfu3640","instructions","5f44ee515cff5c02f09c17be","5f60e3c0a3b16e07647b2ff9","5f6382a21ff19e0635358962","false","4884.594999999565","<div align=left> Great!<br><br>Are you ready to continue?<br><br>If you want to reread the instructions and redo the practice trials, <br>please press „Z“. <br><br>Press SPACE to CONTINUE with the experiment when you are ready. </div>","32","","","","","","","","","","","","","","","","","","","",""
"html-keyboard-response","44","240420","0.0-3.0-0.0","lfded7sdmfu3640","instructions","5f44ee515cff5c02f09c17be","5f60e3c0a3b16e07647b2ff9","5f6382a21ff19e0635358962","false","23179.65499999991","<div align=left>Great!<br> <strong>Attention</strong>! You will now receive a second, additional task! <br><br>To this point it was you <strong>first task</strong> to correctly <strong>classify objects</strong>. <br><br>As mentioned in the beginning, we aim to examine how well humans can remember previously learned information.<br>We would like to find out whether our memory improves if we only remember information that is relevant to us. <br><br>Therefore, your <strong>second task</strong> will be to <strong>remember</strong> the pictures you are to categorize. <br> After the learning phase, there will be a memory test phase, in which you will be asked to indicate whether you have seen a picture before or not. <br>Some, but not all pictures shown in the learning phase will appear in the memory test phase.<br>After classifying a picture, you will be told whether you should remember it for the memory test phase or not. <br>Thus, some pictures can be forgotten, whereas others have to be remembered. <br><br>Note: From now on, feedback will only be displayed if you responded incorrectly or not in time.<br><br>Press SPACE to continue.</div>","32","","","","","","","","","","","","","","","","","","","",""
"html-keyboard-response","45","258338","0.0-3.0-1.0","lfded7sdmfu3640","instructions","5f44ee515cff5c02f09c17be","5f60e3c0a3b16e07647b2ff9","5f6382a21ff19e0635358962","false","17915.575000000943","<div align=left>In the following part, you will thus have to remember only some pictures. <br>Immediately after seeing and classifying the picture, a symbol will be displayed, indicating whether you should remember or forget the previous picture. <br><br>A <span style='color: dodgerblue; font-size: 28px'>O</span> indicates REMEMBER. That means, you have to remember this picture, because it will be tested later. <br><br>A <span style='color: darkorange; font-size:28px'>Ø</span> indicates FORGET. You do not have to remember this picture. <br><br> As you will have to remember a lot of pictures, it will be hard for you to remember all of them. <br>It will put you at an advantage if you instantly forget the pictures you are not asked to remember. <br> This will make it easier for you to remember the pictures that will be tested afterwards. <br><br>Press SPACE to continue.</div>","32","","","","","","","","","","","","","","","","","","","",""
"html-keyboard-response","46","268585","0.0-3.0-2.0","lfded7sdmfu3640","instructions","5f44ee515cff5c02f09c17be","5f60e3c0a3b16e07647b2ff9","5f6382a21ff19e0635358962","false","10243.894999999611","<div align=left> Now you have the chance to practice both tasks together.<br><br>Remember: <br> <br><li>Please place your index fingers on the <strong>'S'</strong> and <strong>'L'</strong> keys <br>to respond as fast and accurately as possible.</li><li>Every picture can be classified as either mechanical or non-mechanical.</li><li>If you do not respond in time or commit an error, you will receive a corresponding feedback. <br>Please try to respond as <strong> fast </strong> and as <strong> accurately as possible </strong>.</li><li> Please remember only the to-be-remembered <span style='color: dodgerblue; font-size: 28px'>O</span> pictures. <br></li><li> Please minimize distractions and stay focused. </li><br><br>Press SPACE to START</div>","32","","","","","","","","","","","","","","","","","","","",""
"html-keyboard-response","47","269291","0.0-3.0-3.0-0.0","lfded7sdmfu3640","practice_cue","5f44ee515cff5c02f09c17be","5f60e3c0a3b16e07647b2ff9","5f6382a21ff19e0635358962","false","null","<span style=""color: black; font-size: 48px"">M + N</span>","null","","","","resp_prompt","","","","","","","","","","","","","","","",""
"categorize-image","48","269835","0.0-3.0-3.0-1.0","lfded7sdmfu3640","practice_cue","5f44ee515cff5c02f09c17be","5f60e3c0a3b16e07647b2ff9","5f6382a21ff19e0635358962","true","536.1299999986077","./Stimuli/ImagesPractice/SN222.jpg","76","","","","test","true","M + N","76","","SN","SN222.jpg","forget","old","17","2","practice_forget","right","","","",""
"html-keyboard-response","49","271843","0.0-3.0-3.0-3.0","lfded7sdmfu3640","practice_cue","5f44ee515cff5c02f09c17be","5f60e3c0a3b16e07647b2ff9","5f6382a21ff19e0635358962","false","null","<div style=""align-items: center; display: flex; color: darkorange; font-size: 90px""><b>ø</b></div>","null","","","","forget_cue","","","","","","","","","","","","","","","",""
"html-keyboard-response","50","272549","0.0-3.0-3.0-0.1","lfded7sdmfu3640","practice_cue","5f44ee515cff5c02f09c17be","5f60e3c0a3b16e07647b2ff9","5f6382a21ff19e0635358962","false","null","<span style=""color: black; font-size: 48px"">N + M</span>","null","","","","resp_prompt","","","","","","","","","","","","","","","",""
"categorize-image","51","273283","0.0-3.0-3.0-1.1","lfded7sdmfu3640","practice_cue","5f44ee515cff5c02f09c17be","5f60e3c0a3b16e07647b2ff9","5f6382a21ff19e0635358962","true","727.9799999996903","./Stimuli/ImagesPractice/LM230.jpg","76","","","","test","true","N + M","76","","LM","LM230.jpg","forget","old","18","2","practice_forget","right","","","",""
"html-keyboard-response","52","275289","0.0-3.0-3.0-3.1","lfded7sdmfu3640","practice_cue","5f44ee515cff5c02f09c17be","5f60e3c0a3b16e07647b2ff9","5f6382a21ff19e0635358962","false","null","<div style=""align-items: center; display: flex; color: darkorange; font-size: 90px""><b>ø</b></div>","null","","","","forget_cue","","","","","","","","","","","","","","","",""
"html-keyboard-response","53","275992","0.0-3.0-3.0-0.2","lfded7sdmfu3640","practice_cue","5f44ee515cff5c02f09c17be","5f60e3c0a3b16e07647b2ff9","5f6382a21ff19e0635358962","false","null","<span style=""color: black; font-size: 48px"">N + M</span>","null","","","","resp_prompt","","","","","","","","","","","","","","","",""
"categorize-image","54","276795","0.0-3.0-3.0-1.2","lfded7sdmfu3640","practice_cue","5f44ee515cff5c02f09c17be","5f60e3c0a3b16e07647b2ff9","5f6382a21ff19e0635358962","true","796.2150000003166","./Stimuli/ImagesPractice/SM62.jpg","76","","","","test","true","N + M","76","","SM","SM62.jpg","remember","old","19","2","practice_forget","right","","","",""
"html-keyboard-response","55","278798","0.0-3.0-3.0-3.2","lfded7sdmfu3640","practice_cue","5f44ee515cff5c02f09c17be","5f60e3c0a3b16e07647b2ff9","5f6382a21ff19e0635358962","false","null","<div style=""align-items: center; display: flex; color: dodgerblue; font-size: 90px""><b>o</b></div>","null","","","","forget_cue","","","","","","","","","","","","","","","",""
"html-keyboard-response","56","279502","0.0-3.0-3.0-0.3","lfded7sdmfu3640","practice_cue","5f44ee515cff5c02f09c17be","5f60e3c0a3b16e07647b2ff9","5f6382a21ff19e0635358962","false","null","<span style=""color: black; font-size: 48px"">M + N</span>","null","","","","resp_prompt","","","","","","","","","","","","","","","",""
"categorize-image","57","280101","0.0-3.0-3.0-1.3","lfded7sdmfu3640","practice_cue","5f44ee515cff5c02f09c17be","5f60e3c0a3b16e07647b2ff9","5f6382a21ff19e0635358962","true","591.1849999992992","./Stimuli/ImagesPractice/LM143.jpg","83","","","","test","true","M + N","83","","LM","LM143.jpg","remember","old","20","2","practice_forget","left","","","",""
"html-keyboard-response","58","282108","0.0-3.0-3.0-3.3","lfded7sdmfu3640","practice_cue","5f44ee515cff5c02f09c17be","5f60e3c0a3b16e07647b2ff9","5f6382a21ff19e0635358962","false","null","<div style=""align-items: center; display: flex; color: dodgerblue; font-size: 90px""><b>o</b></div>","null","","","","forget_cue","","","","","","","","","","","","","","","",""
"html-keyboard-response","59","282811","0.0-3.0-3.0-0.4","lfded7sdmfu3640","practice_cue","5f44ee515cff5c02f09c17be","5f60e3c0a3b16e07647b2ff9","5f6382a21ff19e0635358962","false","null","<span style=""color: black; font-size: 48px"">M + N</span>","null","","","","resp_prompt","","","","","","","","","","","","","","","",""
"categorize-image","60","283585","0.0-3.0-3.0-1.4","lfded7sdmfu3640","practice_cue","5f44ee515cff5c02f09c17be","5f60e3c0a3b16e07647b2ff9","5f6382a21ff19e0635358962","true","767.7250000015483","./Stimuli/ImagesPractice/SM35.jpg","83","","","","test","true","M + N","83","","SM","SM35.jpg","forget","old","21","2","practice_forget","left","","","",""
"html-keyboard-response","61","285592","0.0-3.0-3.0-3.4","lfded7sdmfu3640","practice_cue","5f44ee515cff5c02f09c17be","5f60e3c0a3b16e07647b2ff9","5f6382a21ff19e0635358962","false","null","<div style=""align-items: center; display: flex; color: darkorange; font-size: 90px""><b>ø</b></div>","null","","","","forget_cue","","","","","","","","","","","","","","","",""
"html-keyboard-response","62","286297","0.0-3.0-3.0-0.5","lfded7sdmfu3640","practice_cue","5f44ee515cff5c02f09c17be","5f60e3c0a3b16e07647b2ff9","5f6382a21ff19e0635358962","false","null","<span style=""color: black; font-size: 48px"">M + N</span>","null","","","","resp_prompt","","","","","","","","","","","","","","","",""
"categorize-image","63","286993","0.0-3.0-3.0-1.5","lfded7sdmfu3640","practice_cue","5f44ee515cff5c02f09c17be","5f60e3c0a3b16e07647b2ff9","5f6382a21ff19e0635358962","true","689.8550000005052","./Stimuli/ImagesPractice/LN4.jpg","76","","","","test","true","M + N","76","","LN","LN4.jpg","forget","old","22","2","practice_forget","right","","","",""
"html-keyboard-response","64","289002","0.0-3.0-3.0-3.5","lfded7sdmfu3640","practice_cue","5f44ee515cff5c02f09c17be","5f60e3c0a3b16e07647b2ff9","5f6382a21ff19e0635358962","false","null","<div style=""align-items: center; display: flex; color: darkorange; font-size: 90px""><b>ø</b></div>","null","","","","forget_cue","","","","","","","","","","","","","","","",""
"html-keyboard-response","65","289708","0.0-3.0-3.0-0.6","lfded7sdmfu3640","practice_cue","5f44ee515cff5c02f09c17be","5f60e3c0a3b16e07647b2ff9","5f6382a21ff19e0635358962","false","null","<span style=""color: black; font-size: 48px"">M + N</span>","null","","","","resp_prompt","","","","","","","","","","","","","","","",""
"categorize-image","66","290636","0.0-3.0-3.0-1.6","lfded7sdmfu3640","practice_cue","5f44ee515cff5c02f09c17be","5f60e3c0a3b16e07647b2ff9","5f6382a21ff19e0635358962","true","919.4499999993714","./Stimuli/ImagesPractice/LN2.jpg","76","","","","test","true","M + N","76","","LN","LN2.jpg","remember","old","23","2","practice_forget","right","","","",""
"html-keyboard-response","67","292642","0.0-3.0-3.0-3.6","lfded7sdmfu3640","practice_cue","5f44ee515cff5c02f09c17be","5f60e3c0a3b16e07647b2ff9","5f6382a21ff19e0635358962","false","null","<div style=""align-items: center; display: flex; color: dodgerblue; font-size: 90px""><b>o</b></div>","null","","","","forget_cue","","","","","","","","","","","","","","","",""
"html-keyboard-response","68","293345","0.0-3.0-3.0-0.7","lfded7sdmfu3640","practice_cue","5f44ee515cff5c02f09c17be","5f60e3c0a3b16e07647b2ff9","5f6382a21ff19e0635358962","false","null","<span style=""color: black; font-size: 48px"">N + M</span>","null","","","","resp_prompt","","","","","","","","","","","","","","","",""
"categorize-image","69","293906","0.0-3.0-3.0-1.7","lfded7sdmfu3640","practice_cue","5f44ee515cff5c02f09c17be","5f60e3c0a3b16e07647b2ff9","5f6382a21ff19e0635358962","true","554.1749999992899","./Stimuli/ImagesPractice/LN17.jpg","83","","","","test","true","N + M","83","","LN","LN17.jpg","forget","old","24","2","practice_forget","left","","","",""
"html-keyboard-response","70","295909","0.0-3.0-3.0-3.7","lfded7sdmfu3640","practice_cue","5f44ee515cff5c02f09c17be","5f60e3c0a3b16e07647b2ff9","5f6382a21ff19e0635358962","false","null","<div style=""align-items: center; display: flex; color: darkorange; font-size: 90px""><b>ø</b></div>","null","","","","forget_cue","","","","","","","","","","","","","","","",""
"html-keyboard-response","71","296612","0.0-3.0-3.0-0.8","lfded7sdmfu3640","practice_cue","5f44ee515cff5c02f09c17be","5f60e3c0a3b16e07647b2ff9","5f6382a21ff19e0635358962","false","null","<span style=""color: black; font-size: 48px"">M + N</span>","null","","","","resp_prompt","","","","","","","","","","","","","","","",""
"categorize-image","72","297338","0.0-3.0-3.0-1.8","lfded7sdmfu3640","practice_cue","5f44ee515cff5c02f09c17be","5f60e3c0a3b16e07647b2ff9","5f6382a21ff19e0635358962","true","719.4349999990081","./Stimuli/ImagesPractice/SN76.jpg","76","","","","test","true","M + N","76","","SN","SN76.jpg","remember","old","25","2","practice_forget","right","","","",""
"html-keyboard-response","73","299342","0.0-3.0-3.0-3.8","lfded7sdmfu3640","practice_cue","5f44ee515cff5c02f09c17be","5f60e3c0a3b16e07647b2ff9","5f6382a21ff19e0635358962","false","null","<div style=""align-items: center; display: flex; color: dodgerblue; font-size: 90px""><b>o</b></div>","null","","","","forget_cue","","","","","","","","","","","","","","","",""
"html-keyboard-response","74","300048","0.0-3.0-3.0-0.9","lfded7sdmfu3640","practice_cue","5f44ee515cff5c02f09c17be","5f60e3c0a3b16e07647b2ff9","5f6382a21ff19e0635358962","false","null","<span style=""color: black; font-size: 48px"">N + M</span>","null","","","","resp_prompt","","","","","","","","","","","","","","","",""
"categorize-image","75","300796","0.0-3.0-3.0-1.9","lfded7sdmfu3640","practice_cue","5f44ee515cff5c02f09c17be","5f60e3c0a3b16e07647b2ff9","5f6382a21ff19e0635358962","true","740.2650000003632","./Stimuli/ImagesPractice/LM224.jpg","83","","","","test","false","N + M","76","","LM","LM224.jpg","forget","old","26","2","practice_forget","left","","","",""
"html-keyboard-response","76","301299","0.0-3.0-3.0-2.9-0.9","lfded7sdmfu3640","practice_cue","5f44ee515cff5c02f09c17be","5f60e3c0a3b16e07647b2ff9","5f6382a21ff19e0635358962","false","null","<span style=""color: red; font-size: 48px"">Error!</span>","null","","","","feedback","","","","","","","","","","","","","","","",""
"html-keyboard-response","77","303302","0.0-3.0-3.0-3.9","lfded7sdmfu3640","practice_cue","5f44ee515cff5c02f09c17be","5f60e3c0a3b16e07647b2ff9","5f6382a21ff19e0635358962","false","null","<div style=""align-items: center; display: flex; color: darkorange; font-size: 90px""><b>ø</b></div>","null","","","","forget_cue","","","","","","","","","","","","","","","",""
"html-keyboard-response","78","304009","0.0-3.0-3.0-0.10","lfded7sdmfu3640","practice_cue","5f44ee515cff5c02f09c17be","5f60e3c0a3b16e07647b2ff9","5f6382a21ff19e0635358962","false","null","<span style=""color: black; font-size: 48px"">N + M</span>","null","","","","resp_prompt","","","","","","","","","","","","","","","",""
"categorize-image","79","304950","0.0-3.0-3.0-1.10","lfded7sdmfu3640","practice_cue","5f44ee515cff5c02f09c17be","5f60e3c0a3b16e07647b2ff9","5f6382a21ff19e0635358962","true","933.4800000014948","./Stimuli/ImagesPractice/SN75.jpg","76","","","","test","false","N + M","83","","SN","SN75.jpg","remember","old","27","2","practice_forget","right","","","",""
"html-keyboard-response","80","305452","0.0-3.0-3.0-2.10-0.10","lfded7sdmfu3640","practice_cue","5f44ee515cff5c02f09c17be","5f60e3c0a3b16e07647b2ff9","5f6382a21ff19e0635358962","false","null","<span style=""color: red; font-size: 48px"">Error!</span>","null","","","","feedback","","","","","","","","","","","","","","","",""
"html-keyboard-response","81","307455","0.0-3.0-3.0-3.10","lfded7sdmfu3640","practice_cue","5f44ee515cff5c02f09c17be","5f60e3c0a3b16e07647b2ff9","5f6382a21ff19e0635358962","false","null","<div style=""align-items: center; display: flex; color: dodgerblue; font-size: 90px""><b>o</b></div>","null","","","","forget_cue","","","","","","","","","","","","","","","",""
"html-keyboard-response","82","308159","0.0-3.0-3.0-0.11","lfded7sdmfu3640","practice_cue","5f44ee515cff5c02f09c17be","5f60e3c0a3b16e07647b2ff9","5f6382a21ff19e0635358962","false","null","<span style=""color: black; font-size: 48px"">M + N</span>","null","","","","resp_prompt","","","","","","","","","","","","","","","",""
"categorize-image","83","309054","0.0-3.0-3.0-1.11","lfded7sdmfu3640","practice_cue","5f44ee515cff5c02f09c17be","5f60e3c0a3b16e07647b2ff9","5f6382a21ff19e0635358962","true","887.6749999999884","./Stimuli/ImagesPractice/LM239.jpg","76","","","","test","false","M + N","83","","LM","LM239.jpg","forget","old","28","2","practice_forget","right","","","",""
"html-keyboard-response","84","309557","0.0-3.0-3.0-2.11-0.11","lfded7sdmfu3640","practice_cue","5f44ee515cff5c02f09c17be","5f60e3c0a3b16e07647b2ff9","5f6382a21ff19e0635358962","false","null","<span style=""color: red; font-size: 48px"">Error!</span>","null","","","","feedback","","","","","","","","","","","","","","","",""
"html-keyboard-response","85","311561","0.0-3.0-3.0-3.11","lfded7sdmfu3640","practice_cue","5f44ee515cff5c02f09c17be","5f60e3c0a3b16e07647b2ff9","5f6382a21ff19e0635358962","false","null","<div style=""align-items: center; display: flex; color: darkorange; font-size: 90px""><b>ø</b></div>","null","","","","forget_cue","","","","","","","","","","","","","","","",""
"html-keyboard-response","86","312268","0.0-3.0-3.0-0.12","lfded7sdmfu3640","practice_cue","5f44ee515cff5c02f09c17be","5f60e3c0a3b16e07647b2ff9","5f6382a21ff19e0635358962","false","null","<span style=""color: black; font-size: 48px"">M + N</span>","null","","","","resp_prompt","","","","","","","","","","","","","","","",""
"categorize-image","87","313087","0.0-3.0-3.0-1.12","lfded7sdmfu3640","practice_cue","5f44ee515cff5c02f09c17be","5f60e3c0a3b16e07647b2ff9","5f6382a21ff19e0635358962","true","812.470000000787","./Stimuli/ImagesPractice/LN72.jpg","76","","","","test","true","M + N","76","","LN","LN72.jpg","remember","old","29","2","practice_forget","right","","","",""
"html-keyboard-response","88","315089","0.0-3.0-3.0-3.12","lfded7sdmfu3640","practice_cue","5f44ee515cff5c02f09c17be","5f60e3c0a3b16e07647b2ff9","5f6382a21ff19e0635358962","false","null","<div style=""align-items: center; display: flex; color: dodgerblue; font-size: 90px""><b>o</b></div>","null","","","","forget_cue","","","","","","","","","","","","","","","",""
"html-keyboard-response","89","315793","0.0-3.0-3.0-0.13","lfded7sdmfu3640","practice_cue","5f44ee515cff5c02f09c17be","5f60e3c0a3b16e07647b2ff9","5f6382a21ff19e0635358962","false","null","<span style=""color: black; font-size: 48px"">N + M</span>","null","","","","resp_prompt","","","","","","","","","","","","","","","",""
"categorize-image","90","316774","0.0-3.0-3.0-1.13","lfded7sdmfu3640","practice_cue","5f44ee515cff5c02f09c17be","5f60e3c0a3b16e07647b2ff9","5f6382a21ff19e0635358962","true","974.0950000014273","./Stimuli/ImagesPractice/SM37.jpg","76","","","","test","true","N + M","76","","SM","SM37.jpg","remember","old","30","2","practice_forget","right","","","",""
"html-keyboard-response","91","318780","0.0-3.0-3.0-3.13","lfded7sdmfu3640","practice_cue","5f44ee515cff5c02f09c17be","5f60e3c0a3b16e07647b2ff9","5f6382a21ff19e0635358962","false","null","<div style=""align-items: center; display: flex; color: dodgerblue; font-size: 90px""><b>o</b></div>","null","","","","forget_cue","","","","","","","","","","","","","","","",""
"html-keyboard-response","92","319483","0.0-3.0-3.0-0.14","lfded7sdmfu3640","practice_cue","5f44ee515cff5c02f09c17be","5f60e3c0a3b16e07647b2ff9","5f6382a21ff19e0635358962","false","null","<span style=""color: black; font-size: 48px"">N + M</span>","null","","","","resp_prompt","","","","","","","","","","","","","","","",""
"categorize-image","93","320318","0.0-3.0-3.0-1.14","lfded7sdmfu3640","practice_cue","5f44ee515cff5c02f09c17be","5f60e3c0a3b16e07647b2ff9","5f6382a21ff19e0635358962","true","827.8699999991804","./Stimuli/ImagesPractice/SN205.jpg","83","","","","test","true","N + M","83","","SN","SN205.jpg","forget","old","31","2","practice_forget","left","","","",""
"html-keyboard-response","94","322321","0.0-3.0-3.0-3.14","lfded7sdmfu3640","practice_cue","5f44ee515cff5c02f09c17be","5f60e3c0a3b16e07647b2ff9","5f6382a21ff19e0635358962","false","null","<div style=""align-items: center; display: flex; color: darkorange; font-size: 90px""><b>ø</b></div>","null","","","","forget_cue","","","","","","","","","","","","","","","",""
"html-keyboard-response","95","323026","0.0-3.0-3.0-0.15","lfded7sdmfu3640","practice_cue","5f44ee515cff5c02f09c17be","5f60e3c0a3b16e07647b2ff9","5f6382a21ff19e0635358962","false","null","<span style=""color: black; font-size: 48px"">N + M</span>","null","","","","resp_prompt","","","","","","","","","","","","","","","",""
"categorize-image","96","323840","0.0-3.0-3.0-1.15","lfded7sdmfu3640","practice_cue","5f44ee515cff5c02f09c17be","5f60e3c0a3b16e07647b2ff9","5f6382a21ff19e0635358962","true","806.2049999989686","./Stimuli/ImagesPractice/SM97.jpg","76","","","","test","true","N + M","76","","SM","SM97.jpg","remember","old","32","2","practice_forget","right","","","",""
"html-keyboard-response","97","325844","0.0-3.0-3.0-3.15","lfded7sdmfu3640","practice_cue","5f44ee515cff5c02f09c17be","5f60e3c0a3b16e07647b2ff9","5f6382a21ff19e0635358962","false","null","<div style=""align-items: center; display: flex; color: dodgerblue; font-size: 90px""><b>o</b></div>","null","","","","forget_cue","","","","","","","","","","","","","","","",""
"html-keyboard-response","98","329767","0.0-3.0-4.0","lfded7sdmfu3640","break","5f44ee515cff5c02f09c17be","5f60e3c0a3b16e07647b2ff9","5f6382a21ff19e0635358962","false","3920.6500000000233","<p style='font-size: 32px;'>Break</><br><br><br><br><br><p style='font-size: 24px;'>In the last block, you committed 3 errors and did not respond in time on 0 trials.
</p><p style='font-size: 24px;'>Try to respond as fast and accurately as possible in the next block as well! </p><p style='font-size: 24px;'>Press SPACE to continue.</p>","32","","","","","","","","","","","","","","","","","","","",""
"html-keyboard-response","99","352065","0.0-3.0-5.0","lfded7sdmfu3640","instructions","5f44ee515cff5c02f09c17be","5f60e3c0a3b16e07647b2ff9","5f6382a21ff19e0635358962","false","22294.464999999036","<div align=left> Now, to practice, we kindly ask you to remember as many of the to-be-remembered pictures<br>of the previous learning phase as possible.<br><br>The pictures you were instructed to remember were the pictures followed by a <span style='color: dodgerblue; font-size: 28px'>O</span>.<br><br>In this memory test phase, you will also see some new pictures.<br>It is your task to remember whether you were presented with this specific picture in this study so far or not.<br>If you recognize an object (you have already seen it in this study), it is an OLD object. <br>If you do not recognize an object (you have NOT seen it in this study), it is a NEW object. <br><strong> Attention</strong>: As already mentioned, <span style='color: darkorange; font-size:28px'>Ø</span>-pictures will <strong>never</strong> appear in this memory test (neither as new objects). <br><br>Press SPACE to continue. </div>","32","","","","","","","","","","","","","","","","","","","",""
"html-keyboard-response","100","381669","0.0-3.0-6.0","lfded7sdmfu3640","instructions","5f44ee515cff5c02f09c17be","5f60e3c0a3b16e07647b2ff9","5f6382a21ff19e0635358962","false","29599.68999999913","<div align=left> M and N no longer will appear on the left/right of the fixation cross. <br>Instead there will be a note at the bottom of the left or right side  <br>indicating which key you should press for an old or new object:  <br> <br>Press the <strong>right</strong> key to classify an object as <strong>old</strong> and press the <strong>left</strong>, to classify an object as <strong>new</strong>.<br>Please classify the objects as new/old by again placing your index finger on the 'S' and 'L' keys <br>and press them accordingly.<br><br><strong>Old:</strong> This object has been presented before. <br><strong>New:</strong> This object has <strong>not</strong> been presented.<br><br>Now please put your right and left index fingers on the 'S' and 'L' keys of your keyboard. <br>Please respond as fast and as accurately as possible!<br><br>Press SPACE to continue. </div>","32","","","","","","","","","","","","","","","","","","","",""
"categorize-image","101","383515","0.0-3.0-7.0-0.0","lfded7sdmfu3640","practice_recog","5f44ee515cff5c02f09c17be","5f60e3c0a3b16e07647b2ff9","5f6382a21ff19e0635358962","true","1336.6400000013527","./Stimuli/ImagesPractice/LM55.jpg","83","","","","test","false","","76","","LM","LM55.jpg","","new","33","3","practice_recog","left","","","",""
"categorize-image","102","386891","0.0-3.0-7.0-0.1","lfded7sdmfu3640","practice_recog","5f44ee515cff5c02f09c17be","5f60e3c0a3b16e07647b2ff9","5f6382a21ff19e0635358962","true","2867.945000000007","./Stimuli/ImagesPractice/SN220.jpg","76","","","","test","true","","76","","SN","SN220.jpg","","new","34","3","practice_recog","right","","","",""
"categorize-image","103","388729","0.0-3.0-7.0-0.2","lfded7sdmfu3640","practice_recog","5f44ee515cff5c02f09c17be","5f60e3c0a3b16e07647b2ff9","5f6382a21ff19e0635358962","true","1332.3600000003353","./Stimuli/ImagesPractice/LN72.jpg","83","","","","test","true","","83","","LN","LN72.jpg","","old","35","3","practice_recog","left","","","",""
"categorize-image","104","390649","0.0-3.0-7.0-0.3","lfded7sdmfu3640","practice_recog","5f44ee515cff5c02f09c17be","5f60e3c0a3b16e07647b2ff9","5f6382a21ff19e0635358962","true","1414.6349999991944","./Stimuli/ImagesPractice/LN2.jpg","83","","","","test","true","","83","","LN","LN2.jpg","","old","36","3","practice_recog","left","","","",""
"categorize-image","105","392004","0.0-3.0-7.0-0.4","lfded7sdmfu3640","practice_recog","5f44ee515cff5c02f09c17be","5f60e3c0a3b16e07647b2ff9","5f6382a21ff19e0635358962","true","846.8049999992363","./Stimuli/ImagesPractice/SN76.jpg","83","","","","test","true","","83","","SN","SN76.jpg","","old","37","3","practice_recog","left","","","",""
"categorize-image","106","393690","0.0-3.0-7.0-0.5","lfded7sdmfu3640","practice_recog","5f44ee515cff5c02f09c17be","5f60e3c0a3b16e07647b2ff9","5f6382a21ff19e0635358962","true","1182.3749999984866","./Stimuli/ImagesPractice/LM147.jpg","76","","","","test","true","","76","","LM","LM147.jpg","","new","38","3","practice_recog","right","","","",""
"categorize-image","107","395208","0.0-3.0-7.0-0.6","lfded7sdmfu3640","practice_recog","5f44ee515cff5c02f09c17be","5f60e3c0a3b16e07647b2ff9","5f6382a21ff19e0635358962","true","1014.4449999988428","./Stimuli/ImagesPractice/LM143.jpg","83","","","","test","true","","83","","LM","LM143.jpg","","old","39","3","practice_recog","left","","","",""
"categorize-image","108","396634","0.0-3.0-7.0-0.7","lfded7sdmfu3640","practice_recog","5f44ee515cff5c02f09c17be","5f60e3c0a3b16e07647b2ff9","5f6382a21ff19e0635358962","true","919.7250000015483","./Stimuli/ImagesPractice/SN221.jpg","76","","","","test","true","","76","","SN","SN221.jpg","","new","40","3","practice_recog","right","","","",""
"categorize-image","109","398459","0.0-3.0-7.0-0.8","lfded7sdmfu3640","practice_recog","5f44ee515cff5c02f09c17be","5f60e3c0a3b16e07647b2ff9","5f6382a21ff19e0635358962","true","1318.2350000006845","./Stimuli/ImagesPractice/LN109.jpg","83","","","","test","false","","76","","LN","LN109.jpg","","new","41","3","practice_recog","left","","","",""
"categorize-image","110","400683","0.0-3.0-7.0-0.9","lfded7sdmfu3640","practice_recog","5f44ee515cff5c02f09c17be","5f60e3c0a3b16e07647b2ff9","5f6382a21ff19e0635358962","true","1718.3150000001187","./Stimuli/ImagesPractice/SM61.jpg","76","","","","test","true","","76","","SM","SM61.jpg","","new","42","3","practice_recog","right","","","",""
"categorize-image","111","402505","0.0-3.0-7.0-0.10","lfded7sdmfu3640","practice_recog","5f44ee515cff5c02f09c17be","5f60e3c0a3b16e07647b2ff9","5f6382a21ff19e0635358962","true","1317.9149999995716","./Stimuli/ImagesPractice/SM37.jpg","83","","","","test","true","","83","","SM","SM37.jpg","","old","43","3","practice_recog","left","","","",""
"categorize-image","112","404003","0.0-3.0-7.0-0.11","lfded7sdmfu3640","practice_recog","5f44ee515cff5c02f09c17be","5f60e3c0a3b16e07647b2ff9","5f6382a21ff19e0635358962","true","993.2000000007683","./Stimuli/ImagesPractice/SM62.jpg","83","","","","test","true","","83","","SM","SM62.jpg","","old","44","3","practice_recog","left","","","",""
"categorize-image","113","405378","0.0-3.0-7.0-0.12","lfded7sdmfu3640","practice_recog","5f44ee515cff5c02f09c17be","5f60e3c0a3b16e07647b2ff9","5f6382a21ff19e0635358962","true","870.0399999997462","./Stimuli/ImagesPractice/SM97.jpg","83","","","","test","true","","83","","SM","SM97.jpg","","old","45","3","practice_recog","left","","","",""
"categorize-image","114","407235","0.0-3.0-7.0-0.13","lfded7sdmfu3640","practice_recog","5f44ee515cff5c02f09c17be","5f60e3c0a3b16e07647b2ff9","5f6382a21ff19e0635358962","true","1350.4549999997253","./Stimuli/ImagesPractice/SN75.jpg","83","","","","test","true","","83","","SN","SN75.jpg","","old","46","3","practice_recog","left","","","",""
"categorize-image","115","408891","0.0-3.0-7.0-0.14","lfded7sdmfu3640","practice_recog","5f44ee515cff5c02f09c17be","5f60e3c0a3b16e07647b2ff9","5f6382a21ff19e0635358962","true","1149.80499999912","./Stimuli/ImagesPractice/SM98.jpg","76","","","","test","true","","76","","SM","SM98.jpg","","new","47","3","practice_recog","right","","","",""
"categorize-image","116","410170","0.0-3.0-7.0-0.15","lfded7sdmfu3640","practice_recog","5f44ee515cff5c02f09c17be","5f60e3c0a3b16e07647b2ff9","5f6382a21ff19e0635358962","true","772.4699999999139","./Stimuli/ImagesPractice/LN15.jpg","76","","","","test","true","","76","","LN","LN15.jpg","","new","48","3","practice_recog","right","","","",""
"html-keyboard-response","117","417993","0.0-3.0-8.0","lfded7sdmfu3640","instructions","5f44ee515cff5c02f09c17be","5f60e3c0a3b16e07647b2ff9","5f6382a21ff19e0635358962","false","7820.324999998731","<div align=left> Great!<br><br>Are you ready to continue?<br>If you want to reread the instructions and redo the practice trials, please <br>press „Z“.<br><br>You can proceed when you are ready.<br><br>After the presentation of each object, you will receive an instruction whether to <br>remember or to forget the object.<br>We will test your memory of the following pictures only at the very end of <br>the experiment after all learning blocks are completed. <br><br>Press SPACE to CONTINUE when you are ready. </div>","32","","","","","","","","","","","","","","","","","","","",""
"html-keyboard-response","118","434231","0.0-4.0-0.0","lfded7sdmfu3640","instructions","5f44ee515cff5c02f09c17be","5f60e3c0a3b16e07647b2ff9","5f6382a21ff19e0635358962","false","16232.184999998892","<div align=left> The actual experiment is about to start.<br>The practice trials are over!<br><br>Please always respond both fast and accurately!<br><br>Remember: <br> <br><li> Please place your index fingers on the <strong>'S'</strong> and <strong>'L'</strong> keys <br>to respond as fast and accurately as possible.</li><li> Every picture can be classified as either mechanical or non-mechanical.</li><li> If you do not respond in time or commit an error, you will receive a corresponding feedback.<br> Please try to respond as <strong> fast </strong> and as <strong> accurately as possible </strong>.</li><li> Remember the <span style='color: dodgerblue; font-size: 28px'>O</span> pictures. <br></li><li> Please minimize distractions and stay focused. </li><br><br>Press SPACE to START.</div>","32","","","","","","","","","","","","","","","","","","","",""
"html-keyboard-response","119","434937","0.0-4.0-1.0-0.0","lfded7sdmfu3640","prime","5f44ee515cff5c02f09c17be","5f60e3c0a3b16e07647b2ff9","5f6382a21ff19e0635358962","false","null","<span style=""color: black; font-size: 48px"">M + N</span>","null","","","","resp_prompt","","","","","","","","","","","","","","","",""
"categorize-image","120","435634","0.0-4.0-1.0-1.0","lfded7sdmfu3640","prime","5f44ee515cff5c02f09c17be","5f60e3c0a3b16e07647b2ff9","5f6382a21ff19e0635358962","true","689.4050000010175","./Stimuli/SelectedImages/LM/LM167.bmp","83","","","","test","true","M + N","83","switch","LM","LM167.bmp","forget","","49","3","prime1","left","","","",""
"html-keyboard-response","121","437639","0.0-4.0-1.0-3.0","lfded7sdmfu3640","prime","5f44ee515cff5c02f09c17be","5f60e3c0a3b16e07647b2ff9","5f6382a21ff19e0635358962","false","null","<div style=""align-items: center; display: flex; color: darkorange; font-size: 90px""><b>ø</b></div>","null","","","","forget_cue","","","","","","","","","","","","","","","",""
"html-keyboard-response","122","438342","0.0-4.0-1.0-0.1","lfded7sdmfu3640","prime","5f44ee515cff5c02f09c17be","5f60e3c0a3b16e07647b2ff9","5f6382a21ff19e0635358962","false","null","<span style=""color: black; font-size: 48px"">M + N</span>","null","","","","resp_prompt","","","","","","","","","","","","","","","",""
"categorize-image","123","439226","0.0-4.0-1.0-1.1","lfded7sdmfu3640","prime","5f44ee515cff5c02f09c17be","5f60e3c0a3b16e07647b2ff9","5f6382a21ff19e0635358962","true","877.2300000000396","./Stimuli/SelectedImages/SM/SM24.bmp","83","","","","test","true","M + N","83","repetition","SM","SM24.bmp","remember","","50","3","prime1","left","","","",""
"html-keyboard-response","124","441231","0.0-4.0-1.0-3.1","lfded7sdmfu3640","prime","5f44ee515cff5c02f09c17be","5f60e3c0a3b16e07647b2ff9","5f6382a21ff19e0635358962","false","null","<div style=""align-items: center; display: flex; color: dodgerblue; font-size: 90px""><b>o</b></div>","null","","","","forget_cue","","","","","","","","","","","","","","","",""
"html-keyboard-response","125","441935","0.0-4.0-1.0-0.2","lfded7sdmfu3640","prime","5f44ee515cff5c02f09c17be","5f60e3c0a3b16e07647b2ff9","5f6382a21ff19e0635358962","false","null","<span style=""color: black; font-size: 48px"">M + N</span>","null","","","","resp_prompt","","","","","","","","","","","","","","","",""
"categorize-image","126","442839","0.0-4.0-1.0-1.2","lfded7sdmfu3640","prime","5f44ee515cff5c02f09c17be","5f60e3c0a3b16e07647b2ff9","5f6382a21ff19e0635358962","true","898.3349999998463","./Stimuli/SelectedImages/SM/SM76.bmp","83","","","","test","true","M + N","83","switch","SM","SM76.bmp","forget","","51","3","prime1","left","","","",""
"html-keyboard-response","127","444842","0.0-4.0-1.0-3.2","lfded7sdmfu3640","prime","5f44ee515cff5c02f09c17be","5f60e3c0a3b16e07647b2ff9","5f6382a21ff19e0635358962","false","null","<div style=""align-items: center; display: flex; color: darkorange; font-size: 90px""><b>ø</b></div>","null","","","","forget_cue","","","","","","","","","","","","","","","",""
"html-keyboard-response","128","445547","0.0-4.0-1.0-0.3","lfded7sdmfu3640","prime","5f44ee515cff5c02f09c17be","5f60e3c0a3b16e07647b2ff9","5f6382a21ff19e0635358962","false","null","<span style=""color: black; font-size: 48px"">M + N</span>","null","","","","resp_prompt","","","","","","","","","","","","","","","",""
"categorize-image","129","446097","0.0-4.0-1.0-1.3","lfded7sdmfu3640","prime","5f44ee515cff5c02f09c17be","5f60e3c0a3b16e07647b2ff9","5f6382a21ff19e0635358962","true","542.9749999984633","./Stimuli/SelectedImages/LN/LN177.bmp","76","","","","test","true","M + N","76","switch","LN","LN177.bmp","remember","","52","3","prime1","right","","","",""
"html-keyboard-response","130","448102","0.0-4.0-1.0-3.3","lfded7sdmfu3640","prime","5f44ee515cff5c02f09c17be","5f60e3c0a3b16e07647b2ff9","5f6382a21ff19e0635358962","false","null","<div style=""align-items: center; display: flex; color: dodgerblue; font-size: 90px""><b>o</b></div>","null","","","","forget_cue","","","","","","","","","","","","","","","",""
"html-keyboard-response","131","448807","0.0-4.0-1.0-0.4","lfded7sdmfu3640","prime","5f44ee515cff5c02f09c17be","5f60e3c0a3b16e07647b2ff9","5f6382a21ff19e0635358962","false","null","<span style=""color: black; font-size: 48px"">M + N</span>","null","","","","resp_prompt","","","","","","","","","","","","","","","",""
"categorize-image","132","449690","0.0-4.0-1.0-1.4","lfded7sdmfu3640","prime","5f44ee515cff5c02f09c17be","5f60e3c0a3b16e07647b2ff9","5f6382a21ff19e0635358962","true","875.9950000003446","./Stimuli/SelectedImages/LM/LM58.bmp","83","","","","test","true","M + N","83","switch","LM","LM58.bmp","remember","","53","3","prime1","left","","","",""
"html-keyboard-response","133","451697","0.0-4.0-1.0-3.4","lfded7sdmfu3640","prime","5f44ee515cff5c02f09c17be","5f60e3c0a3b16e07647b2ff9","5f6382a21ff19e0635358962","false","null","<div style=""align-items: center; display: flex; color: dodgerblue; font-size: 90px""><b>o</b></div>","null","","","","forget_cue","","","","","","","","","","","","","","","",""
"html-keyboard-response","134","452399","0.0-4.0-1.0-0.5","lfded7sdmfu3640","prime","5f44ee515cff5c02f09c17be","5f60e3c0a3b16e07647b2ff9","5f6382a21ff19e0635358962","false","null","<span style=""color: black; font-size: 48px"">N + M</span>","null","","","","resp_prompt","","","","","","","","","","","","","","","",""
"categorize-image","135","453242","0.0-4.0-1.0-1.5","lfded7sdmfu3640","prime","5f44ee515cff5c02f09c17be","5f60e3c0a3b16e07647b2ff9","5f6382a21ff19e0635358962","true","835.895000000135","./Stimuli/SelectedImages/SM/SM108.bmp","76","","","","test","true","N + M","76","repetition","SM","SM108.bmp","forget","","54","3","prime1","right","","","",""
"html-keyboard-response","136","455247","0.0-4.0-1.0-3.5","lfded7sdmfu3640","prime","5f44ee515cff5c02f09c17be","5f60e3c0a3b16e07647b2ff9","5f6382a21ff19e0635358962","false","null","<div style=""align-items: center; display: flex; color: darkorange; font-size: 90px""><b>ø</b></div>","null","","","","forget_cue","","","","","","","","","","","","","","","",""
"html-keyboard-response","137","455953","0.0-4.0-1.0-0.6","lfded7sdmfu3640","prime","5f44ee515cff5c02f09c17be","5f60e3c0a3b16e07647b2ff9","5f6382a21ff19e0635358962","false","null","<span style=""color: black; font-size: 48px"">N + M</span>","null","","","","resp_prompt","","","","","","","","","","","","","","","",""
"categorize-image","138","456780","0.0-4.0-1.0-1.6","lfded7sdmfu3640","prime","5f44ee515cff5c02f09c17be","5f60e3c0a3b16e07647b2ff9","5f6382a21ff19e0635358962","true","820.1250000001746","./Stimuli/SelectedImages/LN/LN9.bmp","83","","","","test","true","N + M","83","switch","LN","LN9.bmp","forget","","55","3","prime1","left","","","",""
"html-keyboard-response","139","458784","0.0-4.0-1.0-3.6","lfded7sdmfu3640","prime","5f44ee515cff5c02f09c17be","5f60e3c0a3b16e07647b2ff9","5f6382a21ff19e0635358962","false","null","<div style=""align-items: center; display: flex; color: darkorange; font-size: 90px""><b>ø</b></div>","null","","","","forget_cue","","","","","","","","","","","","","","","",""
"html-keyboard-response","140","459489","0.0-4.0-1.0-0.7","lfded7sdmfu3640","prime","5f44ee515cff5c02f09c17be","5f60e3c0a3b16e07647b2ff9","5f6382a21ff19e0635358962","false","null","<span style=""color: black; font-size: 48px"">M + N</span>","null","","","","resp_prompt","","","","","","","","","","","","","","","",""
"categorize-image","141","460386","0.0-4.0-1.0-1.7","lfded7sdmfu3640","prime","5f44ee515cff5c02f09c17be","5f60e3c0a3b16e07647b2ff9","5f6382a21ff19e0635358962","true","890.6100000003935","./Stimuli/SelectedImages/LN/LN166.bmp","76","","","","test","true","M + N","76","repetition","LN","LN166.bmp","remember","","56","3","prime1","right","","","",""
"html-keyboard-response","142","462393","0.0-4.0-1.0-3.7","lfded7sdmfu3640","prime","5f44ee515cff5c02f09c17be","5f60e3c0a3b16e07647b2ff9","5f6382a21ff19e0635358962","false","null","<div style=""align-items: center; display: flex; color: dodgerblue; font-size: 90px""><b>o</b></div>","null","","","","forget_cue","","","","","","","","","","","","","","","",""
"html-keyboard-response","143","463097","0.0-4.0-1.0-0.8","lfded7sdmfu3640","prime","5f44ee515cff5c02f09c17be","5f60e3c0a3b16e07647b2ff9","5f6382a21ff19e0635358962","false","null","<span style=""color: black; font-size: 48px"">N + M</span>","null","","","","resp_prompt","","","","","","","","","","","","","","","",""
"categorize-image","144","464034","0.0-4.0-1.0-1.8","lfded7sdmfu3640","prime","5f44ee515cff5c02f09c17be","5f60e3c0a3b16e07647b2ff9","5f6382a21ff19e0635358962","true","929.8699999999371","./Stimuli/SelectedImages/LN/LN59.bmp","83","","","","test","true","N + M","83","switch","LN","LN59.bmp","remember","","57","3","prime1","left","","","",""
"html-keyboard-response","145","466039","0.0-4.0-1.0-3.8","lfded7sdmfu3640","prime","5f44ee515cff5c02f09c17be","5f60e3c0a3b16e07647b2ff9","5f6382a21ff19e0635358962","false","null","<div style=""align-items: center; display: flex; color: dodgerblue; font-size: 90px""><b>o</b></div>","null","","","","forget_cue","","","","","","","","","","","","","","","",""
"html-keyboard-response","146","466744","0.0-4.0-1.0-0.9","lfded7sdmfu3640","prime","5f44ee515cff5c02f09c17be","5f60e3c0a3b16e07647b2ff9","5f6382a21ff19e0635358962","false","null","<span style=""color: black; font-size: 48px"">M + N</span>","null","","","","resp_prompt","","","","","","","","","","","","","","","",""
"categorize-image","147","467661","0.0-4.0-1.0-1.9","lfded7sdmfu3640","prime","5f44ee515cff5c02f09c17be","5f60e3c0a3b16e07647b2ff9","5f6382a21ff19e0635358962","true","910.2900000016671","./Stimuli/SelectedImages/LM/LM100.bmp","83","","","","test","true","M + N","83","repetition","LM","LM100.bmp","remember","","58","3","prime1","left","","","",""
"html-keyboard-response","148","469665","0.0-4.0-1.0-3.9","lfded7sdmfu3640","prime","5f44ee515cff5c02f09c17be","5f60e3c0a3b16e07647b2ff9","5f6382a21ff19e0635358962","false","null","<div style=""align-items: center; display: flex; color: dodgerblue; font-size: 90px""><b>o</b></div>","null","","","","forget_cue","","","","","","","","","","","","","","","",""
"html-keyboard-response","149","470370","0.0-4.0-1.0-0.10","lfded7sdmfu3640","prime","5f44ee515cff5c02f09c17be","5f60e3c0a3b16e07647b2ff9","5f6382a21ff19e0635358962","false","null","<span style=""color: black; font-size: 48px"">N + M</span>","null","","","","resp_prompt","","","","","","","","","","","","","","","",""
"categorize-image","150","471316","0.0-4.0-1.0-1.10","lfded7sdmfu3640","prime","5f44ee515cff5c02f09c17be","5f60e3c0a3b16e07647b2ff9","5f6382a21ff19e0635358962","true","939.2750000006636","./Stimuli/SelectedImages/LM/LM150.bmp","76","","","","test","true","N + M","76","switch","LM","LM150.bmp","remember","","59","3","prime1","right","","","",""
"html-keyboard-response","151","473321","0.0-4.0-1.0-3.10","lfded7sdmfu3640","prime","5f44ee515cff5c02f09c17be","5f60e3c0a3b16e07647b2ff9","5f6382a21ff19e0635358962","false","null","<div style=""align-items: center; display: flex; color: dodgerblue; font-size: 90px""><b>o</b></div>","null","","","","forget_cue","","","","","","","","","","","","","","","",""
"html-keyboard-response","152","474027","0.0-4.0-1.0-0.11","lfded7sdmfu3640","prime","5f44ee515cff5c02f09c17be","5f60e3c0a3b16e07647b2ff9","5f6382a21ff19e0635358962","false","null","<span style=""color: black; font-size: 48px"">N + M</span>","null","","","","resp_prompt","","","","","","","","","","","","","","","",""
"categorize-image","153","475004","0.0-4.0-1.0-1.11","lfded7sdmfu3640","prime","5f44ee515cff5c02f09c17be","5f60e3c0a3b16e07647b2ff9","5f6382a21ff19e0635358962","true","970.9749999983469","./Stimuli/SelectedImages/SM/SM74.bmp","76","","","","test","true","N + M","76","switch","SM","SM74.bmp","remember","","60","3","prime1","right","","","",""
"html-keyboard-response","154","477008","0.0-4.0-1.0-3.11","lfded7sdmfu3640","prime","5f44ee515cff5c02f09c17be","5f60e3c0a3b16e07647b2ff9","5f6382a21ff19e0635358962","false","null","<div style=""align-items: center; display: flex; color: dodgerblue; font-size: 90px""><b>o</b></div>","null","","","","forget_cue","","","","","","","","","","","","","","","",""
"html-keyboard-response","155","477714","0.0-4.0-1.0-0.12","lfded7sdmfu3640","prime","5f44ee515cff5c02f09c17be","5f60e3c0a3b16e07647b2ff9","5f6382a21ff19e0635358962","false","null","<span style=""color: black; font-size: 48px"">N + M</span>","null","","","","resp_prompt","","","","","","","","","","","","","","","",""
"categorize-image","156","478634","0.0-4.0-1.0-1.12","lfded7sdmfu3640","prime","5f44ee515cff5c02f09c17be","5f60e3c0a3b16e07647b2ff9","5f6382a21ff19e0635358962","true","912.6350000005914","./Stimuli/SelectedImages/SM/SM213.bmp","76","","","","test","true","N + M","76","repetition","SM","SM213.bmp","remember","","61","3","prime1","right","","","",""
"html-keyboard-response","157","480639","0.0-4.0-1.0-3.12","lfded7sdmfu3640","prime","5f44ee515cff5c02f09c17be","5f60e3c0a3b16e07647b2ff9","5f6382a21ff19e0635358962","false","null","<div style=""align-items: center; display: flex; color: dodgerblue; font-size: 90px""><b>o</b></div>","null","","","","forget_cue","","","","","","","","","","","","","","","",""
"html-keyboard-response","158","481345","0.0-4.0-1.0-0.13","lfded7sdmfu3640","prime","5f44ee515cff5c02f09c17be","5f60e3c0a3b16e07647b2ff9","5f6382a21ff19e0635358962","false","null","<span style=""color: black; font-size: 48px"">M + N</span>","null","","","","resp_prompt","","","","","","","","","","","","","","","",""
"categorize-image","159","482209","0.0-4.0-1.0-1.13","lfded7sdmfu3640","prime","5f44ee515cff5c02f09c17be","5f60e3c0a3b16e07647b2ff9","5f6382a21ff19e0635358962","true","857.0550000004005","./Stimuli/SelectedImages/SN/SN93.bmp","76","","","","test","true","M + N","76","repetition","SN","SN93.bmp","forget","","62","3","prime1","right","","","",""
"html-keyboard-response","160","484213","0.0-4.0-1.0-3.13","lfded7sdmfu3640","prime","5f44ee515cff5c02f09c17be","5f60e3c0a3b16e07647b2ff9","5f6382a21ff19e0635358962","false","null","<div style=""align-items: center; display: flex; color: darkorange; font-size: 90px""><b>ø</b></div>","null","","","","forget_cue","","","","","","","","","","","","","","","",""
"html-keyboard-response","161","484916","0.0-4.0-1.0-0.14","lfded7sdmfu3640","prime","5f44ee515cff5c02f09c17be","5f60e3c0a3b16e07647b2ff9","5f6382a21ff19e0635358962","false","null","<span style=""color: black; font-size: 48px"">M + N</span>","null","","","","resp_prompt","","","","","","","","","","","","","","","",""
"categorize-image","162","485821","0.0-4.0-1.0-1.14","lfded7sdmfu3640","prime","5f44ee515cff5c02f09c17be","5f60e3c0a3b16e07647b2ff9","5f6382a21ff19e0635358962","true","897.9949999993551","./Stimuli/SelectedImages/SM/SM17.bmp","83","","","","test","true","M + N","83","switch","SM","SM17.bmp","remember","","63","3","prime1","left","","","",""
"html-keyboard-response","163","487826","0.0-4.0-1.0-3.14","lfded7sdmfu3640","prime","5f44ee515cff5c02f09c17be","5f60e3c0a3b16e07647b2ff9","5f6382a21ff19e0635358962","false","null","<div style=""align-items: center; display: flex; color: dodgerblue; font-size: 90px""><b>o</b></div>","null","","","","forget_cue","","","","","","","","","","","","","","","",""
"html-keyboard-response","164","488532","0.0-4.0-1.0-0.15","lfded7sdmfu3640","prime","5f44ee515cff5c02f09c17be","5f60e3c0a3b16e07647b2ff9","5f6382a21ff19e0635358962","false","null","<span style=""color: black; font-size: 48px"">N + M</span>","null","","","","resp_prompt","","","","","","","","","","","","","","","",""
"categorize-image","165","489406","0.0-4.0-1.0-1.15","lfded7sdmfu3640","prime","5f44ee515cff5c02f09c17be","5f60e3c0a3b16e07647b2ff9","5f6382a21ff19e0635358962","true","867.1300000005285","./Stimuli/SelectedImages/LM/LM51.bmp","76","","","","test","true","N + M","76","repetition","LM","LM51.bmp","forget","","64","3","prime1","right","","","",""
"html-keyboard-response","166","491411","0.0-4.0-1.0-3.15","lfded7sdmfu3640","prime","5f44ee515cff5c02f09c17be","5f60e3c0a3b16e07647b2ff9","5f6382a21ff19e0635358962","false","null","<div style=""align-items: center; display: flex; color: darkorange; font-size: 90px""><b>ø</b></div>","null","","","","forget_cue","","","","","","","","","","","","","","","",""
"html-keyboard-response","167","492115","0.0-4.0-1.0-0.16","lfded7sdmfu3640","prime","5f44ee515cff5c02f09c17be","5f60e3c0a3b16e07647b2ff9","5f6382a21ff19e0635358962","false","null","<span style=""color: black; font-size: 48px"">M + N</span>","null","","","","resp_prompt","","","","","","","","","","","","","","","",""
"categorize-image","168","492973","0.0-4.0-1.0-1.16","lfded7sdmfu3640","prime","5f44ee515cff5c02f09c17be","5f60e3c0a3b16e07647b2ff9","5f6382a21ff19e0635358962","true","852.0650000009919","./Stimuli/SelectedImages/SM/SM184.bmp","83","","","","test","true","M + N","83","repetition","SM","SM184.bmp","forget","","65","3","prime1","left","","","",""
"html-keyboard-response","169","494976","0.0-4.0-1.0-3.16","lfded7sdmfu3640","prime","5f44ee515cff5c02f09c17be","5f60e3c0a3b16e07647b2ff9","5f6382a21ff19e0635358962","false","null","<div style=""align-items: center; display: flex; color: darkorange; font-size: 90px""><b>ø</b></div>","null","","","","forget_cue","","","","","","","","","","","","","","","",""
"html-keyboard-response","170","495682","0.0-4.0-1.0-0.17","lfded7sdmfu3640","prime","5f44ee515cff5c02f09c17be","5f60e3c0a3b16e07647b2ff9","5f6382a21ff19e0635358962","false","null","<span style=""color: black; font-size: 48px"">N + M</span>","null","","","","resp_prompt","","","","","","","","","","","","","","","",""
"categorize-image","171","496663","0.0-4.0-1.0-1.17","lfded7sdmfu3640","prime","5f44ee515cff5c02f09c17be","5f60e3c0a3b16e07647b2ff9","5f6382a21ff19e0635358962","true","973.920000000333","./Stimuli/SelectedImages/LM/LM103.bmp","76","","","","test","true","N + M","76","switch","LM","LM103.bmp","forget","","66","3","prime1","right","","","",""
"html-keyboard-response","172","498668","0.0-4.0-1.0-3.17","lfded7sdmfu3640","prime","5f44ee515cff5c02f09c17be","5f60e3c0a3b16e07647b2ff9","5f6382a21ff19e0635358962","false","null","<div style=""align-items: center; display: flex; color: darkorange; font-size: 90px""><b>ø</b></div>","null","","","","forget_cue","","","","","","","","","","","","","","","",""
"html-keyboard-response","173","499370","0.0-4.0-1.0-0.18","lfded7sdmfu3640","prime","5f44ee515cff5c02f09c17be","5f60e3c0a3b16e07647b2ff9","5f6382a21ff19e0635358962","false","null","<span style=""color: black; font-size: 48px"">M + N</span>","null","","","","resp_prompt","","","","","","","","","","","","","","","",""
"categorize-image","174","500328","0.0-4.0-1.0-1.18","lfded7sdmfu3640","prime","5f44ee515cff5c02f09c17be","5f60e3c0a3b16e07647b2ff9","5f6382a21ff19e0635358962","true","950.5850000004866","./Stimuli/SelectedImages/SN/SN60.bmp","76","","","","test","true","M + N","76","switch","SN","SN60.bmp","forget","","67","3","prime1","right","","","",""
"html-keyboard-response","175","502334","0.0-4.0-1.0-3.18","lfded7sdmfu3640","prime","5f44ee515cff5c02f09c17be","5f60e3c0a3b16e07647b2ff9","5f6382a21ff19e0635358962","false","null","<div style=""align-items: center; display: flex; color: darkorange; font-size: 90px""><b>ø</b></div>","null","","","","forget_cue","","","","","","","","","","","","","","","",""
"html-keyboard-response","176","503037","0.0-4.0-1.0-0.19","lfded7sdmfu3640","prime","5f44ee515cff5c02f09c17be","5f60e3c0a3b16e07647b2ff9","5f6382a21ff19e0635358962","false","null","<span style=""color: black; font-size: 48px"">M + N</span>","null","","","","resp_prompt","","","","","","","","","","","","","","","",""
"categorize-image","177","504151","0.0-4.0-1.0-1.19","lfded7sdmfu3640","prime","5f44ee515cff5c02f09c17be","5f60e3c0a3b16e07647b2ff9","5f6382a21ff19e0635358962","true","1106.8199999990757","./Stimuli/SelectedImages/SN/SN52.bmp","76","","","","test","true","M + N","76","switch","SN","SN52.bmp","remember","","68","3","prime1","right","","","",""
"html-keyboard-response","178","506153","0.0-4.0-1.0-3.19","lfded7sdmfu3640","prime","5f44ee515cff5c02f09c17be","5f60e3c0a3b16e07647b2ff9","5f6382a21ff19e0635358962","false","null","<div style=""align-items: center; display: flex; color: dodgerblue; font-size: 90px""><b>o</b></div>","null","","","","forget_cue","","","","","","","","","","","","","","","",""
"html-keyboard-response","179","506859","0.0-4.0-1.0-0.20","lfded7sdmfu3640","prime","5f44ee515cff5c02f09c17be","5f60e3c0a3b16e07647b2ff9","5f6382a21ff19e0635358962","false","null","<span style=""color: black; font-size: 48px"">N + M</span>","null","","","","resp_prompt","","","","","","","","","","","","","","","",""
"categorize-image","180","507849","0.0-4.0-1.0-1.20","lfded7sdmfu3640","prime","5f44ee515cff5c02f09c17be","5f60e3c0a3b16e07647b2ff9","5f6382a21ff19e0635358962","true","983.2850000002654","./Stimuli/SelectedImages/LM/LM57.bmp","76","","","","test","true","N + M","76","repetition","LM","LM57.bmp","remember","","69","3","prime1","right","","","",""
"html-keyboard-response","181","509857","0.0-4.0-1.0-3.20","lfded7sdmfu3640","prime","5f44ee515cff5c02f09c17be","5f60e3c0a3b16e07647b2ff9","5f6382a21ff19e0635358962","false","null","<div style=""align-items: center; display: flex; color: dodgerblue; font-size: 90px""><b>o</b></div>","null","","","","forget_cue","","","","","","","","","","","","","","","",""
"html-keyboard-response","182","510562","0.0-4.0-1.0-0.21","lfded7sdmfu3640","prime","5f44ee515cff5c02f09c17be","5f60e3c0a3b16e07647b2ff9","5f6382a21ff19e0635358962","false","null","<span style=""color: black; font-size: 48px"">M + N</span>","null","","","","resp_prompt","","","","","","","","","","","","","","","",""
"categorize-image","183","511467","0.0-4.0-1.0-1.21","lfded7sdmfu3640","prime","5f44ee515cff5c02f09c17be","5f60e3c0a3b16e07647b2ff9","5f6382a21ff19e0635358962","true","897.2350000003353","./Stimuli/SelectedImages/SM/SM128.bmp","83","","","","test","true","M + N","83","switch","SM","SM128.bmp","remember","","70","3","prime1","left","","","",""
"html-keyboard-response","184","513471","0.0-4.0-1.0-3.21","lfded7sdmfu3640","prime","5f44ee515cff5c02f09c17be","5f60e3c0a3b16e07647b2ff9","5f6382a21ff19e0635358962","false","null","<div style=""align-items: center; display: flex; color: dodgerblue; font-size: 90px""><b>o</b></div>","null","","","","forget_cue","","","","","","","","","","","","","","","",""
"html-keyboard-response","185","514175","0.0-4.0-1.0-0.22","lfded7sdmfu3640","prime","5f44ee515cff5c02f09c17be","5f60e3c0a3b16e07647b2ff9","5f6382a21ff19e0635358962","false","null","<span style=""color: black; font-size: 48px"">M + N</span>","null","","","","resp_prompt","","","","","","","","","","","","","","","",""
"categorize-image","186","515050","0.0-4.0-1.0-1.22","lfded7sdmfu3640","prime","5f44ee515cff5c02f09c17be","5f60e3c0a3b16e07647b2ff9","5f6382a21ff19e0635358962","true","868.1350000005914","./Stimuli/SelectedImages/LM/LM75.bmp","83","","","","test","true","M + N","83","switch","LM","LM75.bmp","remember","","71","3","prime1","left","","","",""
"html-keyboard-response","187","517053","0.0-4.0-1.0-3.22","lfded7sdmfu3640","prime","5f44ee515cff5c02f09c17be","5f60e3c0a3b16e07647b2ff9","5f6382a21ff19e0635358962","false","null","<div style=""align-items: center; display: flex; color: dodgerblue; font-size: 90px""><b>o</b></div>","null","","","","forget_cue","","","","","","","","","","","","","","","",""
"html-keyboard-response","188","517755","0.0-4.0-1.0-0.23","lfded7sdmfu3640","prime","5f44ee515cff5c02f09c17be","5f60e3c0a3b16e07647b2ff9","5f6382a21ff19e0635358962","false","null","<span style=""color: black; font-size: 48px"">M + N</span>","null","","","","resp_prompt","","","","","","","","","","","","","","","",""
"categorize-image","189","518647","0.0-4.0-1.0-1.23","lfded7sdmfu3640","prime","5f44ee515cff5c02f09c17be","5f60e3c0a3b16e07647b2ff9","5f6382a21ff19e0635358962","true","884.8649999999907","./Stimuli/SelectedImages/LN/LN13.bmp","76","","","","test","true","M + N","76","repetition","LN","LN13.bmp","forget","","72","3","prime1","right","","","",""
"html-keyboard-response","190","520654","0.0-4.0-1.0-3.23","lfded7sdmfu3640","prime","5f44ee515cff5c02f09c17be","5f60e3c0a3b16e07647b2ff9","5f6382a21ff19e0635358962","false","null","<div style=""align-items: center; display: flex; color: darkorange; font-size: 90px""><b>ø</b></div>","null","","","","forget_cue","","","","","","","","","","","","","","","",""
"html-keyboard-response","191","521359","0.0-4.0-1.0-0.24","lfded7sdmfu3640","prime","5f44ee515cff5c02f09c17be","5f60e3c0a3b16e07647b2ff9","5f6382a21ff19e0635358962","false","null","<span style=""color: black; font-size: 48px"">N + M</span>","null","","","","resp_prompt","","","","","","","","","","","","","","","",""
"categorize-image","192","522248","0.0-4.0-1.0-1.24","lfded7sdmfu3640","prime","5f44ee515cff5c02f09c17be","5f60e3c0a3b16e07647b2ff9","5f6382a21ff19e0635358962","true","881.4800000000978","./Stimuli/SelectedImages/LN/LN111.bmp","83","","","","test","true","N + M","83","repetition","LN","LN111.bmp","forget","","73","3","prime1","left","","","",""
"html-keyboard-response","193","524254","0.0-4.0-1.0-3.24","lfded7sdmfu3640","prime","5f44ee515cff5c02f09c17be","5f60e3c0a3b16e07647b2ff9","5f6382a21ff19e0635358962","false","null","<div style=""align-items: center; display: flex; color: darkorange; font-size: 90px""><b>ø</b></div>","null","","","","forget_cue","","","","","","","","","","","","","","","",""
"html-keyboard-response","194","524958","0.0-4.0-1.0-0.25","lfded7sdmfu3640","prime","5f44ee515cff5c02f09c17be","5f60e3c0a3b16e07647b2ff9","5f6382a21ff19e0635358962","false","null","<span style=""color: black; font-size: 48px"">M + N</span>","null","","","","resp_prompt","","","","","","","","","","","","","","","",""
"categorize-image","195","525984","0.0-4.0-1.0-1.25","lfded7sdmfu3640","prime","5f44ee515cff5c02f09c17be","5f60e3c0a3b16e07647b2ff9","5f6382a21ff19e0635358962","true","1018.029999999213","./Stimuli/SelectedImages/SM/SM207.bmp","83","","","","test","true","M + N","83","switch","SM","SM207.bmp","forget","","74","3","prime1","left","","","",""
"html-keyboard-response","196","527990","0.0-4.0-1.0-3.25","lfded7sdmfu3640","prime","5f44ee515cff5c02f09c17be","5f60e3c0a3b16e07647b2ff9","5f6382a21ff19e0635358962","false","null","<div style=""align-items: center; display: flex; color: darkorange; font-size: 90px""><b>ø</b></div>","null","","","","forget_cue","","","","","","","","","","","","","","","",""
"html-keyboard-response","197","528695","0.0-4.0-1.0-0.26","lfded7sdmfu3640","prime","5f44ee515cff5c02f09c17be","5f60e3c0a3b16e07647b2ff9","5f6382a21ff19e0635358962","false","null","<span style=""color: black; font-size: 48px"">N + M</span>","null","","","","resp_prompt","","","","","","","","","","","","","","","",""
"categorize-image","198","529909","0.0-4.0-1.0-1.26","lfded7sdmfu3640","prime","5f44ee515cff5c02f09c17be","5f60e3c0a3b16e07647b2ff9","5f6382a21ff19e0635358962","true","1207.200000000652","./Stimuli/SelectedImages/LN/LN149.bmp","83","","","","test","true","N + M","83","repetition","LN","LN149.bmp","remember","","75","3","prime1","left","","","",""
"html-keyboard-response","199","531911","0.0-4.0-1.0-3.26","lfded7sdmfu3640","prime","5f44ee515cff5c02f09c17be","5f60e3c0a3b16e07647b2ff9","5f6382a21ff19e0635358962","false","null","<div style=""align-items: center; display: flex; color: dodgerblue; font-size: 90px""><b>o</b></div>","null","","","","forget_cue","","","","","","","","","","","","","","","",""
"html-keyboard-response","200","532616","0.0-4.0-1.0-0.27","lfded7sdmfu3640","prime","5f44ee515cff5c02f09c17be","5f60e3c0a3b16e07647b2ff9","5f6382a21ff19e0635358962","false","null","<span style=""color: black; font-size: 48px"">N + M</span>","null","","","","resp_prompt","","","","","","","","","","","","","","","",""
"categorize-image","201","533615","0.0-4.0-1.0-1.27","lfded7sdmfu3640","prime","5f44ee515cff5c02f09c17be","5f60e3c0a3b16e07647b2ff9","5f6382a21ff19e0635358962","true","991.8600000001024","./Stimuli/SelectedImages/SN/SN140.bmp","83","","","","test","true","N + M","83","switch","SN","SN140.bmp","forget","","76","3","prime1","left","","","",""
"html-keyboard-response","202","535620","0.0-4.0-1.0-3.27","lfded7sdmfu3640","prime","5f44ee515cff5c02f09c17be","5f60e3c0a3b16e07647b2ff9","5f6382a21ff19e0635358962","false","null","<div style=""align-items: center; display: flex; color: darkorange; font-size: 90px""><b>ø</b></div>","null","","","","forget_cue","","","","","","","","","","","","","","","",""
"html-keyboard-response","203","536326","0.0-4.0-1.0-0.28","lfded7sdmfu3640","prime","5f44ee515cff5c02f09c17be","5f60e3c0a3b16e07647b2ff9","5f6382a21ff19e0635358962","false","null","<span style=""color: black; font-size: 48px"">N + M</span>","null","","","","resp_prompt","","","","","","","","","","","","","","","",""
"categorize-image","204","537157","0.0-4.0-1.0-1.28","lfded7sdmfu3640","prime","5f44ee515cff5c02f09c17be","5f60e3c0a3b16e07647b2ff9","5f6382a21ff19e0635358962","true","825.1650000002701","./Stimuli/SelectedImages/LN/LN12.bmp","83","","","","test","true","N + M","83","switch","LN","LN12.bmp","remember","","77","3","prime1","left","","","",""
"html-keyboard-response","205","539163","0.0-4.0-1.0-3.28","lfded7sdmfu3640","prime","5f44ee515cff5c02f09c17be","5f60e3c0a3b16e07647b2ff9","5f6382a21ff19e0635358962","false","null","<div style=""align-items: center; display: flex; color: dodgerblue; font-size: 90px""><b>o</b></div>","null","","","","forget_cue","","","","","","","","","","","","","","","",""
"html-keyboard-response","206","539867","0.0-4.0-1.0-0.29","lfded7sdmfu3640","prime","5f44ee515cff5c02f09c17be","5f60e3c0a3b16e07647b2ff9","5f6382a21ff19e0635358962","false","null","<span style=""color: black; font-size: 48px"">N + M</span>","null","","","","resp_prompt","","","","","","","","","","","","","","","",""
"categorize-image","207","540702","0.0-4.0-1.0-1.29","lfded7sdmfu3640","prime","5f44ee515cff5c02f09c17be","5f60e3c0a3b16e07647b2ff9","5f6382a21ff19e0635358962","true","827.509999999078","./Stimuli/SelectedImages/LM/LM157.bmp","76","","","","test","true","N + M","76","repetition","LM","LM157.bmp","forget","","78","3","prime1","right","","","",""
"html-keyboard-response","208","542706","0.0-4.0-1.0-3.29","lfded7sdmfu3640","prime","5f44ee515cff5c02f09c17be","5f60e3c0a3b16e07647b2ff9","5f6382a21ff19e0635358962","false","null","<div style=""align-items: center; display: flex; color: darkorange; font-size: 90px""><b>ø</b></div>","null","","","","forget_cue","","","","","","","","","","","","","","","",""
"html-keyboard-response","209","543408","0.0-4.0-1.0-0.30","lfded7sdmfu3640","prime","5f44ee515cff5c02f09c17be","5f60e3c0a3b16e07647b2ff9","5f6382a21ff19e0635358962","false","null","<span style=""color: black; font-size: 48px"">N + M</span>","null","","","","resp_prompt","","","","","","","","","","","","","","","",""
"categorize-image","210","544287","0.0-4.0-1.0-1.30","lfded7sdmfu3640","prime","5f44ee515cff5c02f09c17be","5f60e3c0a3b16e07647b2ff9","5f6382a21ff19e0635358962","true","872.0600000014529","./Stimuli/SelectedImages/LN/LN82.bmp","83","","","","test","true","N + M","83","switch","LN","LN82.bmp","forget","","79","3","prime1","left","","","",""
"html-keyboard-response","211","546293","0.0-4.0-1.0-3.30","lfded7sdmfu3640","prime","5f44ee515cff5c02f09c17be","5f60e3c0a3b16e07647b2ff9","5f6382a21ff19e0635358962","false","null","<div style=""align-items: center; display: flex; color: darkorange; font-size: 90px""><b>ø</b></div>","null","","","","forget_cue","","","","","","","","","","","","","","","",""
"html-keyboard-response","212","546996","0.0-4.0-1.0-0.31","lfded7sdmfu3640","prime","5f44ee515cff5c02f09c17be","5f60e3c0a3b16e07647b2ff9","5f6382a21ff19e0635358962","false","null","<span style=""color: black; font-size: 48px"">M + N</span>","null","","","","resp_prompt","","","","","","","","","","","","","","","",""
"categorize-image","213","548006","0.0-4.0-1.0-1.31","lfded7sdmfu3640","prime","5f44ee515cff5c02f09c17be","5f60e3c0a3b16e07647b2ff9","5f6382a21ff19e0635358962","true","1002.6450000004843","./Stimuli/SelectedImages/LN/LN92.bmp","76","","","","test","true","M + N","76","switch","LN","LN92.bmp","forget","","80","3","prime1","right","","","",""
"html-keyboard-response","214","550013","0.0-4.0-1.0-3.31","lfded7sdmfu3640","prime","5f44ee515cff5c02f09c17be","5f60e3c0a3b16e07647b2ff9","5f6382a21ff19e0635358962","false","null","<div style=""align-items: center; display: flex; color: darkorange; font-size: 90px""><b>ø</b></div>","null","","","","forget_cue","","","","","","","","","","","","","","","",""
"html-keyboard-response","215","550718","0.0-4.0-1.0-0.32","lfded7sdmfu3640","prime","5f44ee515cff5c02f09c17be","5f60e3c0a3b16e07647b2ff9","5f6382a21ff19e0635358962","false","null","<span style=""color: black; font-size: 48px"">M + N</span>","null","","","","resp_prompt","","","","","","","","","","","","","","","",""
"categorize-image","216","551738","0.0-4.0-1.0-1.32","lfded7sdmfu3640","prime","5f44ee515cff5c02f09c17be","5f60e3c0a3b16e07647b2ff9","5f6382a21ff19e0635358962","true","1012.3899999998976","./Stimuli/SelectedImages/SN/SN187.bmp","76","","","","test","true","M + N","76","repetition","SN","SN187.bmp","remember","","81","3","prime1","right","","","",""
"html-keyboard-response","217","553741","0.0-4.0-1.0-3.32","lfded7sdmfu3640","prime","5f44ee515cff5c02f09c17be","5f60e3c0a3b16e07647b2ff9","5f6382a21ff19e0635358962","false","null","<div style=""align-items: center; display: flex; color: dodgerblue; font-size: 90px""><b>o</b></div>","null","","","","forget_cue","","","","","","","","","","","","","","","",""
"html-keyboard-response","218","554444","0.0-4.0-1.0-0.33","lfded7sdmfu3640","prime","5f44ee515cff5c02f09c17be","5f60e3c0a3b16e07647b2ff9","5f6382a21ff19e0635358962","false","null","<span style=""color: black; font-size: 48px"">M + N</span>","null","","","","resp_prompt","","","","","","","","","","","","","","","",""
"categorize-image","219","555388","0.0-4.0-1.0-1.33","lfded7sdmfu3640","prime","5f44ee515cff5c02f09c17be","5f60e3c0a3b16e07647b2ff9","5f6382a21ff19e0635358962","true","936.7800000000279","./Stimuli/SelectedImages/LN/LN28.bmp","76","","","","test","true","M + N","76","switch","LN","LN28.bmp","forget","","82","3","prime1","right","","","",""
"html-keyboard-response","220","557394","0.0-4.0-1.0-3.33","lfded7sdmfu3640","prime","5f44ee515cff5c02f09c17be","5f60e3c0a3b16e07647b2ff9","5f6382a21ff19e0635358962","false","null","<div style=""align-items: center; display: flex; color: darkorange; font-size: 90px""><b>ø</b></div>","null","","","","forget_cue","","","","","","","","","","","","","","","",""
"html-keyboard-response","221","558100","0.0-4.0-1.0-0.34","lfded7sdmfu3640","prime","5f44ee515cff5c02f09c17be","5f60e3c0a3b16e07647b2ff9","5f6382a21ff19e0635358962","false","null","<span style=""color: black; font-size: 48px"">N + M</span>","null","","","","resp_prompt","","","","","","","","","","","","","","","",""
"categorize-image","222","558994","0.0-4.0-1.0-1.34","lfded7sdmfu3640","prime","5f44ee515cff5c02f09c17be","5f60e3c0a3b16e07647b2ff9","5f6382a21ff19e0635358962","true","887.490000000922","./Stimuli/SelectedImages/SN/SN27.bmp","83","","","","test","true","N + M","83","repetition","SN","SN27.bmp","remember","","83","3","prime1","left","","","",""
"html-keyboard-response","223","561001","0.0-4.0-1.0-3.34","lfded7sdmfu3640","prime","5f44ee515cff5c02f09c17be","5f60e3c0a3b16e07647b2ff9","5f6382a21ff19e0635358962","false","null","<div style=""align-items: center; display: flex; color: dodgerblue; font-size: 90px""><b>o</b></div>","null","","","","forget_cue","","","","","","","","","","","","","","","",""
"html-keyboard-response","224","561706","0.0-4.0-1.0-0.35","lfded7sdmfu3640","prime","5f44ee515cff5c02f09c17be","5f60e3c0a3b16e07647b2ff9","5f6382a21ff19e0635358962","false","null","<span style=""color: black; font-size: 48px"">N + M</span>","null","","","","resp_prompt","","","","","","","","","","","","","","","",""
"categorize-image","225","562714","0.0-4.0-1.0-1.35","lfded7sdmfu3640","prime","5f44ee515cff5c02f09c17be","5f60e3c0a3b16e07647b2ff9","5f6382a21ff19e0635358962","true","1000.7900000000373","./Stimuli/SelectedImages/SN/SN155.bmp","83","","","","test","true","N + M","83","switch","SN","SN155.bmp","forget","","84","3","prime1","left","","","",""
"html-keyboard-response","226","564719","0.0-4.0-1.0-3.35","lfded7sdmfu3640","prime","5f44ee515cff5c02f09c17be","5f60e3c0a3b16e07647b2ff9","5f6382a21ff19e0635358962","false","null","<div style=""align-items: center; display: flex; color: darkorange; font-size: 90px""><b>ø</b></div>","null","","","","forget_cue","","","","","","","","","","","","","","","",""
"html-keyboard-response","227","565424","0.0-4.0-1.0-0.36","lfded7sdmfu3640","prime","5f44ee515cff5c02f09c17be","5f60e3c0a3b16e07647b2ff9","5f6382a21ff19e0635358962","false","null","<span style=""color: black; font-size: 48px"">N + M</span>","null","","","","resp_prompt","","","","","","","","","","","","","","","",""
"categorize-image","228","566204","0.0-4.0-1.0-1.36","lfded7sdmfu3640","prime","5f44ee515cff5c02f09c17be","5f60e3c0a3b16e07647b2ff9","5f6382a21ff19e0635358962","true","771.7700000011828","./Stimuli/SelectedImages/SM/SM78.bmp","76","","","","test","true","N + M","76","switch","SM","SM78.bmp","remember","","85","3","prime1","right","","","",""
"html-keyboard-response","229","568207","0.0-4.0-1.0-3.36","lfded7sdmfu3640","prime","5f44ee515cff5c02f09c17be","5f60e3c0a3b16e07647b2ff9","5f6382a21ff19e0635358962","false","null","<div style=""align-items: center; display: flex; color: dodgerblue; font-size: 90px""><b>o</b></div>","null","","","","forget_cue","","","","","","","","","","","","","","","",""
"html-keyboard-response","230","568910","0.0-4.0-1.0-0.37","lfded7sdmfu3640","prime","5f44ee515cff5c02f09c17be","5f60e3c0a3b16e07647b2ff9","5f6382a21ff19e0635358962","false","null","<span style=""color: black; font-size: 48px"">M + N</span>","null","","","","resp_prompt","","","","","","","","","","","","","","","",""
"categorize-image","231","569812","0.0-4.0-1.0-1.37","lfded7sdmfu3640","prime","5f44ee515cff5c02f09c17be","5f60e3c0a3b16e07647b2ff9","5f6382a21ff19e0635358962","true","895.0299999996787","./Stimuli/SelectedImages/SM/SM205.bmp","83","","","","test","true","M + N","83","repetition","SM","SM205.bmp","forget","","86","3","prime1","left","","","",""
"html-keyboard-response","232","571819","0.0-4.0-1.0-3.37","lfded7sdmfu3640","prime","5f44ee515cff5c02f09c17be","5f60e3c0a3b16e07647b2ff9","5f6382a21ff19e0635358962","false","null","<div style=""align-items: center; display: flex; color: darkorange; font-size: 90px""><b>ø</b></div>","null","","","","forget_cue","","","","","","","","","","","","","","","",""
"html-keyboard-response","233","572524","0.0-4.0-1.0-0.38","lfded7sdmfu3640","prime","5f44ee515cff5c02f09c17be","5f60e3c0a3b16e07647b2ff9","5f6382a21ff19e0635358962","false","null","<span style=""color: black; font-size: 48px"">M + N</span>","null","","","","resp_prompt","","","","","","","","","","","","","","","",""
"categorize-image","234","573316","0.0-4.0-1.0-1.38","lfded7sdmfu3640","prime","5f44ee515cff5c02f09c17be","5f60e3c0a3b16e07647b2ff9","5f6382a21ff19e0635358962","true","785.515000001411","./Stimuli/SelectedImages/SN/SN49.bmp","76","","","","test","true","M + N","76","switch","SN","SN49.bmp","remember","","87","3","prime1","right","","","",""
"html-keyboard-response","235","575319","0.0-4.0-1.0-3.38","lfded7sdmfu3640","prime","5f44ee515cff5c02f09c17be","5f60e3c0a3b16e07647b2ff9","5f6382a21ff19e0635358962","false","null","<div style=""align-items: center; display: flex; color: dodgerblue; font-size: 90px""><b>o</b></div>","null","","","","forget_cue","","","","","","","","","","","","","","","",""
"html-keyboard-response","236","576025","0.0-4.0-1.0-0.39","lfded7sdmfu3640","prime","5f44ee515cff5c02f09c17be","5f60e3c0a3b16e07647b2ff9","5f6382a21ff19e0635358962","false","null","<span style=""color: black; font-size: 48px"">M + N</span>","null","","","","resp_prompt","","","","","","","","","","","","","","","",""
"categorize-image","237","577141","0.0-4.0-1.0-1.39","lfded7sdmfu3640","prime","5f44ee515cff5c02f09c17be","5f60e3c0a3b16e07647b2ff9","5f6382a21ff19e0635358962","true","1109.28000000061","./Stimuli/SelectedImages/LM/LM179.bmp","83","","","","test","true","M + N","83","repetition","LM","LM179.bmp","forget","","88","3","prime1","left","","","",""
"html-keyboard-response","238","579146","0.0-4.0-1.0-3.39","lfded7sdmfu3640","prime","5f44ee515cff5c02f09c17be","5f60e3c0a3b16e07647b2ff9","5f6382a21ff19e0635358962","false","null","<div style=""align-items: center; display: flex; color: darkorange; font-size: 90px""><b>ø</b></div>","null","","","","forget_cue","","","","","","","","","","","","","","","",""
"html-keyboard-response","239","579851","0.0-4.0-1.0-0.40","lfded7sdmfu3640","prime","5f44ee515cff5c02f09c17be","5f60e3c0a3b16e07647b2ff9","5f6382a21ff19e0635358962","false","null","<span style=""color: black; font-size: 48px"">M + N</span>","null","","","","resp_prompt","","","","","","","","","","","","","","","",""
"categorize-image","240","580692","0.0-4.0-1.0-1.40","lfded7sdmfu3640","prime","5f44ee515cff5c02f09c17be","5f60e3c0a3b16e07647b2ff9","5f6382a21ff19e0635358962","true","833.7300000002142","./Stimuli/SelectedImages/LN/LN150.bmp","76","","","","test","true","M + N","76","repetition","LN","LN150.bmp","remember","","89","3","prime1","right","","","",""
"html-keyboard-response","241","582697","0.0-4.0-1.0-3.40","lfded7sdmfu3640","prime","5f44ee515cff5c02f09c17be","5f60e3c0a3b16e07647b2ff9","5f6382a21ff19e0635358962","false","null","<div style=""align-items: center; display: flex; color: dodgerblue; font-size: 90px""><b>o</b></div>","null","","","","forget_cue","","","","","","","","","","","","","","","",""
"html-keyboard-response","242","583403","0.0-4.0-1.0-0.41","lfded7sdmfu3640","prime","5f44ee515cff5c02f09c17be","5f60e3c0a3b16e07647b2ff9","5f6382a21ff19e0635358962","false","null","<span style=""color: black; font-size: 48px"">N + M</span>","null","","","","resp_prompt","","","","","","","","","","","","","","","",""
"categorize-image","243","584268","0.0-4.0-1.0-1.41","lfded7sdmfu3640","prime","5f44ee515cff5c02f09c17be","5f60e3c0a3b16e07647b2ff9","5f6382a21ff19e0635358962","true","858.2350000014994","./Stimuli/SelectedImages/SM/SM200.bmp","76","","","","test","true","N + M","76","switch","SM","SM200.bmp","forget","","90","3","prime1","right","","","",""
"html-keyboard-response","244","586275","0.0-4.0-1.0-3.41","lfded7sdmfu3640","prime","5f44ee515cff5c02f09c17be","5f60e3c0a3b16e07647b2ff9","5f6382a21ff19e0635358962","false","null","<div style=""align-items: center; display: flex; color: darkorange; font-size: 90px""><b>ø</b></div>","null","","","","forget_cue","","","","","","","","","","","","","","","",""
"html-keyboard-response","245","586981","0.0-4.0-1.0-0.42","lfded7sdmfu3640","prime","5f44ee515cff5c02f09c17be","5f60e3c0a3b16e07647b2ff9","5f6382a21ff19e0635358962","false","null","<span style=""color: black; font-size: 48px"">N + M</span>","null","","","","resp_prompt","","","","","","","","","","","","","","","",""
"categorize-image","246","587924","0.0-4.0-1.0-1.42","lfded7sdmfu3640","prime","5f44ee515cff5c02f09c17be","5f60e3c0a3b16e07647b2ff9","5f6382a21ff19e0635358962","true","935.7799999997951","./Stimuli/SelectedImages/LM/LM216.bmp","76","","","","test","true","N + M","76","repetition","LM","LM216.bmp","remember","","91","3","prime1","right","","","",""
"html-keyboard-response","247","589929","0.0-4.0-1.0-3.42","lfded7sdmfu3640","prime","5f44ee515cff5c02f09c17be","5f60e3c0a3b16e07647b2ff9","5f6382a21ff19e0635358962","false","null","<div style=""align-items: center; display: flex; color: dodgerblue; font-size: 90px""><b>o</b></div>","null","","","","forget_cue","","","","","","","","","","","","","","","",""
"html-keyboard-response","248","590635","0.0-4.0-1.0-0.43","lfded7sdmfu3640","prime","5f44ee515cff5c02f09c17be","5f60e3c0a3b16e07647b2ff9","5f6382a21ff19e0635358962","false","null","<span style=""color: black; font-size: 48px"">N + M</span>","null","","","","resp_prompt","","","","","","","","","","","","","","","",""
"categorize-image","249","591935","0.0-4.0-1.0-1.43","lfded7sdmfu3640","prime","5f44ee515cff5c02f09c17be","5f60e3c0a3b16e07647b2ff9","5f6382a21ff19e0635358962","true","1293.3200000006473","./Stimuli/SelectedImages/SM/SM195.bmp","76","","","","test","true","N + M","76","switch","SM","SM195.bmp","forget","","92","3","prime1","right","","","",""
"html-keyboard-response","250","593939","0.0-4.0-1.0-3.43","lfded7sdmfu3640","prime","5f44ee515cff5c02f09c17be","5f60e3c0a3b16e07647b2ff9","5f6382a21ff19e0635358962","false","null","<div style=""align-items: center; display: flex; color: darkorange; font-size: 90px""><b>ø</b></div>","null","","","","forget_cue","","","","","","","","","","","","","","","",""
"html-keyboard-response","251","594643","0.0-4.0-1.0-0.44","lfded7sdmfu3640","prime","5f44ee515cff5c02f09c17be","5f60e3c0a3b16e07647b2ff9","5f6382a21ff19e0635358962","false","null","<span style=""color: black; font-size: 48px"">N + M</span>","null","","","","resp_prompt","","","","","","","","","","","","","","","",""
"categorize-image","252","595495","0.0-4.0-1.0-1.44","lfded7sdmfu3640","prime","5f44ee515cff5c02f09c17be","5f60e3c0a3b16e07647b2ff9","5f6382a21ff19e0635358962","true","844.8349999998463","./Stimuli/SelectedImages/LN/LN42.bmp","83","","","","test","true","N + M","83","repetition","LN","LN42.bmp","forget","","93","3","prime1","left","","","",""
