"trial_type","trial_index","time_elapsed","internal_node_id","subject","exp_part","prolific_PID","study_ID","session_ID","use","rt","stimulus","key_press","button_pressed","responses","question_order","trial_part","correct","resp_map","correct_resp","probe_condition","category","image","forget_condition","list","trial_num","block_num","block","response","test_part","n_span","sequence","num_spaces"
"pavlovia","0","7","0.0-0.0","s1tua0rnrvunjqw","","5e78463da9db373bfee6bd36","5f60e3c0a3b16e07647b2ff9","5f64c2cfec56db02dd4b32c0","false","","","","","","","","","","","","","","","","","","","","","","",""
"html-keyboard-response","1","4002","0.0-1.0-0.0-0.0","s1tua0rnrvunjqw","welcome","5e78463da9db373bfee6bd36","5f60e3c0a3b16e07647b2ff9","5f64c2cfec56db02dd4b32c0","false","3992","<div align=left>Dear participant, <br> thank you for participating in an online study of the Cognition, Action, and Sustainability Unit of the University of Freiburg! <br> <br>The aim of this study is to examine our ability to remember previously learned information. <br>Our goal is to find out, whether our memory improves, when we only remember information that is relevant to us. <br>The experiment will take about 35 minutes to complete. <br> <br>Please, note that you can only participate in this study if you are using a device with a keyboard (PC, Laptop etc.) <br>and not if you are using a mobile device such as a tablet or smartphone.<br> <br>Press 'SPACE' to proceed to the experiment. </div>","32","","","","","","","","","","","","","","","","","","","",""
"html-keyboard-response","2","17278","0.0-1.0-0.0-1.0","s1tua0rnrvunjqw","welcome","5e78463da9db373bfee6bd36","5f60e3c0a3b16e07647b2ff9","5f64c2cfec56db02dd4b32c0","false","13274","<div align=left><strong> Time Course of this experiment: </strong> <br><br> <strong> 1.</strong>  First, please fill in some information regarding your demographic data. <br><br> <strong> 2.</strong>  Next, your task will be to classify everyday objects. <br>In addition, you will be asked to remember certain objects and recall them later. <br>Working on these tasks requires your undivided attention and concentration.<br>It is therefore essential that you eliminate any sources of distraction in your  <br>environment and ensure that you will not be disturbed. <br><br><strong> 3.</strong>  At the end of the experiment, you will be asked to answer a few additional questions. <br> <br><strong> Important:</strong> After finishing the experiment, only close the browser window <br> by clicking on the 'end the experiment'-button when you are asked to do so. <br>Closing the browser window prematurely will make the allocation of your participation credit impossible. <br><br> Press 'SPACE' to start the experiment. </div>","32","","","","","","","","","","","","","","","","","","","",""
"html-button-response","3","19350","0.0-1.0-0.0-2.0","s1tua0rnrvunjqw","welcome","5e78463da9db373bfee6bd36","5f60e3c0a3b16e07647b2ff9","5f64c2cfec56db02dd4b32c0","true","2070","<div align=left><strong> Informed consent </strong>  <br>The aim of our research is to better understand human behavior and mental processes. <br>In the following study your behavior (e.g. choices, reaction times) will be studied. <br> <br><strong> Voluntariness and Anonymity </strong> <br>Your participation in this study is  <strong> voluntary</strong>.<br>You may withdraw your consent to participate at any time without providing a reason for doing so and without fear of prejudice. <br><br>As no personal data will be collected, <strong>your data and your person cannot be connected after data collection</strong> – the data-set is anonymous. <br>Respectively, deletion of your data will not be possible after data collection has been completed, as we cannot retrace your data-set.<br>The results and anonymized data collected in this study will be published as a scientific publication. <br>This will happen in an <strong>anonymized format</strong>, so that no data can be traced back to a specific person. <br> <br>The anonymized data of this study will be made available to other researchers and/or in a data archive on the Internet as a means of transparency and to enable subsequent re-use. By doing so, this study follows the recommendations of the Deutsche Forschungsgemeinschaft (DFG, German Research Foundation) and Deutsche Gesellschaft für Psychologie (DGPS, German Psychological Society) regarding quality assurance in research.<br>If you have any questions now or after the experiment, please contact our team (experiments@cs.uni-freiburg.de).<br><br><br>I hereby declare, that I understand the above described conditions of participation and I agree to participate under these conditions. <br><br> </div>","","0","","","","","","","","","","","","","","","","","","",""
"html-keyboard-response","4","40005","0.0-1.0-0.0-3.0","s1tua0rnrvunjqw","welcome","5e78463da9db373bfee6bd36","5f60e3c0a3b16e07647b2ff9","5f64c2cfec56db02dd4b32c0","false","20653.000000000004","<div align=left><strong> General information concerning the experiment </strong>  <br> <br>Please follow the instructions:<ol> <li><strong> Do not leave this tab (your browser window) during the experiment and do not reload this tab! </strong>  <br>If you do switch tabs/windows during the experiment (to check your mail or visit another website, for example), <br>the experiment will end automatically and you will <strong>not receive credit</strong> for your participation. <br>Repeated participation or resumption of the experiment is impossible.</li> <br><li>Please close all other programs for the duration of your participation. </li> <br><li>Please mute or turn off your phone and put it out of your reach. </li> <br><li>Please also take off any disturbing accessories (such as wristwatches, bracelets, etc.). </li> <br><li>If you have music playing in the background, please turn it off now. </li> <br></ol>Thank you! <br>Press 'SPACE' to continue. </div>","32","","","","","","","","","","","","","","","","","","","",""
"survey-text","5","42376","0.0-1.0-1.0-0.0","s1tua0rnrvunjqw","demographics","5e78463da9db373bfee6bd36","5f60e3c0a3b16e07647b2ff9","5f64c2cfec56db02dd4b32c0","true","2340.0000000000073","","","","{""age"":""21""}","","","","","","","","","","","","","","","","","",""
"survey-multi-choice","6","61239","0.0-1.0-1.0-1.0","s1tua0rnrvunjqw","demographics","5e78463da9db373bfee6bd36","5f60e3c0a3b16e07647b2ff9","5f64c2cfec56db02dd4b32c0","true","18857.999999999993","","","","{""gender"":""female"",""school"":""high school"",""education"":""Still in training/ university""}","[0,1,2]","","","","","","","","","","","","","","","","",""
"survey-text","7","69871","0.0-1.0-1.0-2.0-0.0","s1tua0rnrvunjqw","demographics","5e78463da9db373bfee6bd36","5f60e3c0a3b16e07647b2ff9","5f64c2cfec56db02dd4b32c0","true","8622","","","","{""education_text"":""neuroscience""}","","","","","","","","","","","","","","","","","",""
"html-keyboard-response","8","72061","0.0-1.0-2.0","s1tua0rnrvunjqw","instructions","5e78463da9db373bfee6bd36","5f60e3c0a3b16e07647b2ff9","5f64c2cfec56db02dd4b32c0","false","2188","<div align=left> The experiment is now about to start: <br> <br>In the following part, you will be presented pictures of everyday objects. <br>Your first task is to <strong>classify these objects. </strong> <br> <br> You will classify them either as mechanical or non-mechanical objects. <br> <br>Objects that include any kind of technical mechanism (for example, wheels, switches, levers, <br> electronic components) fall under the category of <strong>mechanical</strong> objects. <br>Only objects without any kind of technical mechanism should be classified as <strong>non-mechanical</strong>. <br><br>Press 'SPACE' to continue. </div>","32","","","","","","","","","","","","","","","","","","","",""
"html-keyboard-response","9","96896","0.0-2.0-0.0","s1tua0rnrvunjqw","instructions","5e78463da9db373bfee6bd36","5f60e3c0a3b16e07647b2ff9","5f64c2cfec56db02dd4b32c0","false","24832","<div align=justify>You will classify the objects using the <strong>'S'</strong> and the <strong>'L'</strong> keys on your keyboard.<br>For doing so, please place your <strong>left index finger</strong> on the <strong>'S'</strong> key and place your <strong>right index finger</strong> on the <strong>'L'</strong> key. <br><br> Each trial starts with an instruction, indicating which key ('S'/'L') you need to press to classify <br>the object as mechanical (letter M) or non-mechanical (letter N).<br>The instruction <strong>M + N</strong> indicates that, in the current trial, by pressing the left key ('S') you classify the displayed object as mechanical (M) <br> and by pressing the right key ('L') you classify the object as non-mechanical (N). <br>The instruction <strong>N + M</strong> on the other hand indicates that by pressing the left key ('S') you classify the displayed object as non-mechanical (N) <br> and by pressing the right key ('L') you classify the object as mechanical (M). <br><br>Please press the key corresponding to the correct classification as fast as possible as soon as the object is displayed and try to avoid making mistakes.<br>If you do not respond within a 2 second window, a corresponding feedback will be displayed and the next trial will start.<br> The experiment is divided into multiple blocks to give you the opportunity to take a break after each block. <br>First, you can now practice this task. <br><br>Please place your <strong>LEFT INDEX FINGER</strong> on the 'S' key and your <strong>RIGHT INDEX FINGER</strong> on the 'L' key now. <br><br>Press SPACE to continue.</div>","32","","","","","","","","","","","","","","","","","","","",""
"html-keyboard-response","10","101041","0.0-2.0-1.0","s1tua0rnrvunjqw","instructions","5e78463da9db373bfee6bd36","5f60e3c0a3b16e07647b2ff9","5f64c2cfec56db02dd4b32c0","false","4144.000000000015","<div align=left> You will now have time to practice this task.<br><br>Remember: <br> <br><li>Please place your index fingers on the <strong>'S'</strong> and <strong>'L'</strong> keys <br>to respond as fast and accurately as possible.</li><li>Every picture can be classified as either mechanical or non-mechanical.</li><li>If you do not respond in time or commit an error, you will receive a corresponding feedback. </li><li> Please try to respond as <strong> fast </strong> and as <strong> accurately as possible </strong> .<br><li>To ensure optimal results, please minimize distractions and stay focused. </li><br><br>Press SPACE to continue.</div>","32","","","","","","","","","","","","","","","","","","","",""
"html-keyboard-response","11","101744","0.0-2.0-2.0-0.0","s1tua0rnrvunjqw","practice_no_cue","5e78463da9db373bfee6bd36","5f60e3c0a3b16e07647b2ff9","5f64c2cfec56db02dd4b32c0","false","null","<span style=""color: black; font-size: 48px"">M + N</span>","null","","","","resp_prompt","","","","","","","","","","","","","","","",""
"categorize-image","12","103239","0.0-2.0-2.0-1.0","s1tua0rnrvunjqw","practice_no_cue","5e78463da9db373bfee6bd36","5f60e3c0a3b16e07647b2ff9","5f64c2cfec56db02dd4b32c0","true","990","./Stimuli/ImagesPractice/SN222.jpg","83","","","","test","false","M + N","76","","SN","SN222.jpg","remember","old","1","1","start","left","","","",""
"html-keyboard-response","13","103942","0.0-2.0-2.0-0.1","s1tua0rnrvunjqw","practice_no_cue","5e78463da9db373bfee6bd36","5f60e3c0a3b16e07647b2ff9","5f64c2cfec56db02dd4b32c0","false","null","<span style=""color: black; font-size: 48px"">N + M</span>","null","","","","resp_prompt","","","","","","","","","","","","","","","",""
"categorize-image","14","104623","0.0-2.0-2.0-1.1","s1tua0rnrvunjqw","practice_no_cue","5e78463da9db373bfee6bd36","5f60e3c0a3b16e07647b2ff9","5f64c2cfec56db02dd4b32c0","true","178","./Stimuli/ImagesPractice/LM224.jpg","76","","","","test","true","N + M","76","","LM","LM224.jpg","remember","old","2","1","start","right","","","",""
"html-keyboard-response","15","105325","0.0-2.0-2.0-0.2","s1tua0rnrvunjqw","practice_no_cue","5e78463da9db373bfee6bd36","5f60e3c0a3b16e07647b2ff9","5f64c2cfec56db02dd4b32c0","false","null","<span style=""color: black; font-size: 48px"">M + N</span>","null","","","","resp_prompt","","","","","","","","","","","","","","","",""
"categorize-image","16","106049","0.0-2.0-2.0-1.2","s1tua0rnrvunjqw","practice_no_cue","5e78463da9db373bfee6bd36","5f60e3c0a3b16e07647b2ff9","5f64c2cfec56db02dd4b32c0","true","220.00000000001455","./Stimuli/ImagesPractice/SN76.jpg","76","","","","test","true","M + N","76","","SN","SN76.jpg","remember","old","3","1","start","right","","","",""
"html-keyboard-response","17","106751","0.0-2.0-2.0-0.3","s1tua0rnrvunjqw","practice_no_cue","5e78463da9db373bfee6bd36","5f60e3c0a3b16e07647b2ff9","5f64c2cfec56db02dd4b32c0","false","null","<span style=""color: black; font-size: 48px"">M + N</span>","null","","","","resp_prompt","","","","","","","","","","","","","","","",""
"categorize-image","18","107777","0.0-2.0-2.0-1.3","s1tua0rnrvunjqw","practice_no_cue","5e78463da9db373bfee6bd36","5f60e3c0a3b16e07647b2ff9","5f64c2cfec56db02dd4b32c0","true","522","./Stimuli/ImagesPractice/LN72.jpg","76","","","","test","true","M + N","76","","LN","LN72.jpg","forget","old","4","1","start","right","","","",""
"html-keyboard-response","19","108479","0.0-2.0-2.0-0.4","s1tua0rnrvunjqw","practice_no_cue","5e78463da9db373bfee6bd36","5f60e3c0a3b16e07647b2ff9","5f64c2cfec56db02dd4b32c0","false","null","<span style=""color: black; font-size: 48px"">N + M</span>","null","","","","resp_prompt","","","","","","","","","","","","","","","",""
"categorize-image","20","110036","0.0-2.0-2.0-1.4","s1tua0rnrvunjqw","practice_no_cue","5e78463da9db373bfee6bd36","5f60e3c0a3b16e07647b2ff9","5f64c2cfec56db02dd4b32c0","true","1053","./Stimuli/ImagesPractice/SM35.jpg","76","","","","test","true","N + M","76","","SM","SM35.jpg","forget","old","5","1","start","right","","","",""
"html-keyboard-response","21","110738","0.0-2.0-2.0-0.5","s1tua0rnrvunjqw","practice_no_cue","5e78463da9db373bfee6bd36","5f60e3c0a3b16e07647b2ff9","5f64c2cfec56db02dd4b32c0","false","null","<span style=""color: black; font-size: 48px"">N + M</span>","null","","","","resp_prompt","","","","","","","","","","","","","","","",""
"categorize-image","22","112136","0.0-2.0-2.0-1.5","s1tua0rnrvunjqw","practice_no_cue","5e78463da9db373bfee6bd36","5f60e3c0a3b16e07647b2ff9","5f64c2cfec56db02dd4b32c0","true","895","./Stimuli/ImagesPractice/LM143.jpg","76","","","","test","true","N + M","76","","LM","LM143.jpg","forget","old","6","1","start","right","","","",""
"html-keyboard-response","23","112839","0.0-2.0-2.0-0.6","s1tua0rnrvunjqw","practice_no_cue","5e78463da9db373bfee6bd36","5f60e3c0a3b16e07647b2ff9","5f64c2cfec56db02dd4b32c0","false","null","<span style=""color: black; font-size: 48px"">N + M</span>","null","","","","resp_prompt","","","","","","","","","","","","","","","",""
"categorize-image","24","114039","0.0-2.0-2.0-1.6","s1tua0rnrvunjqw","practice_no_cue","5e78463da9db373bfee6bd36","5f60e3c0a3b16e07647b2ff9","5f64c2cfec56db02dd4b32c0","true","697","./Stimuli/ImagesPractice/LN4.jpg","76","","","","test","false","N + M","83","","LN","LN4.jpg","remember","old","7","1","start","right","","","",""
"html-keyboard-response","25","114741","0.0-2.0-2.0-0.7","s1tua0rnrvunjqw","practice_no_cue","5e78463da9db373bfee6bd36","5f60e3c0a3b16e07647b2ff9","5f64c2cfec56db02dd4b32c0","false","null","<span style=""color: black; font-size: 48px"">N + M</span>","null","","","","resp_prompt","","","","","","","","","","","","","","","",""
"categorize-image","26","116778","0.0-2.0-2.0-1.7","s1tua0rnrvunjqw","practice_no_cue","5e78463da9db373bfee6bd36","5f60e3c0a3b16e07647b2ff9","5f64c2cfec56db02dd4b32c0","true","1533.0000000000146","./Stimuli/ImagesPractice/LM55.jpg","83","","","","test","false","N + M","76","","LM","LM55.jpg","forget","old","8","1","start","left","","","",""
"html-keyboard-response","27","117479","0.0-2.0-2.0-0.8","s1tua0rnrvunjqw","practice_no_cue","5e78463da9db373bfee6bd36","5f60e3c0a3b16e07647b2ff9","5f64c2cfec56db02dd4b32c0","false","null","<span style=""color: black; font-size: 48px"">N + M</span>","null","","","","resp_prompt","","","","","","","","","","","","","","","",""
"categorize-image","28","119289","0.0-2.0-2.0-1.8","s1tua0rnrvunjqw","practice_no_cue","5e78463da9db373bfee6bd36","5f60e3c0a3b16e07647b2ff9","5f64c2cfec56db02dd4b32c0","true","1306","./Stimuli/ImagesPractice/LN109.jpg","76","","","","test","false","N + M","83","","LN","LN109.jpg","remember","old","9","1","start","right","","","",""
"html-keyboard-response","29","119991","0.0-2.0-2.0-0.9","s1tua0rnrvunjqw","practice_no_cue","5e78463da9db373bfee6bd36","5f60e3c0a3b16e07647b2ff9","5f64c2cfec56db02dd4b32c0","false","null","<span style=""color: black; font-size: 48px"">M + N</span>","null","","","","resp_prompt","","","","","","","","","","","","","","","",""
"categorize-image","30","121295","0.0-2.0-2.0-1.9","s1tua0rnrvunjqw","practice_no_cue","5e78463da9db373bfee6bd36","5f60e3c0a3b16e07647b2ff9","5f64c2cfec56db02dd4b32c0","true","802.0000000000146","./Stimuli/ImagesPractice/LN17.jpg","76","","","","test","true","M + N","76","","LN","LN17.jpg","remember","old","10","1","start","right","","","",""
"html-keyboard-response","31","121998","0.0-2.0-2.0-0.10","s1tua0rnrvunjqw","practice_no_cue","5e78463da9db373bfee6bd36","5f60e3c0a3b16e07647b2ff9","5f64c2cfec56db02dd4b32c0","false","null","<span style=""color: black; font-size: 48px"">N + M</span>","null","","","","resp_prompt","","","","","","","","","","","","","","","",""
"categorize-image","32","122950","0.0-2.0-2.0-1.10","s1tua0rnrvunjqw","practice_no_cue","5e78463da9db373bfee6bd36","5f60e3c0a3b16e07647b2ff9","5f64c2cfec56db02dd4b32c0","true","449","./Stimuli/ImagesPractice/LN2.jpg","76","","","","test","false","N + M","83","","LN","LN2.jpg","forget","old","11","1","start","right","","","",""
"html-keyboard-response","33","123652","0.0-2.0-2.0-0.11","s1tua0rnrvunjqw","practice_no_cue","5e78463da9db373bfee6bd36","5f60e3c0a3b16e07647b2ff9","5f64c2cfec56db02dd4b32c0","false","null","<span style=""color: black; font-size: 48px"">M + N</span>","null","","","","resp_prompt","","","","","","","","","","","","","","","",""
"categorize-image","34","125142","0.0-2.0-2.0-1.11","s1tua0rnrvunjqw","practice_no_cue","5e78463da9db373bfee6bd36","5f60e3c0a3b16e07647b2ff9","5f64c2cfec56db02dd4b32c0","true","987.0000000000146","./Stimuli/ImagesPractice/SM62.jpg","83","","","","test","true","M + N","83","","SM","SM62.jpg","forget","old","12","1","start","left","","","",""
"html-keyboard-response","35","125845","0.0-2.0-2.0-0.12","s1tua0rnrvunjqw","practice_no_cue","5e78463da9db373bfee6bd36","5f60e3c0a3b16e07647b2ff9","5f64c2cfec56db02dd4b32c0","false","null","<span style=""color: black; font-size: 48px"">M + N</span>","null","","","","resp_prompt","","","","","","","","","","","","","","","",""
"categorize-image","36","126991","0.0-2.0-2.0-1.12","s1tua0rnrvunjqw","practice_no_cue","5e78463da9db373bfee6bd36","5f60e3c0a3b16e07647b2ff9","5f64c2cfec56db02dd4b32c0","true","643","./Stimuli/ImagesPractice/SM98.jpg","83","","","","test","true","M + N","83","","SM","SM98.jpg","forget","old","13","1","start","left","","","",""
"html-keyboard-response","37","127694","0.0-2.0-2.0-0.13","s1tua0rnrvunjqw","practice_no_cue","5e78463da9db373bfee6bd36","5f60e3c0a3b16e07647b2ff9","5f64c2cfec56db02dd4b32c0","false","null","<span style=""color: black; font-size: 48px"">N + M</span>","null","","","","resp_prompt","","","","","","","","","","","","","","","",""
"categorize-image","38","128706","0.0-2.0-2.0-1.13","s1tua0rnrvunjqw","practice_no_cue","5e78463da9db373bfee6bd36","5f60e3c0a3b16e07647b2ff9","5f64c2cfec56db02dd4b32c0","true","509","./Stimuli/ImagesPractice/LM239.jpg","76","","","","test","true","N + M","76","","LM","LM239.jpg","remember","old","14","1","start","right","","","",""
"html-keyboard-response","39","129409","0.0-2.0-2.0-0.14","s1tua0rnrvunjqw","practice_no_cue","5e78463da9db373bfee6bd36","5f60e3c0a3b16e07647b2ff9","5f64c2cfec56db02dd4b32c0","false","null","<span style=""color: black; font-size: 48px"">M + N</span>","null","","","","resp_prompt","","","","","","","","","","","","","","","",""
"categorize-image","40","130440","0.0-2.0-2.0-1.14","s1tua0rnrvunjqw","practice_no_cue","5e78463da9db373bfee6bd36","5f60e3c0a3b16e07647b2ff9","5f64c2cfec56db02dd4b32c0","true","528","./Stimuli/ImagesPractice/SN221.jpg","76","","","","test","true","M + N","76","","SN","SN221.jpg","forget","old","15","1","start","right","","","",""
"html-keyboard-response","41","131143","0.0-2.0-2.0-0.15","s1tua0rnrvunjqw","practice_no_cue","5e78463da9db373bfee6bd36","5f60e3c0a3b16e07647b2ff9","5f64c2cfec56db02dd4b32c0","false","null","<span style=""color: black; font-size: 48px"">M + N</span>","null","","","","resp_prompt","","","","","","","","","","","","","","","",""
"categorize-image","42","132272","0.0-2.0-2.0-1.15","s1tua0rnrvunjqw","practice_no_cue","5e78463da9db373bfee6bd36","5f60e3c0a3b16e07647b2ff9","5f64c2cfec56db02dd4b32c0","true","625","./Stimuli/ImagesPractice/SN75.jpg","76","","","","test","true","M + N","76","","SN","SN75.jpg","remember","old","16","1","start","right","","","",""
"html-keyboard-response","43","138222","0.0-2.0-3.0","s1tua0rnrvunjqw","break","5e78463da9db373bfee6bd36","5f60e3c0a3b16e07647b2ff9","5f64c2cfec56db02dd4b32c0","false","5947","<p style='font-size: 32px;'>Break</><br><br><br><br><br><p style='font-size: 24px;'>In the last block, you committed 5 errors and did not respond in time on 0 trials.
</p><p style='font-size: 24px;'>Try to respond as fast and accurately as possible in the next block as well! </p><p style='font-size: 24px;'>Press SPACE to continue.</p>","32","","","","","","","","","","","","","","","","","","","",""
"html-keyboard-response","44","143686","0.0-2.0-4.0","s1tua0rnrvunjqw","instructions","5e78463da9db373bfee6bd36","5f60e3c0a3b16e07647b2ff9","5f64c2cfec56db02dd4b32c0","false","5462","<div align=left> Great!<br><br>Are you ready to continue?<br><br>If you want to reread the instructions and redo the practice trials, <br>please press „Z“. <br><br>Press SPACE to CONTINUE with the experiment when you are ready. </div>","90","","","","","","","","","","","","","","","","","","","",""
"html-keyboard-response","45","167855","0.0-2.1-0.1","s1tua0rnrvunjqw","instructions","5e78463da9db373bfee6bd36","5f60e3c0a3b16e07647b2ff9","5f64c2cfec56db02dd4b32c0","false","24166","<div align=justify>You will classify the objects using the <strong>'S'</strong> and the <strong>'L'</strong> keys on your keyboard.<br>For doing so, please place your <strong>left index finger</strong> on the <strong>'S'</strong> key and place your <strong>right index finger</strong> on the <strong>'L'</strong> key. <br><br> Each trial starts with an instruction, indicating which key ('S'/'L') you need to press to classify <br>the object as mechanical (letter M) or non-mechanical (letter N).<br>The instruction <strong>M + N</strong> indicates that, in the current trial, by pressing the left key ('S') you classify the displayed object as mechanical (M) <br> and by pressing the right key ('L') you classify the object as non-mechanical (N). <br>The instruction <strong>N + M</strong> on the other hand indicates that by pressing the left key ('S') you classify the displayed object as non-mechanical (N) <br> and by pressing the right key ('L') you classify the object as mechanical (M). <br><br>Please press the key corresponding to the correct classification as fast as possible as soon as the object is displayed and try to avoid making mistakes.<br>If you do not respond within a 2 second window, a corresponding feedback will be displayed and the next trial will start.<br> The experiment is divided into multiple blocks to give you the opportunity to take a break after each block. <br>First, you can now practice this task. <br><br>Please place your <strong>LEFT INDEX FINGER</strong> on the 'S' key and your <strong>RIGHT INDEX FINGER</strong> on the 'L' key now. <br><br>Press SPACE to continue.</div>","32","","","","","","","","","","","","","","","","","","","",""
"html-keyboard-response","46","171458","0.0-2.1-1.1","s1tua0rnrvunjqw","instructions","5e78463da9db373bfee6bd36","5f60e3c0a3b16e07647b2ff9","5f64c2cfec56db02dd4b32c0","false","3601.999999999971","<div align=left> You will now have time to practice this task.<br><br>Remember: <br> <br><li>Please place your index fingers on the <strong>'S'</strong> and <strong>'L'</strong> keys <br>to respond as fast and accurately as possible.</li><li>Every picture can be classified as either mechanical or non-mechanical.</li><li>If you do not respond in time or commit an error, you will receive a corresponding feedback. </li><li> Please try to respond as <strong> fast </strong> and as <strong> accurately as possible </strong> .<br><li>To ensure optimal results, please minimize distractions and stay focused. </li><br><br>Press SPACE to continue.</div>","32","","","","","","","","","","","","","","","","","","","",""
"html-keyboard-response","47","172161","0.0-2.1-2.1-0.16","s1tua0rnrvunjqw","practice_no_cue","5e78463da9db373bfee6bd36","5f60e3c0a3b16e07647b2ff9","5f64c2cfec56db02dd4b32c0","false","null","<span style=""color: black; font-size: 48px"">N + M</span>","null","","","","resp_prompt","","","","","","","","","","","","","","","",""
"categorize-image","48","173623","0.0-2.1-2.1-1.16","s1tua0rnrvunjqw","practice_no_cue","5e78463da9db373bfee6bd36","5f60e3c0a3b16e07647b2ff9","5f64c2cfec56db02dd4b32c0","true","959","./Stimuli/ImagesPractice/SM35.jpg","76","","","","test","true","N + M","76","","SM","SM35.jpg","forget","old","17","2","practice_forget","right","","","",""
"html-keyboard-response","49","174326","0.0-2.1-2.1-0.17","s1tua0rnrvunjqw","practice_no_cue","5e78463da9db373bfee6bd36","5f60e3c0a3b16e07647b2ff9","5f64c2cfec56db02dd4b32c0","false","null","<span style=""color: black; font-size: 48px"">N + M</span>","null","","","","resp_prompt","","","","","","","","","","","","","","","",""
"categorize-image","50","176829","0.0-2.1-2.1-1.17","s1tua0rnrvunjqw","practice_no_cue","5e78463da9db373bfee6bd36","5f60e3c0a3b16e07647b2ff9","5f64c2cfec56db02dd4b32c0","true","null","./Stimuli/ImagesPractice/LM55.jpg","null","","","","test","false","N + M","76","","LM","LM55.jpg","forget","old","18","2","practice_forget","too_slow","","","",""
"html-keyboard-response","51","177532","0.0-2.1-2.1-0.18","s1tua0rnrvunjqw","practice_no_cue","5e78463da9db373bfee6bd36","5f60e3c0a3b16e07647b2ff9","5f64c2cfec56db02dd4b32c0","false","null","<span style=""color: black; font-size: 48px"">M + N</span>","null","","","","resp_prompt","","","","","","","","","","","","","","","",""
"categorize-image","52","178701","0.0-2.1-2.1-1.18","s1tua0rnrvunjqw","practice_no_cue","5e78463da9db373bfee6bd36","5f60e3c0a3b16e07647b2ff9","5f64c2cfec56db02dd4b32c0","true","666","./Stimuli/ImagesPractice/LN17.jpg","76","","","","test","true","M + N","76","","LN","LN17.jpg","remember","old","19","2","practice_forget","right","","","",""
"html-keyboard-response","53","179404","0.0-2.1-2.1-0.19","s1tua0rnrvunjqw","practice_no_cue","5e78463da9db373bfee6bd36","5f60e3c0a3b16e07647b2ff9","5f64c2cfec56db02dd4b32c0","false","null","<span style=""color: black; font-size: 48px"">M + N</span>","null","","","","resp_prompt","","","","","","","","","","","","","","","",""
"categorize-image","54","180519","0.0-2.1-2.1-1.19","s1tua0rnrvunjqw","practice_no_cue","5e78463da9db373bfee6bd36","5f60e3c0a3b16e07647b2ff9","5f64c2cfec56db02dd4b32c0","true","612.0000000000291","./Stimuli/ImagesPractice/LN72.jpg","76","","","","test","true","M + N","76","","LN","LN72.jpg","forget","old","20","2","practice_forget","right","","","",""
"html-keyboard-response","55","181222","0.0-2.1-2.1-0.20","s1tua0rnrvunjqw","practice_no_cue","5e78463da9db373bfee6bd36","5f60e3c0a3b16e07647b2ff9","5f64c2cfec56db02dd4b32c0","false","null","<span style=""color: black; font-size: 48px"">N + M</span>","null","","","","resp_prompt","","","","","","","","","","","","","","","",""
"categorize-image","56","182061","0.0-2.1-2.1-1.20","s1tua0rnrvunjqw","practice_no_cue","5e78463da9db373bfee6bd36","5f60e3c0a3b16e07647b2ff9","5f64c2cfec56db02dd4b32c0","true","336","./Stimuli/ImagesPractice/LM239.jpg","76","","","","test","true","N + M","76","","LM","LM239.jpg","remember","old","21","2","practice_forget","right","","","",""
"html-keyboard-response","57","182762","0.0-2.1-2.1-0.21","s1tua0rnrvunjqw","practice_no_cue","5e78463da9db373bfee6bd36","5f60e3c0a3b16e07647b2ff9","5f64c2cfec56db02dd4b32c0","false","null","<span style=""color: black; font-size: 48px"">N + M</span>","null","","","","resp_prompt","","","","","","","","","","","","","","","",""
"categorize-image","58","183743","0.0-2.1-2.1-1.21","s1tua0rnrvunjqw","practice_no_cue","5e78463da9db373bfee6bd36","5f60e3c0a3b16e07647b2ff9","5f64c2cfec56db02dd4b32c0","true","478","./Stimuli/ImagesPractice/LN4.jpg","76","","","","test","false","N + M","83","","LN","LN4.jpg","remember","old","22","2","practice_forget","right","","","",""
"html-keyboard-response","59","184446","0.0-2.1-2.1-0.22","s1tua0rnrvunjqw","practice_no_cue","5e78463da9db373bfee6bd36","5f60e3c0a3b16e07647b2ff9","5f64c2cfec56db02dd4b32c0","false","null","<span style=""color: black; font-size: 48px"">N + M</span>","null","","","","resp_prompt","","","","","","","","","","","","","","","",""
"categorize-image","60","185638","0.0-2.1-2.1-1.22","s1tua0rnrvunjqw","practice_no_cue","5e78463da9db373bfee6bd36","5f60e3c0a3b16e07647b2ff9","5f64c2cfec56db02dd4b32c0","true","689","./Stimuli/ImagesPractice/LM143.jpg","76","","","","test","true","N + M","76","","LM","LM143.jpg","forget","old","23","2","practice_forget","right","","","",""
"html-keyboard-response","61","186340","0.0-2.1-2.1-0.23","s1tua0rnrvunjqw","practice_no_cue","5e78463da9db373bfee6bd36","5f60e3c0a3b16e07647b2ff9","5f64c2cfec56db02dd4b32c0","false","null","<span style=""color: black; font-size: 48px"">N + M</span>","null","","","","resp_prompt","","","","","","","","","","","","","","","",""
"categorize-image","62","187496","0.0-2.1-2.1-1.23","s1tua0rnrvunjqw","practice_no_cue","5e78463da9db373bfee6bd36","5f60e3c0a3b16e07647b2ff9","5f64c2cfec56db02dd4b32c0","true","653","./Stimuli/ImagesPractice/LN109.jpg","76","","","","test","false","N + M","83","","LN","LN109.jpg","remember","old","24","2","practice_forget","right","","","",""
"html-keyboard-response","63","188198","0.0-2.1-2.1-0.24","s1tua0rnrvunjqw","practice_no_cue","5e78463da9db373bfee6bd36","5f60e3c0a3b16e07647b2ff9","5f64c2cfec56db02dd4b32c0","false","null","<span style=""color: black; font-size: 48px"">M + N</span>","null","","","","resp_prompt","","","","","","","","","","","","","","","",""
"categorize-image","64","189329","0.0-2.1-2.1-1.24","s1tua0rnrvunjqw","practice_no_cue","5e78463da9db373bfee6bd36","5f60e3c0a3b16e07647b2ff9","5f64c2cfec56db02dd4b32c0","true","628","./Stimuli/ImagesPractice/SN221.jpg","76","","","","test","true","M + N","76","","SN","SN221.jpg","forget","old","25","2","practice_forget","right","","","",""
"html-keyboard-response","65","190031","0.0-2.1-2.1-0.25","s1tua0rnrvunjqw","practice_no_cue","5e78463da9db373bfee6bd36","5f60e3c0a3b16e07647b2ff9","5f64c2cfec56db02dd4b32c0","false","null","<span style=""color: black; font-size: 48px"">M + N</span>","null","","","","resp_prompt","","","","","","","","","","","","","","","",""
"categorize-image","66","191483","0.0-2.1-2.1-1.25","s1tua0rnrvunjqw","practice_no_cue","5e78463da9db373bfee6bd36","5f60e3c0a3b16e07647b2ff9","5f64c2cfec56db02dd4b32c0","true","949.0000000000291","./Stimuli/ImagesPractice/SN222.jpg","83","","","","test","false","M + N","76","","SN","SN222.jpg","remember","old","26","2","practice_forget","left","","","",""
"html-keyboard-response","67","192185","0.0-2.1-2.1-0.26","s1tua0rnrvunjqw","practice_no_cue","5e78463da9db373bfee6bd36","5f60e3c0a3b16e07647b2ff9","5f64c2cfec56db02dd4b32c0","false","null","<span style=""color: black; font-size: 48px"">N + M</span>","null","","","","resp_prompt","","","","","","","","","","","","","","","",""
"categorize-image","68","193155","0.0-2.1-2.1-1.26","s1tua0rnrvunjqw","practice_no_cue","5e78463da9db373bfee6bd36","5f60e3c0a3b16e07647b2ff9","5f64c2cfec56db02dd4b32c0","true","468","./Stimuli/ImagesPractice/LN2.jpg","76","","","","test","false","N + M","83","","LN","LN2.jpg","forget","old","27","2","practice_forget","right","","","",""
"html-keyboard-response","69","193857","0.0-2.1-2.1-0.27","s1tua0rnrvunjqw","practice_no_cue","5e78463da9db373bfee6bd36","5f60e3c0a3b16e07647b2ff9","5f64c2cfec56db02dd4b32c0","false","null","<span style=""color: black; font-size: 48px"">N + M</span>","null","","","","resp_prompt","","","","","","","","","","","","","","","",""
"categorize-image","70","194996","0.0-2.1-2.1-1.27","s1tua0rnrvunjqw","practice_no_cue","5e78463da9db373bfee6bd36","5f60e3c0a3b16e07647b2ff9","5f64c2cfec56db02dd4b32c0","true","636","./Stimuli/ImagesPractice/LM224.jpg","83","","","","test","false","N + M","76","","LM","LM224.jpg","remember","old","28","2","practice_forget","left","","","",""
"html-keyboard-response","71","195699","0.0-2.1-2.1-0.28","s1tua0rnrvunjqw","practice_no_cue","5e78463da9db373bfee6bd36","5f60e3c0a3b16e07647b2ff9","5f64c2cfec56db02dd4b32c0","false","null","<span style=""color: black; font-size: 48px"">M + N</span>","null","","","","resp_prompt","","","","","","","","","","","","","","","",""
"categorize-image","72","196966","0.0-2.1-2.1-1.28","s1tua0rnrvunjqw","practice_no_cue","5e78463da9db373bfee6bd36","5f60e3c0a3b16e07647b2ff9","5f64c2cfec56db02dd4b32c0","true","765","./Stimuli/ImagesPractice/SM98.jpg","83","","","","test","true","M + N","83","","SM","SM98.jpg","forget","old","29","2","practice_forget","left","","","",""
"html-keyboard-response","73","197669","0.0-2.1-2.1-0.29","s1tua0rnrvunjqw","practice_no_cue","5e78463da9db373bfee6bd36","5f60e3c0a3b16e07647b2ff9","5f64c2cfec56db02dd4b32c0","false","null","<span style=""color: black; font-size: 48px"">M + N</span>","null","","","","resp_prompt","","","","","","","","","","","","","","","",""
"categorize-image","74","198716","0.0-2.1-2.1-1.29","s1tua0rnrvunjqw","practice_no_cue","5e78463da9db373bfee6bd36","5f60e3c0a3b16e07647b2ff9","5f64c2cfec56db02dd4b32c0","true","544","./Stimuli/ImagesPractice/SN75.jpg","76","","","","test","true","M + N","76","","SN","SN75.jpg","remember","old","30","2","practice_forget","right","","","",""
"html-keyboard-response","75","199418","0.0-2.1-2.1-0.30","s1tua0rnrvunjqw","practice_no_cue","5e78463da9db373bfee6bd36","5f60e3c0a3b16e07647b2ff9","5f64c2cfec56db02dd4b32c0","false","null","<span style=""color: black; font-size: 48px"">M + N</span>","null","","","","resp_prompt","","","","","","","","","","","","","","","",""
"categorize-image","76","200695","0.0-2.1-2.1-1.30","s1tua0rnrvunjqw","practice_no_cue","5e78463da9db373bfee6bd36","5f60e3c0a3b16e07647b2ff9","5f64c2cfec56db02dd4b32c0","true","773","./Stimuli/ImagesPractice/SM62.jpg","76","","","","test","false","M + N","83","","SM","SM62.jpg","forget","old","31","2","practice_forget","right","","","",""
"html-keyboard-response","77","201397","0.0-2.1-2.1-0.31","s1tua0rnrvunjqw","practice_no_cue","5e78463da9db373bfee6bd36","5f60e3c0a3b16e07647b2ff9","5f64c2cfec56db02dd4b32c0","false","null","<span style=""color: black; font-size: 48px"">M + N</span>","null","","","","resp_prompt","","","","","","","","","","","","","","","",""
"categorize-image","78","202464","0.0-2.1-2.1-1.31","s1tua0rnrvunjqw","practice_no_cue","5e78463da9db373bfee6bd36","5f60e3c0a3b16e07647b2ff9","5f64c2cfec56db02dd4b32c0","true","564","./Stimuli/ImagesPractice/SN76.jpg","76","","","","test","true","M + N","76","","SN","SN76.jpg","remember","old","32","2","practice_forget","right","","","",""
"html-keyboard-response","79","203580","0.0-2.1-3.1","s1tua0rnrvunjqw","break","5e78463da9db373bfee6bd36","5f60e3c0a3b16e07647b2ff9","5f64c2cfec56db02dd4b32c0","false","1113","<p style='font-size: 32px;'>Break</><br><br><br><br><br><p style='font-size: 24px;'>In the last block, you committed 6 errors and did not respond in time on 1 trials.
</p><p style='font-size: 24px;'>Try to respond as fast and accurately as possible in the next block as well! </p><p style='font-size: 24px;'>Press SPACE to continue.</p>","32","","","","","","","","","","","","","","","","","","","",""
"html-keyboard-response","80","204505","0.0-2.1-4.1","s1tua0rnrvunjqw","instructions","5e78463da9db373bfee6bd36","5f60e3c0a3b16e07647b2ff9","5f64c2cfec56db02dd4b32c0","false","924","<div align=left> Great!<br><br>Are you ready to continue?<br><br>If you want to reread the instructions and redo the practice trials, <br>please press „Z“. <br><br>Press SPACE to CONTINUE with the experiment when you are ready. </div>","32","","","","","","","","","","","","","","","","","","","",""
"html-keyboard-response","81","208942","0.0-3.0-0.0","s1tua0rnrvunjqw","instructions","5e78463da9db373bfee6bd36","5f60e3c0a3b16e07647b2ff9","5f64c2cfec56db02dd4b32c0","false","4435","<div align=left>Great!<br> <strong>Attention</strong>! You will now receive a second, additional task! <br><br>To this point it was you <strong>first task</strong> to correctly <strong>classify objects</strong>. <br><br>As mentioned in the beginning, we aim to examine how well humans can remember previously learned information.<br>We would like to find out whether our memory improves if we only remember information that is relevant to us. <br><br>Therefore, your <strong>second task</strong> will be to <strong>remember</strong> the pictures you are to categorize. <br> After the learning phase, there will be a memory test phase, in which you will be asked to indicate whether you have seen a picture before or not. <br>Some, but not all pictures shown in the learning phase will appear in the memory test phase.<br>After classifying a picture, you will be told whether you should remember it for the memory test phase or not. <br>Thus, some pictures can be forgotten, whereas others have to be remembered. <br><br>Note: From now on, feedback will only be displayed if you responded incorrectly or not in time.<br><br>Press SPACE to continue.</div>","32","","","","","","","","","","","","","","","","","","","",""
"html-keyboard-response","82","220258","0.0-3.0-1.0","s1tua0rnrvunjqw","instructions","5e78463da9db373bfee6bd36","5f60e3c0a3b16e07647b2ff9","5f64c2cfec56db02dd4b32c0","false","11314","<div align=left>In the following part, you will thus have to remember only some pictures. <br>Immediately after seeing and classifying the picture, a symbol will be displayed, indicating whether you should remember or forget the previous picture. <br><br>A <span style='color: dodgerblue; font-size: 28px'>O</span> indicates REMEMBER. That means, you have to remember this picture, because it will be tested later. <br><br>A <span style='color: darkorange; font-size:28px'>Ø</span> indicates FORGET. You do not have to remember this picture. <br><br> As you will have to remember a lot of pictures, it will be hard for you to remember all of them. <br>It will put you at an advantage if you instantly forget the pictures you are not asked to remember. <br> This will make it easier for you to remember the pictures that will be tested afterwards. <br><br>Press SPACE to continue.</div>","32","","","","","","","","","","","","","","","","","","","",""
"html-keyboard-response","83","226612","0.0-3.0-2.0","s1tua0rnrvunjqw","instructions","5e78463da9db373bfee6bd36","5f60e3c0a3b16e07647b2ff9","5f64c2cfec56db02dd4b32c0","false","6352","<div align=left> Now you have the chance to practice both tasks together.<br><br>Remember: <br> <br><li>Please place your index fingers on the <strong>'S'</strong> and <strong>'L'</strong> keys <br>to respond as fast and accurately as possible.</li><li>Every picture can be classified as either mechanical or non-mechanical.</li><li>If you do not respond in time or commit an error, you will receive a corresponding feedback. <br>Please try to respond as <strong> fast </strong> and as <strong> accurately as possible </strong>.</li><li> Please remember only the to-be-remembered <span style='color: dodgerblue; font-size: 28px'>O</span> pictures. <br></li><li> Please minimize distractions and stay focused. </li><br><br>Press SPACE to START</div>","32","","","","","","","","","","","","","","","","","","","",""
"html-keyboard-response","84","227314","0.0-3.0-3.0-0.0","s1tua0rnrvunjqw","practice_cue","5e78463da9db373bfee6bd36","5f60e3c0a3b16e07647b2ff9","5f64c2cfec56db02dd4b32c0","false","null","<span style=""color: black; font-size: 48px"">M + N</span>","null","","","","resp_prompt","","","","","","","","","","","","","","","",""
"categorize-image","85","227857","0.0-3.0-3.0-1.0","s1tua0rnrvunjqw","practice_cue","5e78463da9db373bfee6bd36","5f60e3c0a3b16e07647b2ff9","5f64c2cfec56db02dd4b32c0","true","537.9999999999709","./Stimuli/ImagesPractice/SN75.jpg","76","","","","test","true","M + N","76","","SN","SN75.jpg","remember","old","33","3","practice_forget","right","","","",""
"html-keyboard-response","86","229859","0.0-3.0-3.0-3.0","s1tua0rnrvunjqw","practice_cue","5e78463da9db373bfee6bd36","5f60e3c0a3b16e07647b2ff9","5f64c2cfec56db02dd4b32c0","false","null","<div style=""align-items: center; display: flex; color: dodgerblue; font-size: 90px""><b>o</b></div>","null","","","","forget_cue","","","","","","","","","","","","","","","",""
"html-keyboard-response","87","230562","0.0-3.0-3.0-0.1","s1tua0rnrvunjqw","practice_cue","5e78463da9db373bfee6bd36","5f60e3c0a3b16e07647b2ff9","5f64c2cfec56db02dd4b32c0","false","null","<span style=""color: black; font-size: 48px"">N + M</span>","null","","","","resp_prompt","","","","","","","","","","","","","","","",""
"categorize-image","88","231462","0.0-3.0-3.0-1.1","s1tua0rnrvunjqw","practice_cue","5e78463da9db373bfee6bd36","5f60e3c0a3b16e07647b2ff9","5f64c2cfec56db02dd4b32c0","true","896.0000000000291","./Stimuli/ImagesPractice/LN109.jpg","83","","","","test","true","N + M","83","","LN","LN109.jpg","remember","old","34","3","practice_forget","left","","","",""
"html-keyboard-response","89","233464","0.0-3.0-3.0-3.1","s1tua0rnrvunjqw","practice_cue","5e78463da9db373bfee6bd36","5f60e3c0a3b16e07647b2ff9","5f64c2cfec56db02dd4b32c0","false","null","<div style=""align-items: center; display: flex; color: dodgerblue; font-size: 90px""><b>o</b></div>","null","","","","forget_cue","","","","","","","","","","","","","","","",""
"html-keyboard-response","90","234167","0.0-3.0-3.0-0.2","s1tua0rnrvunjqw","practice_cue","5e78463da9db373bfee6bd36","5f60e3c0a3b16e07647b2ff9","5f64c2cfec56db02dd4b32c0","false","null","<span style=""color: black; font-size: 48px"">N + M</span>","null","","","","resp_prompt","","","","","","","","","","","","","","","",""
"categorize-image","91","234878","0.0-3.0-3.0-1.2","s1tua0rnrvunjqw","practice_cue","5e78463da9db373bfee6bd36","5f60e3c0a3b16e07647b2ff9","5f64c2cfec56db02dd4b32c0","true","708","./Stimuli/ImagesPractice/LM239.jpg","76","","","","test","true","N + M","76","","LM","LM239.jpg","remember","old","35","3","practice_forget","right","","","",""
"html-keyboard-response","92","236880","0.0-3.0-3.0-3.2","s1tua0rnrvunjqw","practice_cue","5e78463da9db373bfee6bd36","5f60e3c0a3b16e07647b2ff9","5f64c2cfec56db02dd4b32c0","false","null","<div style=""align-items: center; display: flex; color: dodgerblue; font-size: 90px""><b>o</b></div>","null","","","","forget_cue","","","","","","","","","","","","","","","",""
"html-keyboard-response","93","237582","0.0-3.0-3.0-0.3","s1tua0rnrvunjqw","practice_cue","5e78463da9db373bfee6bd36","5f60e3c0a3b16e07647b2ff9","5f64c2cfec56db02dd4b32c0","false","null","<span style=""color: black; font-size: 48px"">M + N</span>","null","","","","resp_prompt","","","","","","","","","","","","","","","",""
"categorize-image","94","238430","0.0-3.0-3.0-1.3","s1tua0rnrvunjqw","practice_cue","5e78463da9db373bfee6bd36","5f60e3c0a3b16e07647b2ff9","5f64c2cfec56db02dd4b32c0","true","844","./Stimuli/ImagesPractice/SM62.jpg","76","","","","test","false","M + N","83","","SM","SM62.jpg","forget","old","36","3","practice_forget","right","","","",""
"html-keyboard-response","95","238932","0.0-3.0-3.0-2.3-0.3","s1tua0rnrvunjqw","practice_cue","5e78463da9db373bfee6bd36","5f60e3c0a3b16e07647b2ff9","5f64c2cfec56db02dd4b32c0","false","null","<span style=""color: red; font-size: 48px"">Error!</span>","null","","","","feedback","","","","","","","","","","","","","","","",""
"html-keyboard-response","96","240935","0.0-3.0-3.0-3.3","s1tua0rnrvunjqw","practice_cue","5e78463da9db373bfee6bd36","5f60e3c0a3b16e07647b2ff9","5f64c2cfec56db02dd4b32c0","false","null","<div style=""align-items: center; display: flex; color: darkorange; font-size: 90px""><b>ø</b></div>","null","","","","forget_cue","","","","","","","","","","","","","","","",""
"html-keyboard-response","97","241637","0.0-3.0-3.0-0.4","s1tua0rnrvunjqw","practice_cue","5e78463da9db373bfee6bd36","5f60e3c0a3b16e07647b2ff9","5f64c2cfec56db02dd4b32c0","false","null","<span style=""color: black; font-size: 48px"">M + N</span>","null","","","","resp_prompt","","","","","","","","","","","","","","","",""
"categorize-image","98","241866","0.0-3.0-3.0-1.4","s1tua0rnrvunjqw","practice_cue","5e78463da9db373bfee6bd36","5f60e3c0a3b16e07647b2ff9","5f64c2cfec56db02dd4b32c0","true","225.0000000000291","./Stimuli/ImagesPractice/SN76.jpg","83","","","","test","false","M + N","76","","SN","SN76.jpg","remember","old","37","3","practice_forget","left","","","",""
"html-keyboard-response","99","242368","0.0-3.0-3.0-2.4-0.4","s1tua0rnrvunjqw","practice_cue","5e78463da9db373bfee6bd36","5f60e3c0a3b16e07647b2ff9","5f64c2cfec56db02dd4b32c0","false","null","<span style=""color: red; font-size: 48px"">Error!</span>","null","","","","feedback","","","","","","","","","","","","","","","",""
"html-keyboard-response","100","244370","0.0-3.0-3.0-3.4","s1tua0rnrvunjqw","practice_cue","5e78463da9db373bfee6bd36","5f60e3c0a3b16e07647b2ff9","5f64c2cfec56db02dd4b32c0","false","null","<div style=""align-items: center; display: flex; color: dodgerblue; font-size: 90px""><b>o</b></div>","null","","","","forget_cue","","","","","","","","","","","","","","","",""
"html-keyboard-response","101","245073","0.0-3.0-3.0-0.5","s1tua0rnrvunjqw","practice_cue","5e78463da9db373bfee6bd36","5f60e3c0a3b16e07647b2ff9","5f64c2cfec56db02dd4b32c0","false","null","<span style=""color: black; font-size: 48px"">M + N</span>","null","","","","resp_prompt","","","","","","","","","","","","","","","",""
"categorize-image","102","245607","0.0-3.0-3.0-1.5","s1tua0rnrvunjqw","practice_cue","5e78463da9db373bfee6bd36","5f60e3c0a3b16e07647b2ff9","5f64c2cfec56db02dd4b32c0","true","530","./Stimuli/ImagesPractice/LN72.jpg","76","","","","test","true","M + N","76","","LN","LN72.jpg","forget","old","38","3","practice_forget","right","","","",""
"html-keyboard-response","103","247609","0.0-3.0-3.0-3.5","s1tua0rnrvunjqw","practice_cue","5e78463da9db373bfee6bd36","5f60e3c0a3b16e07647b2ff9","5f64c2cfec56db02dd4b32c0","false","null","<div style=""align-items: center; display: flex; color: darkorange; font-size: 90px""><b>ø</b></div>","null","","","","forget_cue","","","","","","","","","","","","","","","",""
"html-keyboard-response","104","248311","0.0-3.0-3.0-0.6","s1tua0rnrvunjqw","practice_cue","5e78463da9db373bfee6bd36","5f60e3c0a3b16e07647b2ff9","5f64c2cfec56db02dd4b32c0","false","null","<span style=""color: black; font-size: 48px"">M + N</span>","null","","","","resp_prompt","","","","","","","","","","","","","","","",""
"categorize-image","105","248901","0.0-3.0-3.0-1.6","s1tua0rnrvunjqw","practice_cue","5e78463da9db373bfee6bd36","5f60e3c0a3b16e07647b2ff9","5f64c2cfec56db02dd4b32c0","true","587","./Stimuli/ImagesPractice/SM98.jpg","83","","","","test","true","M + N","83","","SM","SM98.jpg","forget","old","39","3","practice_forget","left","","","",""
"html-keyboard-response","106","250903","0.0-3.0-3.0-3.6","s1tua0rnrvunjqw","practice_cue","5e78463da9db373bfee6bd36","5f60e3c0a3b16e07647b2ff9","5f64c2cfec56db02dd4b32c0","false","null","<div style=""align-items: center; display: flex; color: darkorange; font-size: 90px""><b>ø</b></div>","null","","","","forget_cue","","","","","","","","","","","","","","","",""
"html-keyboard-response","107","251605","0.0-3.0-3.0-0.7","s1tua0rnrvunjqw","practice_cue","5e78463da9db373bfee6bd36","5f60e3c0a3b16e07647b2ff9","5f64c2cfec56db02dd4b32c0","false","null","<span style=""color: black; font-size: 48px"">N + M</span>","null","","","","resp_prompt","","","","","","","","","","","","","","","",""
"categorize-image","108","252598","0.0-3.0-3.0-1.7","s1tua0rnrvunjqw","practice_cue","5e78463da9db373bfee6bd36","5f60e3c0a3b16e07647b2ff9","5f64c2cfec56db02dd4b32c0","true","989","./Stimuli/ImagesPractice/LM224.jpg","76","","","","test","true","N + M","76","","LM","LM224.jpg","remember","old","40","3","practice_forget","right","","","",""
"html-keyboard-response","109","254600","0.0-3.0-3.0-3.7","s1tua0rnrvunjqw","practice_cue","5e78463da9db373bfee6bd36","5f60e3c0a3b16e07647b2ff9","5f64c2cfec56db02dd4b32c0","false","null","<div style=""align-items: center; display: flex; color: dodgerblue; font-size: 90px""><b>o</b></div>","null","","","","forget_cue","","","","","","","","","","","","","","","",""
"html-keyboard-response","110","255303","0.0-3.0-3.0-0.8","s1tua0rnrvunjqw","practice_cue","5e78463da9db373bfee6bd36","5f60e3c0a3b16e07647b2ff9","5f64c2cfec56db02dd4b32c0","false","null","<span style=""color: black; font-size: 48px"">M + N</span>","null","","","","resp_prompt","","","","","","","","","","","","","","","",""
"categorize-image","111","255954","0.0-3.0-3.0-1.8","s1tua0rnrvunjqw","practice_cue","5e78463da9db373bfee6bd36","5f60e3c0a3b16e07647b2ff9","5f64c2cfec56db02dd4b32c0","true","647","./Stimuli/ImagesPractice/SN222.jpg","76","","","","test","true","M + N","76","","SN","SN222.jpg","remember","old","41","3","practice_forget","right","","","",""
"html-keyboard-response","112","257956","0.0-3.0-3.0-3.8","s1tua0rnrvunjqw","practice_cue","5e78463da9db373bfee6bd36","5f60e3c0a3b16e07647b2ff9","5f64c2cfec56db02dd4b32c0","false","null","<div style=""align-items: center; display: flex; color: dodgerblue; font-size: 90px""><b>o</b></div>","null","","","","forget_cue","","","","","","","","","","","","","","","",""
"html-keyboard-response","113","258658","0.0-3.0-3.0-0.9","s1tua0rnrvunjqw","practice_cue","5e78463da9db373bfee6bd36","5f60e3c0a3b16e07647b2ff9","5f64c2cfec56db02dd4b32c0","false","null","<span style=""color: black; font-size: 48px"">N + M</span>","null","","","","resp_prompt","","","","","","","","","","","","","","","",""
"categorize-image","114","259218","0.0-3.0-3.0-1.9","s1tua0rnrvunjqw","practice_cue","5e78463da9db373bfee6bd36","5f60e3c0a3b16e07647b2ff9","5f64c2cfec56db02dd4b32c0","true","558","./Stimuli/ImagesPractice/LN2.jpg","76","","","","test","false","N + M","83","","LN","LN2.jpg","forget","old","42","3","practice_forget","right","","","",""
"html-keyboard-response","115","259721","0.0-3.0-3.0-2.9-0.9","s1tua0rnrvunjqw","practice_cue","5e78463da9db373bfee6bd36","5f60e3c0a3b16e07647b2ff9","5f64c2cfec56db02dd4b32c0","false","null","<span style=""color: red; font-size: 48px"">Error!</span>","null","","","","feedback","","","","","","","","","","","","","","","",""
"html-keyboard-response","116","261723","0.0-3.0-3.0-3.9","s1tua0rnrvunjqw","practice_cue","5e78463da9db373bfee6bd36","5f60e3c0a3b16e07647b2ff9","5f64c2cfec56db02dd4b32c0","false","null","<div style=""align-items: center; display: flex; color: darkorange; font-size: 90px""><b>ø</b></div>","null","","","","forget_cue","","","","","","","","","","","","","","","",""
"html-keyboard-response","117","262425","0.0-3.0-3.0-0.10","s1tua0rnrvunjqw","practice_cue","5e78463da9db373bfee6bd36","5f60e3c0a3b16e07647b2ff9","5f64c2cfec56db02dd4b32c0","false","null","<span style=""color: black; font-size: 48px"">M + N</span>","null","","","","resp_prompt","","","","","","","","","","","","","","","",""
"categorize-image","118","263018","0.0-3.0-3.0-1.10","s1tua0rnrvunjqw","practice_cue","5e78463da9db373bfee6bd36","5f60e3c0a3b16e07647b2ff9","5f64c2cfec56db02dd4b32c0","true","589","./Stimuli/ImagesPractice/SN221.jpg","76","","","","test","true","M + N","76","","SN","SN221.jpg","forget","old","43","3","practice_forget","right","","","",""
"html-keyboard-response","119","265020","0.0-3.0-3.0-3.10","s1tua0rnrvunjqw","practice_cue","5e78463da9db373bfee6bd36","5f60e3c0a3b16e07647b2ff9","5f64c2cfec56db02dd4b32c0","false","null","<div style=""align-items: center; display: flex; color: darkorange; font-size: 90px""><b>ø</b></div>","null","","","","forget_cue","","","","","","","","","","","","","","","",""
"html-keyboard-response","120","265722","0.0-3.0-3.0-0.11","s1tua0rnrvunjqw","practice_cue","5e78463da9db373bfee6bd36","5f60e3c0a3b16e07647b2ff9","5f64c2cfec56db02dd4b32c0","false","null","<span style=""color: black; font-size: 48px"">N + M</span>","null","","","","resp_prompt","","","","","","","","","","","","","","","",""
"categorize-image","121","266361","0.0-3.0-3.0-1.11","s1tua0rnrvunjqw","practice_cue","5e78463da9db373bfee6bd36","5f60e3c0a3b16e07647b2ff9","5f64c2cfec56db02dd4b32c0","true","636","./Stimuli/ImagesPractice/LM55.jpg","83","","","","test","false","N + M","76","","LM","LM55.jpg","forget","old","44","3","practice_forget","left","","","",""
"html-keyboard-response","122","266863","0.0-3.0-3.0-2.11-0.11","s1tua0rnrvunjqw","practice_cue","5e78463da9db373bfee6bd36","5f60e3c0a3b16e07647b2ff9","5f64c2cfec56db02dd4b32c0","false","null","<span style=""color: red; font-size: 48px"">Error!</span>","null","","","","feedback","","","","","","","","","","","","","","","",""
"html-keyboard-response","123","268866","0.0-3.0-3.0-3.11","s1tua0rnrvunjqw","practice_cue","5e78463da9db373bfee6bd36","5f60e3c0a3b16e07647b2ff9","5f64c2cfec56db02dd4b32c0","false","null","<div style=""align-items: center; display: flex; color: darkorange; font-size: 90px""><b>ø</b></div>","null","","","","forget_cue","","","","","","","","","","","","","","","",""
"html-keyboard-response","124","269568","0.0-3.0-3.0-0.12","s1tua0rnrvunjqw","practice_cue","5e78463da9db373bfee6bd36","5f60e3c0a3b16e07647b2ff9","5f64c2cfec56db02dd4b32c0","false","null","<span style=""color: black; font-size: 48px"">N + M</span>","null","","","","resp_prompt","","","","","","","","","","","","","","","",""
"categorize-image","125","269957","0.0-3.0-3.0-1.12","s1tua0rnrvunjqw","practice_cue","5e78463da9db373bfee6bd36","5f60e3c0a3b16e07647b2ff9","5f64c2cfec56db02dd4b32c0","true","385","./Stimuli/ImagesPractice/SM35.jpg","76","","","","test","true","N + M","76","","SM","SM35.jpg","forget","old","45","3","practice_forget","right","","","",""
"html-keyboard-response","126","271959","0.0-3.0-3.0-3.12","s1tua0rnrvunjqw","practice_cue","5e78463da9db373bfee6bd36","5f60e3c0a3b16e07647b2ff9","5f64c2cfec56db02dd4b32c0","false","null","<div style=""align-items: center; display: flex; color: darkorange; font-size: 90px""><b>ø</b></div>","null","","","","forget_cue","","","","","","","","","","","","","","","",""
"html-keyboard-response","127","272660","0.0-3.0-3.0-0.13","s1tua0rnrvunjqw","practice_cue","5e78463da9db373bfee6bd36","5f60e3c0a3b16e07647b2ff9","5f64c2cfec56db02dd4b32c0","false","null","<span style=""color: black; font-size: 48px"">N + M</span>","null","","","","resp_prompt","","","","","","","","","","","","","","","",""
"categorize-image","128","273247","0.0-3.0-3.0-1.13","s1tua0rnrvunjqw","practice_cue","5e78463da9db373bfee6bd36","5f60e3c0a3b16e07647b2ff9","5f64c2cfec56db02dd4b32c0","true","583","./Stimuli/ImagesPractice/LM143.jpg","76","","","","test","true","N + M","76","","LM","LM143.jpg","forget","old","46","3","practice_forget","right","","","",""
"html-keyboard-response","129","275249","0.0-3.0-3.0-3.13","s1tua0rnrvunjqw","practice_cue","5e78463da9db373bfee6bd36","5f60e3c0a3b16e07647b2ff9","5f64c2cfec56db02dd4b32c0","false","null","<div style=""align-items: center; display: flex; color: darkorange; font-size: 90px""><b>ø</b></div>","null","","","","forget_cue","","","","","","","","","","","","","","","",""
"html-keyboard-response","130","275951","0.0-3.0-3.0-0.14","s1tua0rnrvunjqw","practice_cue","5e78463da9db373bfee6bd36","5f60e3c0a3b16e07647b2ff9","5f64c2cfec56db02dd4b32c0","false","null","<span style=""color: black; font-size: 48px"">N + M</span>","null","","","","resp_prompt","","","","","","","","","","","","","","","",""
"categorize-image","131","277088","0.0-3.0-3.0-1.14","s1tua0rnrvunjqw","practice_cue","5e78463da9db373bfee6bd36","5f60e3c0a3b16e07647b2ff9","5f64c2cfec56db02dd4b32c0","true","1134","./Stimuli/ImagesPractice/LN4.jpg","76","","","","test","false","N + M","83","","LN","LN4.jpg","remember","old","47","3","practice_forget","right","","","",""
"html-keyboard-response","132","277590","0.0-3.0-3.0-2.14-0.14","s1tua0rnrvunjqw","practice_cue","5e78463da9db373bfee6bd36","5f60e3c0a3b16e07647b2ff9","5f64c2cfec56db02dd4b32c0","false","null","<span style=""color: red; font-size: 48px"">Error!</span>","null","","","","feedback","","","","","","","","","","","","","","","",""
"html-keyboard-response","133","279592","0.0-3.0-3.0-3.14","s1tua0rnrvunjqw","practice_cue","5e78463da9db373bfee6bd36","5f60e3c0a3b16e07647b2ff9","5f64c2cfec56db02dd4b32c0","false","null","<div style=""align-items: center; display: flex; color: dodgerblue; font-size: 90px""><b>o</b></div>","null","","","","forget_cue","","","","","","","","","","","","","","","",""
"html-keyboard-response","134","280295","0.0-3.0-3.0-0.15","s1tua0rnrvunjqw","practice_cue","5e78463da9db373bfee6bd36","5f60e3c0a3b16e07647b2ff9","5f64c2cfec56db02dd4b32c0","false","null","<span style=""color: black; font-size: 48px"">M + N</span>","null","","","","resp_prompt","","","","","","","","","","","","","","","",""
"categorize-image","135","281825","0.0-3.0-3.0-1.15","s1tua0rnrvunjqw","practice_cue","5e78463da9db373bfee6bd36","5f60e3c0a3b16e07647b2ff9","5f64c2cfec56db02dd4b32c0","true","1526","./Stimuli/ImagesPractice/LN17.jpg","76","","","","test","true","M + N","76","","LN","LN17.jpg","remember","old","48","3","practice_forget","right","","","",""
"html-keyboard-response","136","283826","0.0-3.0-3.0-3.15","s1tua0rnrvunjqw","practice_cue","5e78463da9db373bfee6bd36","5f60e3c0a3b16e07647b2ff9","5f64c2cfec56db02dd4b32c0","false","null","<div style=""align-items: center; display: flex; color: dodgerblue; font-size: 90px""><b>o</b></div>","null","","","","forget_cue","","","","","","","","","","","","","","","",""
"html-keyboard-response","137","285945","0.0-3.0-4.0","s1tua0rnrvunjqw","break","5e78463da9db373bfee6bd36","5f60e3c0a3b16e07647b2ff9","5f64c2cfec56db02dd4b32c0","false","2117","<p style='font-size: 32px;'>Break</><br><br><br><br><br><p style='font-size: 24px;'>In the last block, you committed 5 errors and did not respond in time on 0 trials.
</p><p style='font-size: 24px;'>Try to respond as fast and accurately as possible in the next block as well! </p><p style='font-size: 24px;'>Press SPACE to continue.</p>","32","","","","","","","","","","","","","","","","","","","",""
"html-keyboard-response","138","294516","0.0-3.0-5.0","s1tua0rnrvunjqw","instructions","5e78463da9db373bfee6bd36","5f60e3c0a3b16e07647b2ff9","5f64c2cfec56db02dd4b32c0","false","8569.999999999942","<div align=left> Now, to practice, we kindly ask you to remember as many of the to-be-remembered pictures<br>of the previous learning phase as possible.<br><br>The pictures you were instructed to remember were the pictures followed by a <span style='color: dodgerblue; font-size: 28px'>O</span>.<br><br>In this memory test phase, you will also see some new pictures.<br>It is your task to remember whether you were presented with this specific picture in this study so far or not.<br>If you recognize an object (you have already seen it in this study), it is an OLD object. <br>If you do not recognize an object (you have NOT seen it in this study), it is a NEW object. <br><strong> Attention</strong>: As already mentioned, <span style='color: darkorange; font-size:28px'>Ø</span>-pictures will <strong>never</strong> appear in this memory test (neither as new objects). <br><br>Press SPACE to continue. </div>","32","","","","","","","","","","","","","","","","","","","",""
"html-keyboard-response","139","317462","0.0-3.0-6.0","s1tua0rnrvunjqw","instructions","5e78463da9db373bfee6bd36","5f60e3c0a3b16e07647b2ff9","5f64c2cfec56db02dd4b32c0","false","22944","<div align=left> M and N no longer will appear on the left/right of the fixation cross. <br>Instead there will be a note at the bottom of the left or right side  <br>indicating which key you should press for an old or new object:  <br> <br>Press the <strong>right</strong> key to classify an object as <strong>old</strong> and press the <strong>left</strong>, to classify an object as <strong>new</strong>.<br>Please classify the objects as new/old by again placing your index finger on the 'S' and 'L' keys <br>and press them accordingly.<br><br><strong>Old:</strong> This object has been presented before. <br><strong>New:</strong> This object has <strong>not</strong> been presented.<br><br>Now please put your right and left index fingers on the 'S' and 'L' keys of your keyboard. <br>Please respond as fast and as accurately as possible!<br><br>Press SPACE to continue. </div>","32","","","","","","","","","","","","","","","","","","","",""
"categorize-image","140","319462","0.0-3.0-7.0-0.0","s1tua0rnrvunjqw","practice_recog","5e78463da9db373bfee6bd36","5f60e3c0a3b16e07647b2ff9","5f64c2cfec56db02dd4b32c0","true","1495","./Stimuli/ImagesPractice/LM147.jpg","83","","","","test","true","","83","","LM","LM147.jpg","","new","49","4","practice_recog","left","","","",""
"categorize-image","141","320761","0.0-3.0-7.0-0.1","s1tua0rnrvunjqw","practice_recog","5e78463da9db373bfee6bd36","5f60e3c0a3b16e07647b2ff9","5f64c2cfec56db02dd4b32c0","true","796","./Stimuli/ImagesPractice/SN220.jpg","83","","","","test","true","","83","","SN","SN220.jpg","","new","50","4","practice_recog","left","","","",""
"categorize-image","142","321842","0.0-3.0-7.0-0.2","s1tua0rnrvunjqw","practice_recog","5e78463da9db373bfee6bd36","5f60e3c0a3b16e07647b2ff9","5f64c2cfec56db02dd4b32c0","true","578","./Stimuli/ImagesPractice/LN17.jpg","76","","","","test","true","","76","","LN","LN17.jpg","","old","51","4","practice_recog","right","","","",""
"categorize-image","143","322965","0.0-3.0-7.0-0.3","s1tua0rnrvunjqw","practice_recog","5e78463da9db373bfee6bd36","5f60e3c0a3b16e07647b2ff9","5f64c2cfec56db02dd4b32c0","true","620","./Stimuli/ImagesPractice/SN205.jpg","83","","","","test","true","","83","","SN","SN205.jpg","","new","52","4","practice_recog","left","","","",""
"categorize-image","144","324052","0.0-3.0-7.0-0.4","s1tua0rnrvunjqw","practice_recog","5e78463da9db373bfee6bd36","5f60e3c0a3b16e07647b2ff9","5f64c2cfec56db02dd4b32c0","true","584","./Stimuli/ImagesPractice/SM97.jpg","83","","","","test","true","","83","","SM","SM97.jpg","","new","53","4","practice_recog","left","","","",""
"categorize-image","145","325074","0.0-3.0-7.0-0.5","s1tua0rnrvunjqw","practice_recog","5e78463da9db373bfee6bd36","5f60e3c0a3b16e07647b2ff9","5f64c2cfec56db02dd4b32c0","true","519","./Stimuli/ImagesPractice/LN4.jpg","76","","","","test","true","","76","","LN","LN4.jpg","","old","54","4","practice_recog","right","","","",""
"categorize-image","146","326272","0.0-3.0-7.0-0.6","s1tua0rnrvunjqw","practice_recog","5e78463da9db373bfee6bd36","5f60e3c0a3b16e07647b2ff9","5f64c2cfec56db02dd4b32c0","true","695","./Stimuli/ImagesPractice/SM61.jpg","83","","","","test","true","","83","","SM","SM61.jpg","","new","55","4","practice_recog","left","","","",""
"categorize-image","147","328118","0.0-3.0-7.0-0.7","s1tua0rnrvunjqw","practice_recog","5e78463da9db373bfee6bd36","5f60e3c0a3b16e07647b2ff9","5f64c2cfec56db02dd4b32c0","true","1341.9999999999418","./Stimuli/ImagesPractice/LM239.jpg","76","","","","test","true","","76","","LM","LM239.jpg","","old","56","4","practice_recog","right","","","",""
"categorize-image","148","329312","0.0-3.0-7.0-0.8","s1tua0rnrvunjqw","practice_recog","5e78463da9db373bfee6bd36","5f60e3c0a3b16e07647b2ff9","5f64c2cfec56db02dd4b32c0","true","690","./Stimuli/ImagesPractice/SM37.jpg","83","","","","test","true","","83","","SM","SM37.jpg","","new","57","4","practice_recog","left","","","",""
"categorize-image","149","330379","0.0-3.0-7.0-0.9","s1tua0rnrvunjqw","practice_recog","5e78463da9db373bfee6bd36","5f60e3c0a3b16e07647b2ff9","5f64c2cfec56db02dd4b32c0","true","564","./Stimuli/ImagesPractice/LM224.jpg","76","","","","test","true","","76","","LM","LM224.jpg","","old","58","4","practice_recog","right","","","",""
"categorize-image","150","331411","0.0-3.0-7.0-0.10","s1tua0rnrvunjqw","practice_recog","5e78463da9db373bfee6bd36","5f60e3c0a3b16e07647b2ff9","5f64c2cfec56db02dd4b32c0","true","529","./Stimuli/ImagesPractice/SN75.jpg","76","","","","test","true","","76","","SN","SN75.jpg","","old","59","4","practice_recog","right","","","",""
"categorize-image","151","332513","0.0-3.0-7.0-0.11","s1tua0rnrvunjqw","practice_recog","5e78463da9db373bfee6bd36","5f60e3c0a3b16e07647b2ff9","5f64c2cfec56db02dd4b32c0","true","600.0000000000582","./Stimuli/ImagesPractice/LN15.jpg","83","","","","test","true","","83","","LN","LN15.jpg","","new","60","4","practice_recog","left","","","",""
"categorize-image","152","333676","0.0-3.0-7.0-0.12","s1tua0rnrvunjqw","practice_recog","5e78463da9db373bfee6bd36","5f60e3c0a3b16e07647b2ff9","5f64c2cfec56db02dd4b32c0","true","660","./Stimuli/ImagesPractice/LN109.jpg","76","","","","test","true","","76","","LN","LN109.jpg","","old","61","4","practice_recog","right","","","",""
"categorize-image","153","334788","0.0-3.0-7.0-0.13","s1tua0rnrvunjqw","practice_recog","5e78463da9db373bfee6bd36","5f60e3c0a3b16e07647b2ff9","5f64c2cfec56db02dd4b32c0","true","610","./Stimuli/ImagesPractice/LM230.jpg","83","","","","test","true","","83","","LM","LM230.jpg","","new","62","4","practice_recog","left","","","",""
"categorize-image","154","335778","0.0-3.0-7.0-0.14","s1tua0rnrvunjqw","practice_recog","5e78463da9db373bfee6bd36","5f60e3c0a3b16e07647b2ff9","5f64c2cfec56db02dd4b32c0","true","487","./Stimuli/ImagesPractice/SN222.jpg","76","","","","test","true","","76","","SN","SN222.jpg","","old","63","4","practice_recog","right","","","",""
"categorize-image","155","336862","0.0-3.0-7.0-0.15","s1tua0rnrvunjqw","practice_recog","5e78463da9db373bfee6bd36","5f60e3c0a3b16e07647b2ff9","5f64c2cfec56db02dd4b32c0","true","581","./Stimuli/ImagesPractice/SN76.jpg","76","","","","test","true","","76","","SN","SN76.jpg","","old","64","4","practice_recog","right","","","",""
"html-keyboard-response","156","338867","0.0-3.0-8.0","s1tua0rnrvunjqw","instructions","5e78463da9db373bfee6bd36","5f60e3c0a3b16e07647b2ff9","5f64c2cfec56db02dd4b32c0","false","2003.9999999999418","<div align=left> Great!<br><br>Are you ready to continue?<br>If you want to reread the instructions and redo the practice trials, please <br>press „Z“.<br><br>You can proceed when you are ready.<br><br>After the presentation of each object, you will receive an instruction whether to <br>remember or to forget the object.<br>We will test your memory of the following pictures only at the very end of <br>the experiment after all learning blocks are completed. <br><br>Press SPACE to CONTINUE when you are ready. </div>","32","","","","","","","","","","","","","","","","","","","",""
"html-keyboard-response","157","342125","0.0-4.0-0.0","s1tua0rnrvunjqw","instructions","5e78463da9db373bfee6bd36","5f60e3c0a3b16e07647b2ff9","5f64c2cfec56db02dd4b32c0","false","3257.000000000058","<div align=left> The actual experiment is about to start.<br>The practice trials are over!<br><br>Please always respond both fast and accurately!<br><br>Remember: <br> <br><li> Please place your index fingers on the <strong>'S'</strong> and <strong>'L'</strong> keys <br>to respond as fast and accurately as possible.</li><li> Every picture can be classified as either mechanical or non-mechanical.</li><li> If you do not respond in time or commit an error, you will receive a corresponding feedback.<br> Please try to respond as <strong> fast </strong> and as <strong> accurately as possible </strong>.</li><li> Remember the <span style='color: dodgerblue; font-size: 28px'>O</span> pictures. <br></li><li> Please minimize distractions and stay focused. </li><br><br>Press SPACE to START.</div>","32","","","","","","","","","","","","","","","","","","","",""
"html-keyboard-response","158","342828","0.0-4.0-1.0-0.0","s1tua0rnrvunjqw","prime","5e78463da9db373bfee6bd36","5f60e3c0a3b16e07647b2ff9","5f64c2cfec56db02dd4b32c0","false","null","<span style=""color: black; font-size: 48px"">M + N</span>","null","","","","resp_prompt","","","","","","","","","","","","","","","",""
"categorize-image","159","343686","0.0-4.0-1.0-1.0","s1tua0rnrvunjqw","prime","5e78463da9db373bfee6bd36","5f60e3c0a3b16e07647b2ff9","5f64c2cfec56db02dd4b32c0","true","854","./Stimuli/SelectedImages/LM/LM75.bmp","76","","","","test","false","M + N","83","switch","LM","LM75.bmp","forget","","65","4","prime1","right","","","",""
"html-keyboard-response","160","344188","0.0-4.0-1.0-2.0-0.0","s1tua0rnrvunjqw","prime","5e78463da9db373bfee6bd36","5f60e3c0a3b16e07647b2ff9","5f64c2cfec56db02dd4b32c0","false","null","<span style=""color: red; font-size: 48px"">Error!</span>","null","","","","feedback","","","","","","","","","","","","","","","",""
"html-keyboard-response","161","346191","0.0-4.0-1.0-3.0","s1tua0rnrvunjqw","prime","5e78463da9db373bfee6bd36","5f60e3c0a3b16e07647b2ff9","5f64c2cfec56db02dd4b32c0","false","null","<div style=""align-items: center; display: flex; color: darkorange; font-size: 90px""><b>ø</b></div>","null","","","","forget_cue","","","","","","","","","","","","","","","",""
"html-keyboard-response","162","346893","0.0-4.0-1.0-0.1","s1tua0rnrvunjqw","prime","5e78463da9db373bfee6bd36","5f60e3c0a3b16e07647b2ff9","5f64c2cfec56db02dd4b32c0","false","null","<span style=""color: black; font-size: 48px"">N + M</span>","null","","","","resp_prompt","","","","","","","","","","","","","","","",""
"categorize-image","163","347899","0.0-4.0-1.0-1.1","s1tua0rnrvunjqw","prime","5e78463da9db373bfee6bd36","5f60e3c0a3b16e07647b2ff9","5f64c2cfec56db02dd4b32c0","true","1001.9999999999418","./Stimuli/SelectedImages/SM/SM24.bmp","76","","","","test","true","N + M","76","repetition","SM","SM24.bmp","forget","","66","4","prime1","right","","","",""
"html-keyboard-response","164","349901","0.0-4.0-1.0-3.1","s1tua0rnrvunjqw","prime","5e78463da9db373bfee6bd36","5f60e3c0a3b16e07647b2ff9","5f64c2cfec56db02dd4b32c0","false","null","<div style=""align-items: center; display: flex; color: darkorange; font-size: 90px""><b>ø</b></div>","null","","","","forget_cue","","","","","","","","","","","","","","","",""
"html-keyboard-response","165","350603","0.0-4.0-1.0-0.2","s1tua0rnrvunjqw","prime","5e78463da9db373bfee6bd36","5f60e3c0a3b16e07647b2ff9","5f64c2cfec56db02dd4b32c0","false","null","<span style=""color: black; font-size: 48px"">N + M</span>","null","","","","resp_prompt","","","","","","","","","","","","","","","",""
"categorize-image","166","352310","0.0-4.0-1.0-1.2","s1tua0rnrvunjqw","prime","5e78463da9db373bfee6bd36","5f60e3c0a3b16e07647b2ff9","5f64c2cfec56db02dd4b32c0","true","1704","./Stimuli/SelectedImages/LM/LM216.bmp","83","","","","test","false","N + M","76","repetition","LM","LM216.bmp","remember","","67","4","prime1","left","","","",""
"html-keyboard-response","167","352811","0.0-4.0-1.0-2.2-0.2","s1tua0rnrvunjqw","prime","5e78463da9db373bfee6bd36","5f60e3c0a3b16e07647b2ff9","5f64c2cfec56db02dd4b32c0","false","null","<span style=""color: red; font-size: 48px"">Error!</span>","null","","","","feedback","","","","","","","","","","","","","","","",""
"html-keyboard-response","168","354814","0.0-4.0-1.0-3.2","s1tua0rnrvunjqw","prime","5e78463da9db373bfee6bd36","5f60e3c0a3b16e07647b2ff9","5f64c2cfec56db02dd4b32c0","false","null","<div style=""align-items: center; display: flex; color: dodgerblue; font-size: 90px""><b>o</b></div>","null","","","","forget_cue","","","","","","","","","","","","","","","",""
"html-keyboard-response","169","355516","0.0-4.0-1.0-0.3","s1tua0rnrvunjqw","prime","5e78463da9db373bfee6bd36","5f60e3c0a3b16e07647b2ff9","5f64c2cfec56db02dd4b32c0","false","null","<span style=""color: black; font-size: 48px"">N + M</span>","null","","","","resp_prompt","","","","","","","","","","","","","","","",""
"categorize-image","170","356118","0.0-4.0-1.0-1.3","s1tua0rnrvunjqw","prime","5e78463da9db373bfee6bd36","5f60e3c0a3b16e07647b2ff9","5f64c2cfec56db02dd4b32c0","true","598","./Stimuli/SelectedImages/LN/LN82.bmp","83","","","","test","true","N + M","83","switch","LN","LN82.bmp","remember","","68","4","prime1","left","","","",""
"html-keyboard-response","171","358120","0.0-4.0-1.0-3.3","s1tua0rnrvunjqw","prime","5e78463da9db373bfee6bd36","5f60e3c0a3b16e07647b2ff9","5f64c2cfec56db02dd4b32c0","false","null","<div style=""align-items: center; display: flex; color: dodgerblue; font-size: 90px""><b>o</b></div>","null","","","","forget_cue","","","","","","","","","","","","","","","",""
"html-keyboard-response","172","358822","0.0-4.0-1.0-0.4","s1tua0rnrvunjqw","prime","5e78463da9db373bfee6bd36","5f60e3c0a3b16e07647b2ff9","5f64c2cfec56db02dd4b32c0","false","null","<span style=""color: black; font-size: 48px"">M + N</span>","null","","","","resp_prompt","","","","","","","","","","","","","","","",""
"categorize-image","173","359447","0.0-4.0-1.0-1.4","s1tua0rnrvunjqw","prime","5e78463da9db373bfee6bd36","5f60e3c0a3b16e07647b2ff9","5f64c2cfec56db02dd4b32c0","true","622","./Stimuli/SelectedImages/SN/SN140.bmp","76","","","","test","true","M + N","76","switch","SN","SN140.bmp","remember","","69","4","prime1","right","","","",""
"html-keyboard-response","174","361450","0.0-4.0-1.0-3.4","s1tua0rnrvunjqw","prime","5e78463da9db373bfee6bd36","5f60e3c0a3b16e07647b2ff9","5f64c2cfec56db02dd4b32c0","false","null","<div style=""align-items: center; display: flex; color: dodgerblue; font-size: 90px""><b>o</b></div>","null","","","","forget_cue","","","","","","","","","","","","","","","",""
"html-keyboard-response","175","362152","0.0-4.0-1.0-0.5","s1tua0rnrvunjqw","prime","5e78463da9db373bfee6bd36","5f60e3c0a3b16e07647b2ff9","5f64c2cfec56db02dd4b32c0","false","null","<span style=""color: black; font-size: 48px"">M + N</span>","null","","","","resp_prompt","","","","","","","","","","","","","","","",""
"categorize-image","176","362888","0.0-4.0-1.0-1.5","s1tua0rnrvunjqw","prime","5e78463da9db373bfee6bd36","5f60e3c0a3b16e07647b2ff9","5f64c2cfec56db02dd4b32c0","true","734","./Stimuli/SelectedImages/SN/SN18.bmp","76","","","","test","true","M + N","76","repetition","SN","SN18.bmp","forget","","70","4","prime1","right","","","",""
"html-keyboard-response","177","364891","0.0-4.0-1.0-3.5","s1tua0rnrvunjqw","prime","5e78463da9db373bfee6bd36","5f60e3c0a3b16e07647b2ff9","5f64c2cfec56db02dd4b32c0","false","null","<div style=""align-items: center; display: flex; color: darkorange; font-size: 90px""><b>ø</b></div>","null","","","","forget_cue","","","","","","","","","","","","","","","",""
"html-keyboard-response","178","365593","0.0-4.0-1.0-0.6","s1tua0rnrvunjqw","prime","5e78463da9db373bfee6bd36","5f60e3c0a3b16e07647b2ff9","5f64c2cfec56db02dd4b32c0","false","null","<span style=""color: black; font-size: 48px"">M + N</span>","null","","","","resp_prompt","","","","","","","","","","","","","","","",""
"categorize-image","179","366386","0.0-4.0-1.0-1.6","s1tua0rnrvunjqw","prime","5e78463da9db373bfee6bd36","5f60e3c0a3b16e07647b2ff9","5f64c2cfec56db02dd4b32c0","true","790","./Stimuli/SelectedImages/SM/SM106.bmp","83","","","","test","true","M + N","83","switch","SM","SM106.bmp","forget","","71","4","prime1","left","","","",""
"html-keyboard-response","180","368388","0.0-4.0-1.0-3.6","s1tua0rnrvunjqw","prime","5e78463da9db373bfee6bd36","5f60e3c0a3b16e07647b2ff9","5f64c2cfec56db02dd4b32c0","false","null","<div style=""align-items: center; display: flex; color: darkorange; font-size: 90px""><b>ø</b></div>","null","","","","forget_cue","","","","","","","","","","","","","","","",""
"html-keyboard-response","181","369090","0.0-4.0-1.0-0.7","s1tua0rnrvunjqw","prime","5e78463da9db373bfee6bd36","5f60e3c0a3b16e07647b2ff9","5f64c2cfec56db02dd4b32c0","false","null","<span style=""color: black; font-size: 48px"">N + M</span>","null","","","","resp_prompt","","","","","","","","","","","","","","","",""
"categorize-image","182","369935","0.0-4.0-1.0-1.7","s1tua0rnrvunjqw","prime","5e78463da9db373bfee6bd36","5f60e3c0a3b16e07647b2ff9","5f64c2cfec56db02dd4b32c0","true","843","./Stimuli/SelectedImages/SM/SM205.bmp","76","","","","test","true","N + M","76","repetition","SM","SM205.bmp","remember","","72","4","prime1","right","","","",""
"html-keyboard-response","183","371938","0.0-4.0-1.0-3.7","s1tua0rnrvunjqw","prime","5e78463da9db373bfee6bd36","5f60e3c0a3b16e07647b2ff9","5f64c2cfec56db02dd4b32c0","false","null","<div style=""align-items: center; display: flex; color: dodgerblue; font-size: 90px""><b>o</b></div>","null","","","","forget_cue","","","","","","","","","","","","","","","",""
"html-keyboard-response","184","372640","0.0-4.0-1.0-0.8","s1tua0rnrvunjqw","prime","5e78463da9db373bfee6bd36","5f60e3c0a3b16e07647b2ff9","5f64c2cfec56db02dd4b32c0","false","null","<span style=""color: black; font-size: 48px"">N + M</span>","null","","","","resp_prompt","","","","","","","","","","","","","","","",""
"categorize-image","185","373384","0.0-4.0-1.0-1.8","s1tua0rnrvunjqw","prime","5e78463da9db373bfee6bd36","5f60e3c0a3b16e07647b2ff9","5f64c2cfec56db02dd4b32c0","true","741.0000000000582","./Stimuli/SelectedImages/LN/LN59.bmp","76","","","","test","false","N + M","83","switch","LN","LN59.bmp","forget","","73","4","prime1","right","","","",""
"html-keyboard-response","186","373887","0.0-4.0-1.0-2.8-0.8","s1tua0rnrvunjqw","prime","5e78463da9db373bfee6bd36","5f60e3c0a3b16e07647b2ff9","5f64c2cfec56db02dd4b32c0","false","null","<span style=""color: red; font-size: 48px"">Error!</span>","null","","","","feedback","","","","","","","","","","","","","","","",""
"html-keyboard-response","187","375889","0.0-4.0-1.0-3.8","s1tua0rnrvunjqw","prime","5e78463da9db373bfee6bd36","5f60e3c0a3b16e07647b2ff9","5f64c2cfec56db02dd4b32c0","false","null","<div style=""align-items: center; display: flex; color: darkorange; font-size: 90px""><b>ø</b></div>","null","","","","forget_cue","","","","","","","","","","","","","","","",""
"html-keyboard-response","188","376591","0.0-4.0-1.0-0.9","s1tua0rnrvunjqw","prime","5e78463da9db373bfee6bd36","5f60e3c0a3b16e07647b2ff9","5f64c2cfec56db02dd4b32c0","false","null","<span style=""color: black; font-size: 48px"">N + M</span>","null","","","","resp_prompt","","","","","","","","","","","","","","","",""
"categorize-image","189","377087","0.0-4.0-1.0-1.9","s1tua0rnrvunjqw","prime","5e78463da9db373bfee6bd36","5f60e3c0a3b16e07647b2ff9","5f64c2cfec56db02dd4b32c0","true","494","./Stimuli/SelectedImages/LM/LM57.bmp","83","","","","test","false","N + M","76","switch","LM","LM57.bmp","forget","","74","4","prime1","left","","","",""
"html-keyboard-response","190","377589","0.0-4.0-1.0-2.9-0.9","s1tua0rnrvunjqw","prime","5e78463da9db373bfee6bd36","5f60e3c0a3b16e07647b2ff9","5f64c2cfec56db02dd4b32c0","false","null","<span style=""color: red; font-size: 48px"">Error!</span>","null","","","","feedback","","","","","","","","","","","","","","","",""
"html-keyboard-response","191","379592","0.0-4.0-1.0-3.9","s1tua0rnrvunjqw","prime","5e78463da9db373bfee6bd36","5f60e3c0a3b16e07647b2ff9","5f64c2cfec56db02dd4b32c0","false","null","<div style=""align-items: center; display: flex; color: darkorange; font-size: 90px""><b>ø</b></div>","null","","","","forget_cue","","","","","","","","","","","","","","","",""
"html-keyboard-response","192","380294","0.0-4.0-1.0-0.10","s1tua0rnrvunjqw","prime","5e78463da9db373bfee6bd36","5f60e3c0a3b16e07647b2ff9","5f64c2cfec56db02dd4b32c0","false","null","<span style=""color: black; font-size: 48px"">N + M</span>","null","","","","resp_prompt","","","","","","","","","","","","","","","",""
"categorize-image","193","381121","0.0-4.0-1.0-1.10","s1tua0rnrvunjqw","prime","5e78463da9db373bfee6bd36","5f60e3c0a3b16e07647b2ff9","5f64c2cfec56db02dd4b32c0","true","824","./Stimuli/SelectedImages/LM/LM100.bmp","76","","","","test","true","N + M","76","repetition","LM","LM100.bmp","forget","","75","4","prime1","right","","","",""
"html-keyboard-response","194","383123","0.0-4.0-1.0-3.10","s1tua0rnrvunjqw","prime","5e78463da9db373bfee6bd36","5f60e3c0a3b16e07647b2ff9","5f64c2cfec56db02dd4b32c0","false","null","<div style=""align-items: center; display: flex; color: darkorange; font-size: 90px""><b>ø</b></div>","null","","","","forget_cue","","","","","","","","","","","","","","","",""
"html-keyboard-response","195","383825","0.0-4.0-1.0-0.11","s1tua0rnrvunjqw","prime","5e78463da9db373bfee6bd36","5f60e3c0a3b16e07647b2ff9","5f64c2cfec56db02dd4b32c0","false","null","<span style=""color: black; font-size: 48px"">M + N</span>","null","","","","resp_prompt","","","","","","","","","","","","","","","",""
"categorize-image","196","384514","0.0-4.0-1.0-1.11","s1tua0rnrvunjqw","prime","5e78463da9db373bfee6bd36","5f60e3c0a3b16e07647b2ff9","5f64c2cfec56db02dd4b32c0","true","685","./Stimuli/SelectedImages/SM/SM184.bmp","76","","","","test","false","M + N","83","repetition","SM","SM184.bmp","remember","","76","4","prime1","right","","","",""
"html-keyboard-response","197","385016","0.0-4.0-1.0-2.11-0.11","s1tua0rnrvunjqw","prime","5e78463da9db373bfee6bd36","5f60e3c0a3b16e07647b2ff9","5f64c2cfec56db02dd4b32c0","false","null","<span style=""color: red; font-size: 48px"">Error!</span>","null","","","","feedback","","","","","","","","","","","","","","","",""
"html-keyboard-response","198","387017","0.0-4.0-1.0-3.11","s1tua0rnrvunjqw","prime","5e78463da9db373bfee6bd36","5f60e3c0a3b16e07647b2ff9","5f64c2cfec56db02dd4b32c0","false","null","<div style=""align-items: center; display: flex; color: dodgerblue; font-size: 90px""><b>o</b></div>","null","","","","forget_cue","","","","","","","","","","","","","","","",""
"html-keyboard-response","199","387720","0.0-4.0-1.0-0.12","s1tua0rnrvunjqw","prime","5e78463da9db373bfee6bd36","5f60e3c0a3b16e07647b2ff9","5f64c2cfec56db02dd4b32c0","false","null","<span style=""color: black; font-size: 48px"">N + M</span>","null","","","","resp_prompt","","","","","","","","","","","","","","","",""
"categorize-image","200","388309","0.0-4.0-1.0-1.12","s1tua0rnrvunjqw","prime","5e78463da9db373bfee6bd36","5f60e3c0a3b16e07647b2ff9","5f64c2cfec56db02dd4b32c0","true","586","./Stimuli/SelectedImages/SN/SN155.bmp","76","","","","test","false","N + M","83","switch","SN","SN155.bmp","forget","","77","4","prime1","right","","","",""
"html-keyboard-response","201","388811","0.0-4.0-1.0-2.12-0.12","s1tua0rnrvunjqw","prime","5e78463da9db373bfee6bd36","5f60e3c0a3b16e07647b2ff9","5f64c2cfec56db02dd4b32c0","false","null","<span style=""color: red; font-size: 48px"">Error!</span>","null","","","","feedback","","","","","","","","","","","","","","","",""
"html-keyboard-response","202","390815","0.0-4.0-1.0-3.12","s1tua0rnrvunjqw","prime","5e78463da9db373bfee6bd36","5f60e3c0a3b16e07647b2ff9","5f64c2cfec56db02dd4b32c0","false","null","<div style=""align-items: center; display: flex; color: darkorange; font-size: 90px""><b>ø</b></div>","null","","","","forget_cue","","","","","","","","","","","","","","","",""
"html-keyboard-response","203","391517","0.0-4.0-1.0-0.13","s1tua0rnrvunjqw","prime","5e78463da9db373bfee6bd36","5f60e3c0a3b16e07647b2ff9","5f64c2cfec56db02dd4b32c0","false","null","<span style=""color: black; font-size: 48px"">M + N</span>","null","","","","resp_prompt","","","","","","","","","","","","","","","",""
"categorize-image","204","392847","0.0-4.0-1.0-1.13","s1tua0rnrvunjqw","prime","5e78463da9db373bfee6bd36","5f60e3c0a3b16e07647b2ff9","5f64c2cfec56db02dd4b32c0","true","1326","./Stimuli/SelectedImages/LM/LM157.bmp","83","","","","test","true","M + N","83","repetition","LM","LM157.bmp","forget","","78","4","prime1","left","","","",""
"html-keyboard-response","205","394849","0.0-4.0-1.0-3.13","s1tua0rnrvunjqw","prime","5e78463da9db373bfee6bd36","5f60e3c0a3b16e07647b2ff9","5f64c2cfec56db02dd4b32c0","false","null","<div style=""align-items: center; display: flex; color: darkorange; font-size: 90px""><b>ø</b></div>","null","","","","forget_cue","","","","","","","","","","","","","","","",""
"html-keyboard-response","206","395551","0.0-4.0-1.0-0.14","s1tua0rnrvunjqw","prime","5e78463da9db373bfee6bd36","5f60e3c0a3b16e07647b2ff9","5f64c2cfec56db02dd4b32c0","false","null","<span style=""color: black; font-size: 48px"">N + M</span>","null","","","","resp_prompt","","","","","","","","","","","","","","","",""
"categorize-image","207","396486","0.0-4.0-1.0-1.14","s1tua0rnrvunjqw","prime","5e78463da9db373bfee6bd36","5f60e3c0a3b16e07647b2ff9","5f64c2cfec56db02dd4b32c0","true","932.0000000000582","./Stimuli/SelectedImages/LN/LN177.bmp","83","","","","test","true","N + M","83","switch","LN","LN177.bmp","remember","","79","4","prime1","left","","","",""
"html-keyboard-response","208","398488","0.0-4.0-1.0-3.14","s1tua0rnrvunjqw","prime","5e78463da9db373bfee6bd36","5f60e3c0a3b16e07647b2ff9","5f64c2cfec56db02dd4b32c0","false","null","<div style=""align-items: center; display: flex; color: dodgerblue; font-size: 90px""><b>o</b></div>","null","","","","forget_cue","","","","","","","","","","","","","","","",""
"html-keyboard-response","209","399190","0.0-4.0-1.0-0.15","s1tua0rnrvunjqw","prime","5e78463da9db373bfee6bd36","5f60e3c0a3b16e07647b2ff9","5f64c2cfec56db02dd4b32c0","false","null","<span style=""color: black; font-size: 48px"">N + M</span>","null","","","","resp_prompt","","","","","","","","","","","","","","","",""
"categorize-image","210","399921","0.0-4.0-1.0-1.15","s1tua0rnrvunjqw","prime","5e78463da9db373bfee6bd36","5f60e3c0a3b16e07647b2ff9","5f64c2cfec56db02dd4b32c0","true","727","./Stimuli/SelectedImages/SM/SM195.bmp","76","","","","test","true","N + M","76","repetition","SM","SM195.bmp","remember","","80","4","prime1","right","","","",""
"html-keyboard-response","211","401922","0.0-4.0-1.0-3.15","s1tua0rnrvunjqw","prime","5e78463da9db373bfee6bd36","5f60e3c0a3b16e07647b2ff9","5f64c2cfec56db02dd4b32c0","false","null","<div style=""align-items: center; display: flex; color: dodgerblue; font-size: 90px""><b>o</b></div>","null","","","","forget_cue","","","","","","","","","","","","","","","",""
"html-keyboard-response","212","402624","0.0-4.0-1.0-0.16","s1tua0rnrvunjqw","prime","5e78463da9db373bfee6bd36","5f60e3c0a3b16e07647b2ff9","5f64c2cfec56db02dd4b32c0","false","null","<span style=""color: black; font-size: 48px"">N + M</span>","null","","","","resp_prompt","","","","","","","","","","","","","","","",""
"categorize-image","213","403326","0.0-4.0-1.0-1.16","s1tua0rnrvunjqw","prime","5e78463da9db373bfee6bd36","5f60e3c0a3b16e07647b2ff9","5f64c2cfec56db02dd4b32c0","true","699","./Stimuli/SelectedImages/SN/SN187.bmp","76","","","","test","false","N + M","83","repetition","SN","SN187.bmp","forget","","81","4","prime1","right","","","",""
"html-keyboard-response","214","403828","0.0-4.0-1.0-2.16-0.16","s1tua0rnrvunjqw","prime","5e78463da9db373bfee6bd36","5f60e3c0a3b16e07647b2ff9","5f64c2cfec56db02dd4b32c0","false","null","<span style=""color: red; font-size: 48px"">Error!</span>","null","","","","feedback","","","","","","","","","","","","","","","",""
"html-keyboard-response","215","405830","0.0-4.0-1.0-3.16","s1tua0rnrvunjqw","prime","5e78463da9db373bfee6bd36","5f60e3c0a3b16e07647b2ff9","5f64c2cfec56db02dd4b32c0","false","null","<div style=""align-items: center; display: flex; color: darkorange; font-size: 90px""><b>ø</b></div>","null","","","","forget_cue","","","","","","","","","","","","","","","",""
"html-keyboard-response","216","406532","0.0-4.0-1.0-0.17","s1tua0rnrvunjqw","prime","5e78463da9db373bfee6bd36","5f60e3c0a3b16e07647b2ff9","5f64c2cfec56db02dd4b32c0","false","null","<span style=""color: black; font-size: 48px"">N + M</span>","null","","","","resp_prompt","","","","","","","","","","","","","","","",""
"categorize-image","217","407195","0.0-4.0-1.0-1.17","s1tua0rnrvunjqw","prime","5e78463da9db373bfee6bd36","5f60e3c0a3b16e07647b2ff9","5f64c2cfec56db02dd4b32c0","true","660","./Stimuli/SelectedImages/LM/LM150.bmp","76","","","","test","true","N + M","76","switch","LM","LM150.bmp","remember","","82","4","prime1","right","","","",""
"html-keyboard-response","218","409198","0.0-4.0-1.0-3.17","s1tua0rnrvunjqw","prime","5e78463da9db373bfee6bd36","5f60e3c0a3b16e07647b2ff9","5f64c2cfec56db02dd4b32c0","false","null","<div style=""align-items: center; display: flex; color: dodgerblue; font-size: 90px""><b>o</b></div>","null","","","","forget_cue","","","","","","","","","","","","","","","",""
"html-keyboard-response","219","409900","0.0-4.0-1.0-0.18","s1tua0rnrvunjqw","prime","5e78463da9db373bfee6bd36","5f60e3c0a3b16e07647b2ff9","5f64c2cfec56db02dd4b32c0","false","null","<span style=""color: black; font-size: 48px"">N + M</span>","null","","","","resp_prompt","","","","","","","","","","","","","","","",""
"categorize-image","220","410965","0.0-4.0-1.0-1.18","s1tua0rnrvunjqw","prime","5e78463da9db373bfee6bd36","5f60e3c0a3b16e07647b2ff9","5f64c2cfec56db02dd4b32c0","true","1062.9999999999418","./Stimuli/SelectedImages/SN/SN93.bmp","83","","","","test","true","N + M","83","repetition","SN","SN93.bmp","forget","","83","4","prime1","left","","","",""
"html-keyboard-response","221","412968","0.0-4.0-1.0-3.18","s1tua0rnrvunjqw","prime","5e78463da9db373bfee6bd36","5f60e3c0a3b16e07647b2ff9","5f64c2cfec56db02dd4b32c0","false","null","<div style=""align-items: center; display: flex; color: darkorange; font-size: 90px""><b>ø</b></div>","null","","","","forget_cue","","","","","","","","","","","","","","","",""
"html-keyboard-response","222","413669","0.0-4.0-1.0-0.19","s1tua0rnrvunjqw","prime","5e78463da9db373bfee6bd36","5f60e3c0a3b16e07647b2ff9","5f64c2cfec56db02dd4b32c0","false","null","<span style=""color: black; font-size: 48px"">N + M</span>","null","","","","resp_prompt","","","","","","","","","","","","","","","",""
"categorize-image","223","414298","0.0-4.0-1.0-1.19","s1tua0rnrvunjqw","prime","5e78463da9db373bfee6bd36","5f60e3c0a3b16e07647b2ff9","5f64c2cfec56db02dd4b32c0","true","625.9999999999418","./Stimuli/SelectedImages/SM/SM207.bmp","76","","","","test","true","N + M","76","repetition","SM","SM207.bmp","forget","","84","4","prime1","right","","","",""
"html-keyboard-response","224","416299","0.0-4.0-1.0-3.19","s1tua0rnrvunjqw","prime","5e78463da9db373bfee6bd36","5f60e3c0a3b16e07647b2ff9","5f64c2cfec56db02dd4b32c0","false","null","<div style=""align-items: center; display: flex; color: darkorange; font-size: 90px""><b>ø</b></div>","null","","","","forget_cue","","","","","","","","","","","","","","","",""
"html-keyboard-response","225","417002","0.0-4.0-1.0-0.20","s1tua0rnrvunjqw","prime","5e78463da9db373bfee6bd36","5f60e3c0a3b16e07647b2ff9","5f64c2cfec56db02dd4b32c0","false","null","<span style=""color: black; font-size: 48px"">M + N</span>","null","","","","resp_prompt","","","","","","","","","","","","","","","",""
"categorize-image","226","417698","0.0-4.0-1.0-1.20","s1tua0rnrvunjqw","prime","5e78463da9db373bfee6bd36","5f60e3c0a3b16e07647b2ff9","5f64c2cfec56db02dd4b32c0","true","694","./Stimuli/SelectedImages/SN/SN240.bmp","76","","","","test","true","M + N","76","repetition","SN","SN240.bmp","remember","","85","4","prime1","right","","","",""
"html-keyboard-response","227","419700","0.0-4.0-1.0-3.20","s1tua0rnrvunjqw","prime","5e78463da9db373bfee6bd36","5f60e3c0a3b16e07647b2ff9","5f64c2cfec56db02dd4b32c0","false","null","<div style=""align-items: center; display: flex; color: dodgerblue; font-size: 90px""><b>o</b></div>","null","","","","forget_cue","","","","","","","","","","","","","","","",""
"html-keyboard-response","228","420403","0.0-4.0-1.0-0.21","s1tua0rnrvunjqw","prime","5e78463da9db373bfee6bd36","5f60e3c0a3b16e07647b2ff9","5f64c2cfec56db02dd4b32c0","false","null","<span style=""color: black; font-size: 48px"">M + N</span>","null","","","","resp_prompt","","","","","","","","","","","","","","","",""
"categorize-image","229","421238","0.0-4.0-1.0-1.21","s1tua0rnrvunjqw","prime","5e78463da9db373bfee6bd36","5f60e3c0a3b16e07647b2ff9","5f64c2cfec56db02dd4b32c0","true","832","./Stimuli/SelectedImages/LN/LN12.bmp","76","","","","test","true","M + N","76","repetition","LN","LN12.bmp","forget","","86","4","prime1","right","","","",""
"html-keyboard-response","230","423239","0.0-4.0-1.0-3.21","s1tua0rnrvunjqw","prime","5e78463da9db373bfee6bd36","5f60e3c0a3b16e07647b2ff9","5f64c2cfec56db02dd4b32c0","false","null","<div style=""align-items: center; display: flex; color: darkorange; font-size: 90px""><b>ø</b></div>","null","","","","forget_cue","","","","","","","","","","","","","","","",""
"html-keyboard-response","231","423940","0.0-4.0-1.0-0.22","s1tua0rnrvunjqw","prime","5e78463da9db373bfee6bd36","5f60e3c0a3b16e07647b2ff9","5f64c2cfec56db02dd4b32c0","false","null","<span style=""color: black; font-size: 48px"">N + M</span>","null","","","","resp_prompt","","","","","","","","","","","","","","","",""
"categorize-image","232","424587","0.0-4.0-1.0-1.22","s1tua0rnrvunjqw","prime","5e78463da9db373bfee6bd36","5f60e3c0a3b16e07647b2ff9","5f64c2cfec56db02dd4b32c0","true","644","./Stimuli/SelectedImages/SN/SN64.bmp","83","","","","test","true","N + M","83","repetition","SN","SN64.bmp","remember","","87","4","prime1","left","","","",""
"html-keyboard-response","233","426589","0.0-4.0-1.0-3.22","s1tua0rnrvunjqw","prime","5e78463da9db373bfee6bd36","5f60e3c0a3b16e07647b2ff9","5f64c2cfec56db02dd4b32c0","false","null","<div style=""align-items: center; display: flex; color: dodgerblue; font-size: 90px""><b>o</b></div>","null","","","","forget_cue","","","","","","","","","","","","","","","",""
"html-keyboard-response","234","427291","0.0-4.0-1.0-0.23","s1tua0rnrvunjqw","prime","5e78463da9db373bfee6bd36","5f60e3c0a3b16e07647b2ff9","5f64c2cfec56db02dd4b32c0","false","null","<span style=""color: black; font-size: 48px"">N + M</span>","null","","","","resp_prompt","","","","","","","","","","","","","","","",""
"categorize-image","235","427967","0.0-4.0-1.0-1.23","s1tua0rnrvunjqw","prime","5e78463da9db373bfee6bd36","5f60e3c0a3b16e07647b2ff9","5f64c2cfec56db02dd4b32c0","true","673","./Stimuli/SelectedImages/SN/SN182.bmp","83","","","","test","true","N + M","83","switch","SN","SN182.bmp","remember","","88","4","prime1","left","","","",""
"html-keyboard-response","236","429970","0.0-4.0-1.0-3.23","s1tua0rnrvunjqw","prime","5e78463da9db373bfee6bd36","5f60e3c0a3b16e07647b2ff9","5f64c2cfec56db02dd4b32c0","false","null","<div style=""align-items: center; display: flex; color: dodgerblue; font-size: 90px""><b>o</b></div>","null","","","","forget_cue","","","","","","","","","","","","","","","",""
"html-keyboard-response","237","430672","0.0-4.0-1.0-0.24","s1tua0rnrvunjqw","prime","5e78463da9db373bfee6bd36","5f60e3c0a3b16e07647b2ff9","5f64c2cfec56db02dd4b32c0","false","null","<span style=""color: black; font-size: 48px"">M + N</span>","null","","","","resp_prompt","","","","","","","","","","","","","","","",""
"categorize-image","238","431955","0.0-4.0-1.0-1.24","s1tua0rnrvunjqw","prime","5e78463da9db373bfee6bd36","5f60e3c0a3b16e07647b2ff9","5f64c2cfec56db02dd4b32c0","true","1280","./Stimuli/SelectedImages/LM/LM103.bmp","83","","","","test","true","M + N","83","repetition","LM","LM103.bmp","remember","","89","4","prime1","left","","","",""
"html-keyboard-response","239","433957","0.0-4.0-1.0-3.24","s1tua0rnrvunjqw","prime","5e78463da9db373bfee6bd36","5f60e3c0a3b16e07647b2ff9","5f64c2cfec56db02dd4b32c0","false","null","<div style=""align-items: center; display: flex; color: dodgerblue; font-size: 90px""><b>o</b></div>","null","","","","forget_cue","","","","","","","","","","","","","","","",""
"html-keyboard-response","240","434660","0.0-4.0-1.0-0.25","s1tua0rnrvunjqw","prime","5e78463da9db373bfee6bd36","5f60e3c0a3b16e07647b2ff9","5f64c2cfec56db02dd4b32c0","false","null","<span style=""color: black; font-size: 48px"">M + N</span>","null","","","","resp_prompt","","","","","","","","","","","","","","","",""
"categorize-image","241","435202","0.0-4.0-1.0-1.25","s1tua0rnrvunjqw","prime","5e78463da9db373bfee6bd36","5f60e3c0a3b16e07647b2ff9","5f64c2cfec56db02dd4b32c0","true","538.0000000000582","./Stimuli/SelectedImages/LN/LN150.bmp","76","","","","test","true","M + N","76","repetition","LN","LN150.bmp","forget","","90","4","prime1","right","","","",""
"html-keyboard-response","242","437204","0.0-4.0-1.0-3.25","s1tua0rnrvunjqw","prime","5e78463da9db373bfee6bd36","5f60e3c0a3b16e07647b2ff9","5f64c2cfec56db02dd4b32c0","false","null","<div style=""align-items: center; display: flex; color: darkorange; font-size: 90px""><b>ø</b></div>","null","","","","forget_cue","","","","","","","","","","","","","","","",""
"html-keyboard-response","243","437906","0.0-4.0-1.0-0.26","s1tua0rnrvunjqw","prime","5e78463da9db373bfee6bd36","5f60e3c0a3b16e07647b2ff9","5f64c2cfec56db02dd4b32c0","false","null","<span style=""color: black; font-size: 48px"">N + M</span>","null","","","","resp_prompt","","","","","","","","","","","","","","","",""
"categorize-image","244","438518","0.0-4.0-1.0-1.26","s1tua0rnrvunjqw","prime","5e78463da9db373bfee6bd36","5f60e3c0a3b16e07647b2ff9","5f64c2cfec56db02dd4b32c0","true","608","./Stimuli/SelectedImages/LN/LN128.bmp","76","","","","test","false","N + M","83","repetition","LN","LN128.bmp","remember","","91","4","prime1","right","","","",""
"html-keyboard-response","245","439020","0.0-4.0-1.0-2.26-0.26","s1tua0rnrvunjqw","prime","5e78463da9db373bfee6bd36","5f60e3c0a3b16e07647b2ff9","5f64c2cfec56db02dd4b32c0","false","null","<span style=""color: red; font-size: 48px"">Error!</span>","null","","","","feedback","","","","","","","","","","","","","","","",""
"html-keyboard-response","246","441022","0.0-4.0-1.0-3.26","s1tua0rnrvunjqw","prime","5e78463da9db373bfee6bd36","5f60e3c0a3b16e07647b2ff9","5f64c2cfec56db02dd4b32c0","false","null","<div style=""align-items: center; display: flex; color: dodgerblue; font-size: 90px""><b>o</b></div>","null","","","","forget_cue","","","","","","","","","","","","","","","",""
"html-keyboard-response","247","441724","0.0-4.0-1.0-0.27","s1tua0rnrvunjqw","prime","5e78463da9db373bfee6bd36","5f60e3c0a3b16e07647b2ff9","5f64c2cfec56db02dd4b32c0","false","null","<span style=""color: black; font-size: 48px"">M + N</span>","null","","","","resp_prompt","","","","","","","","","","","","","","","",""
"categorize-image","248","443025","0.0-4.0-1.0-1.27","s1tua0rnrvunjqw","prime","5e78463da9db373bfee6bd36","5f60e3c0a3b16e07647b2ff9","5f64c2cfec56db02dd4b32c0","true","1297","./Stimuli/SelectedImages/SN/SN52.bmp","76","","","","test","true","M + N","76","repetition","SN","SN52.bmp","remember","","92","4","prime1","right","","","",""
"html-keyboard-response","249","445028","0.0-4.0-1.0-3.27","s1tua0rnrvunjqw","prime","5e78463da9db373bfee6bd36","5f60e3c0a3b16e07647b2ff9","5f64c2cfec56db02dd4b32c0","false","null","<div style=""align-items: center; display: flex; color: dodgerblue; font-size: 90px""><b>o</b></div>","null","","","","forget_cue","","","","","","","","","","","","","","","",""
