"trial_type","trial_index","time_elapsed","internal_node_id","subject","exp_part","prolific_PID","study_ID","session_ID","use","rt","stimulus","key_press","button_pressed","responses","question_order","trial_part","correct","resp_map","correct_resp","probe_condition","category","image","forget_condition","list","trial_num","block_num","block","response","test_part","n_span","sequence","num_spaces"
"pavlovia","0","2","0.0-0.0","0784glpe217a2v2","","5ee37ccb16ad19000c16585e","5f60e3c0a3b16e07647b2ff9","5f63259a03747427248fc89f","false","","","","","","","","","","","","","","","","","","","","","","",""
"html-keyboard-response","1","10170","0.0-1.0-0.0-0.0","0784glpe217a2v2","welcome","5ee37ccb16ad19000c16585e","5f60e3c0a3b16e07647b2ff9","5f63259a03747427248fc89f","false","10167.210000000068","<div align=left>Dear participant, <br> thank you for participating in an online study of the Cognition, Action, and Sustainability Unit of the University of Freiburg! <br> <br>The aim of this study is to examine our ability to remember previously learned information. <br>Our goal is to find out, whether our memory improves, when we only remember information that is relevant to us. <br>The experiment will take about 35 minutes to complete. <br> <br>Please, note that you can only participate in this study if you are using a device with a keyboard (PC, Laptop etc.) <br>and not if you are using a mobile device such as a tablet or smartphone.<br> <br>Press 'SPACE' to proceed to the experiment. </div>","32","","","","","","","","","","","","","","","","","","","",""
"html-keyboard-response","2","16836","0.0-1.0-0.0-1.0","0784glpe217a2v2","welcome","5ee37ccb16ad19000c16585e","5f60e3c0a3b16e07647b2ff9","5f63259a03747427248fc89f","false","6665.480000000116","<div align=left><strong> Time Course of this experiment: </strong> <br><br> <strong> 1.</strong>  First, please fill in some information regarding your demographic data. <br><br> <strong> 2.</strong>  Next, your task will be to classify everyday objects. <br>In addition, you will be asked to remember certain objects and recall them later. <br>Working on these tasks requires your undivided attention and concentration.<br>It is therefore essential that you eliminate any sources of distraction in your  <br>environment and ensure that you will not be disturbed. <br><br><strong> 3.</strong>  At the end of the experiment, you will be asked to answer a few additional questions. <br> <br><strong> Important:</strong> After finishing the experiment, only close the browser window <br> by clicking on the 'end the experiment'-button when you are asked to do so. <br>Closing the browser window prematurely will make the allocation of your participation credit impossible. <br><br> Press 'SPACE' to start the experiment. </div>","32","","","","","","","","","","","","","","","","","","","",""
"html-button-response","3","19786","0.0-1.0-0.0-2.0","0784glpe217a2v2","welcome","5ee37ccb16ad19000c16585e","5f60e3c0a3b16e07647b2ff9","5f63259a03747427248fc89f","true","2948.4199999997145","<div align=left><strong> Informed consent </strong>  <br>The aim of our research is to better understand human behavior and mental processes. <br>In the following study your behavior (e.g. choices, reaction times) will be studied. <br> <br><strong> Voluntariness and Anonymity </strong> <br>Your participation in this study is  <strong> voluntary</strong>.<br>You may withdraw your consent to participate at any time without providing a reason for doing so and without fear of prejudice. <br><br>As no personal data will be collected, <strong>your data and your person cannot be connected after data collection</strong> – the data-set is anonymous. <br>Respectively, deletion of your data will not be possible after data collection has been completed, as we cannot retrace your data-set.<br>The results and anonymized data collected in this study will be published as a scientific publication. <br>This will happen in an <strong>anonymized format</strong>, so that no data can be traced back to a specific person. <br> <br>The anonymized data of this study will be made available to other researchers and/or in a data archive on the Internet as a means of transparency and to enable subsequent re-use. By doing so, this study follows the recommendations of the Deutsche Forschungsgemeinschaft (DFG, German Research Foundation) and Deutsche Gesellschaft für Psychologie (DGPS, German Psychological Society) regarding quality assurance in research.<br>If you have any questions now or after the experiment, please contact our team (experiments@cs.uni-freiburg.de).<br><br><br>I hereby declare, that I understand the above described conditions of participation and I agree to participate under these conditions. <br><br> </div>","","0","","","","","","","","","","","","","","","","","","",""
"html-keyboard-response","4","30643","0.0-1.0-0.0-3.0","0784glpe217a2v2","welcome","5ee37ccb16ad19000c16585e","5f60e3c0a3b16e07647b2ff9","5f63259a03747427248fc89f","false","10856.36999999997","<div align=left><strong> General information concerning the experiment </strong>  <br> <br>Please follow the instructions:<ol> <li><strong> Do not leave this tab (your browser window) during the experiment and do not reload this tab! </strong>  <br>If you do switch tabs/windows during the experiment (to check your mail or visit another website, for example), <br>the experiment will end automatically and you will <strong>not receive credit</strong> for your participation. <br>Repeated participation or resumption of the experiment is impossible.</li> <br><li>Please close all other programs for the duration of your participation. </li> <br><li>Please mute or turn off your phone and put it out of your reach. </li> <br><li>Please also take off any disturbing accessories (such as wristwatches, bracelets, etc.). </li> <br><li>If you have music playing in the background, please turn it off now. </li> <br></ol>Thank you! <br>Press 'SPACE' to continue. </div>","32","","","","","","","","","","","","","","","","","","","",""
"survey-text","5","35047","0.0-1.0-1.0-0.0","0784glpe217a2v2","demographics","5ee37ccb16ad19000c16585e","5f60e3c0a3b16e07647b2ff9","5f63259a03747427248fc89f","true","4402.595000000023","","","","{""age"":""35 ""}","","","","","","","","","","","","","","","","","",""
"survey-multi-choice","6","50132","0.0-1.0-1.0-1.0","0784glpe217a2v2","demographics","5ee37ccb16ad19000c16585e","5f60e3c0a3b16e07647b2ff9","5f63259a03747427248fc89f","true","15083.944999999861","","","","{""gender"":""male"",""school"":""others"",""education"":""Completed university degree or equivalent""}","[0,1,2]","","","","","","","","","","","","","","","","",""
"html-keyboard-response","7","55358","0.0-1.0-2.0","0784glpe217a2v2","instructions","5ee37ccb16ad19000c16585e","5f60e3c0a3b16e07647b2ff9","5f63259a03747427248fc89f","false","5223.42000000026","<div align=left> The experiment is now about to start: <br> <br>In the following part, you will be presented pictures of everyday objects. <br>Your first task is to <strong>classify these objects. </strong> <br> <br> You will classify them either as mechanical or non-mechanical objects. <br> <br>Objects that include any kind of technical mechanism (for example, wheels, switches, levers, <br> electronic components) fall under the category of <strong>mechanical</strong> objects. <br>Only objects without any kind of technical mechanism should be classified as <strong>non-mechanical</strong>. <br><br>Press 'SPACE' to continue. </div>","32","","","","","","","","","","","","","","","","","","","",""
"html-keyboard-response","8","91506","0.0-2.0-0.0","0784glpe217a2v2","instructions","5ee37ccb16ad19000c16585e","5f60e3c0a3b16e07647b2ff9","5f63259a03747427248fc89f","false","36147.84499999996","<div align=justify>You will classify the objects using the <strong>'S'</strong> and the <strong>'L'</strong> keys on your keyboard.<br>For doing so, please place your <strong>left index finger</strong> on the <strong>'S'</strong> key and place your <strong>right index finger</strong> on the <strong>'L'</strong> key. <br><br> Each trial starts with an instruction, indicating which key ('S'/'L') you need to press to classify <br>the object as mechanical (letter M) or non-mechanical (letter N).<br>The instruction <strong>M + N</strong> indicates that, in the current trial, by pressing the left key ('S') you classify the displayed object as mechanical (M) <br> and by pressing the right key ('L') you classify the object as non-mechanical (N). <br>The instruction <strong>N + M</strong> on the other hand indicates that by pressing the left key ('S') you classify the displayed object as non-mechanical (N) <br> and by pressing the right key ('L') you classify the object as mechanical (M). <br><br>Please press the key corresponding to the correct classification as fast as possible as soon as the object is displayed and try to avoid making mistakes.<br>If you do not respond within a 2 second window, a corresponding feedback will be displayed and the next trial will start.<br> The experiment is divided into multiple blocks to give you the opportunity to take a break after each block. <br>First, you can now practice this task. <br><br>Please place your <strong>LEFT INDEX FINGER</strong> on the 'S' key and your <strong>RIGHT INDEX FINGER</strong> on the 'L' key now. <br><br>Press SPACE to continue.</div>","32","","","","","","","","","","","","","","","","","","","",""
"html-keyboard-response","9","94133","0.0-2.0-1.0","0784glpe217a2v2","instructions","5ee37ccb16ad19000c16585e","5f60e3c0a3b16e07647b2ff9","5f63259a03747427248fc89f","false","2625.8749999997235","<div align=left> You will now have time to practice this task.<br><br>Remember: <br> <br><li>Please place your index fingers on the <strong>'S'</strong> and <strong>'L'</strong> keys <br>to respond as fast and accurately as possible.</li><li>Every picture can be classified as either mechanical or non-mechanical.</li><li>If you do not respond in time or commit an error, you will receive a corresponding feedback. </li><li> Please try to respond as <strong> fast </strong> and as <strong> accurately as possible </strong> .<br><li>To ensure optimal results, please minimize distractions and stay focused. </li><br><br>Press SPACE to continue.</div>","32","","","","","","","","","","","","","","","","","","","",""
"html-keyboard-response","10","94834","0.0-2.0-2.0-0.0","0784glpe217a2v2","practice_no_cue","5ee37ccb16ad19000c16585e","5f60e3c0a3b16e07647b2ff9","5f63259a03747427248fc89f","false","null","<span style=""color: black; font-size: 48px"">M + N</span>","null","","","","resp_prompt","","","","","","","","","","","","","","","",""
"categorize-image","11","96486","0.0-2.0-2.0-1.0","0784glpe217a2v2","practice_no_cue","5ee37ccb16ad19000c16585e","5f60e3c0a3b16e07647b2ff9","5f63259a03747427248fc89f","true","1150.0649999998132","./Stimuli/ImagesPractice/LM143.jpg","83","","","","test","true","M + N","83","","LM","LM143.jpg","remember","old","1","1","start","left","","","",""
"html-keyboard-response","12","97187","0.0-2.0-2.0-0.1","0784glpe217a2v2","practice_no_cue","5ee37ccb16ad19000c16585e","5f60e3c0a3b16e07647b2ff9","5f63259a03747427248fc89f","false","null","<span style=""color: black; font-size: 48px"">N + M</span>","null","","","","resp_prompt","","","","","","","","","","","","","","","",""
"categorize-image","13","98485","0.0-2.0-2.0-1.1","0784glpe217a2v2","practice_no_cue","5ee37ccb16ad19000c16585e","5f60e3c0a3b16e07647b2ff9","5f63259a03747427248fc89f","true","797.1800000000367","./Stimuli/ImagesPractice/LN15.jpg","76","","","","test","false","N + M","83","","LN","LN15.jpg","forget","old","2","1","start","right","","","",""
"html-keyboard-response","14","99187","0.0-2.0-2.0-0.2","0784glpe217a2v2","practice_no_cue","5ee37ccb16ad19000c16585e","5f60e3c0a3b16e07647b2ff9","5f63259a03747427248fc89f","false","null","<span style=""color: black; font-size: 48px"">M + N</span>","null","","","","resp_prompt","","","","","","","","","","","","","","","",""
"categorize-image","15","100508","0.0-2.0-2.0-1.2","0784glpe217a2v2","practice_no_cue","5ee37ccb16ad19000c16585e","5f60e3c0a3b16e07647b2ff9","5f63259a03747427248fc89f","true","819.0199999999022","./Stimuli/ImagesPractice/LN2.jpg","76","","","","test","true","M + N","76","","LN","LN2.jpg","forget","old","3","1","start","right","","","",""
"html-keyboard-response","16","101209","0.0-2.0-2.0-0.3","0784glpe217a2v2","practice_no_cue","5ee37ccb16ad19000c16585e","5f60e3c0a3b16e07647b2ff9","5f63259a03747427248fc89f","false","null","<span style=""color: black; font-size: 48px"">N + M</span>","null","","","","resp_prompt","","","","","","","","","","","","","","","",""
"categorize-image","17","102579","0.0-2.0-2.0-1.3","0784glpe217a2v2","practice_no_cue","5ee37ccb16ad19000c16585e","5f60e3c0a3b16e07647b2ff9","5f63259a03747427248fc89f","true","868.509999999791","./Stimuli/ImagesPractice/SN205.jpg","76","","","","test","false","N + M","83","","SN","SN205.jpg","remember","old","4","1","start","right","","","",""
"html-keyboard-response","18","103281","0.0-2.0-2.0-0.4","0784glpe217a2v2","practice_no_cue","5ee37ccb16ad19000c16585e","5f60e3c0a3b16e07647b2ff9","5f63259a03747427248fc89f","false","null","<span style=""color: black; font-size: 48px"">M + N</span>","null","","","","resp_prompt","","","","","","","","","","","","","","","",""
"categorize-image","19","104782","0.0-2.0-2.0-1.4","0784glpe217a2v2","practice_no_cue","5ee37ccb16ad19000c16585e","5f60e3c0a3b16e07647b2ff9","5f63259a03747427248fc89f","true","1000.3999999998923","./Stimuli/ImagesPractice/SM37.jpg","76","","","","test","false","M + N","83","","SM","SM37.jpg","remember","old","5","1","start","right","","","",""
"html-keyboard-response","20","105484","0.0-2.0-2.0-0.5","0784glpe217a2v2","practice_no_cue","5ee37ccb16ad19000c16585e","5f60e3c0a3b16e07647b2ff9","5f63259a03747427248fc89f","false","null","<span style=""color: black; font-size: 48px"">N + M</span>","null","","","","resp_prompt","","","","","","","","","","","","","","","",""
"categorize-image","21","107179","0.0-2.0-2.0-1.5","0784glpe217a2v2","practice_no_cue","5ee37ccb16ad19000c16585e","5f60e3c0a3b16e07647b2ff9","5f63259a03747427248fc89f","true","1193.3799999997136","./Stimuli/ImagesPractice/LN72.jpg","83","","","","test","true","N + M","83","","LN","LN72.jpg","remember","old","6","1","start","left","","","",""
"html-keyboard-response","22","107881","0.0-2.0-2.0-0.6","0784glpe217a2v2","practice_no_cue","5ee37ccb16ad19000c16585e","5f60e3c0a3b16e07647b2ff9","5f63259a03747427248fc89f","false","null","<span style=""color: black; font-size: 48px"">N + M</span>","null","","","","resp_prompt","","","","","","","","","","","","","","","",""
"categorize-image","23","109400","0.0-2.0-2.0-1.6","0784glpe217a2v2","practice_no_cue","5ee37ccb16ad19000c16585e","5f60e3c0a3b16e07647b2ff9","5f63259a03747427248fc89f","true","1017.5450000001438","./Stimuli/ImagesPractice/LN109.jpg","76","","","","test","false","N + M","83","","LN","LN109.jpg","remember","old","7","1","start","right","","","",""
"html-keyboard-response","24","110101","0.0-2.0-2.0-0.7","0784glpe217a2v2","practice_no_cue","5ee37ccb16ad19000c16585e","5f60e3c0a3b16e07647b2ff9","5f63259a03747427248fc89f","false","null","<span style=""color: black; font-size: 48px"">N + M</span>","null","","","","resp_prompt","","","","","","","","","","","","","","","",""
"categorize-image","25","111767","0.0-2.0-2.0-1.7","0784glpe217a2v2","practice_no_cue","5ee37ccb16ad19000c16585e","5f60e3c0a3b16e07647b2ff9","5f63259a03747427248fc89f","true","1164.9050000000861","./Stimuli/ImagesPractice/SM61.jpg","83","","","","test","false","N + M","76","","SM","SM61.jpg","forget","old","8","1","start","left","","","",""
"html-keyboard-response","26","112468","0.0-2.0-2.0-0.8","0784glpe217a2v2","practice_no_cue","5ee37ccb16ad19000c16585e","5f60e3c0a3b16e07647b2ff9","5f63259a03747427248fc89f","false","null","<span style=""color: black; font-size: 48px"">N + M</span>","null","","","","resp_prompt","","","","","","","","","","","","","","","",""
"categorize-image","27","113948","0.0-2.0-2.0-1.8","0784glpe217a2v2","practice_no_cue","5ee37ccb16ad19000c16585e","5f60e3c0a3b16e07647b2ff9","5f63259a03747427248fc89f","true","979.0100000000239","./Stimuli/ImagesPractice/LM230.jpg","76","","","","test","true","N + M","76","","LM","LM230.jpg","remember","old","9","1","start","right","","","",""
"html-keyboard-response","28","114649","0.0-2.0-2.0-0.9","0784glpe217a2v2","practice_no_cue","5ee37ccb16ad19000c16585e","5f60e3c0a3b16e07647b2ff9","5f63259a03747427248fc89f","false","null","<span style=""color: black; font-size: 48px"">N + M</span>","null","","","","resp_prompt","","","","","","","","","","","","","","","",""
"categorize-image","29","115921","0.0-2.0-2.0-1.9","0784glpe217a2v2","practice_no_cue","5ee37ccb16ad19000c16585e","5f60e3c0a3b16e07647b2ff9","5f63259a03747427248fc89f","true","771.0699999997742","./Stimuli/ImagesPractice/SM98.jpg","76","","","","test","true","N + M","76","","SM","SM98.jpg","forget","old","10","1","start","right","","","",""
"html-keyboard-response","30","116622","0.0-2.0-2.0-0.10","0784glpe217a2v2","practice_no_cue","5ee37ccb16ad19000c16585e","5f60e3c0a3b16e07647b2ff9","5f63259a03747427248fc89f","false","null","<span style=""color: black; font-size: 48px"">N + M</span>","null","","","","resp_prompt","","","","","","","","","","","","","","","",""
"categorize-image","31","117878","0.0-2.0-2.0-1.10","0784glpe217a2v2","practice_no_cue","5ee37ccb16ad19000c16585e","5f60e3c0a3b16e07647b2ff9","5f63259a03747427248fc89f","true","755.0949999999866","./Stimuli/ImagesPractice/SN75.jpg","83","","","","test","true","N + M","83","","SN","SN75.jpg","forget","old","11","1","start","left","","","",""
"html-keyboard-response","32","118579","0.0-2.0-2.0-0.11","0784glpe217a2v2","practice_no_cue","5ee37ccb16ad19000c16585e","5f60e3c0a3b16e07647b2ff9","5f63259a03747427248fc89f","false","null","<span style=""color: black; font-size: 48px"">M + N</span>","null","","","","resp_prompt","","","","","","","","","","","","","","","",""
"categorize-image","33","120041","0.0-2.0-2.0-1.11","0784glpe217a2v2","practice_no_cue","5ee37ccb16ad19000c16585e","5f60e3c0a3b16e07647b2ff9","5f63259a03747427248fc89f","true","959.7949999997654","./Stimuli/ImagesPractice/SN220.jpg","76","","","","test","true","M + N","76","","SN","SN220.jpg","remember","old","12","1","start","right","","","",""
"html-keyboard-response","34","120742","0.0-2.0-2.0-0.12","0784glpe217a2v2","practice_no_cue","5ee37ccb16ad19000c16585e","5f60e3c0a3b16e07647b2ff9","5f63259a03747427248fc89f","false","null","<span style=""color: black; font-size: 48px"">M + N</span>","null","","","","resp_prompt","","","","","","","","","","","","","","","",""
"categorize-image","35","122165","0.0-2.0-2.0-1.12","0784glpe217a2v2","practice_no_cue","5ee37ccb16ad19000c16585e","5f60e3c0a3b16e07647b2ff9","5f63259a03747427248fc89f","true","921.4650000003458","./Stimuli/ImagesPractice/SM35.jpg","83","","","","test","true","M + N","83","","SM","SM35.jpg","forget","old","13","1","start","left","","","",""
"html-keyboard-response","36","122866","0.0-2.0-2.0-0.13","0784glpe217a2v2","practice_no_cue","5ee37ccb16ad19000c16585e","5f60e3c0a3b16e07647b2ff9","5f63259a03747427248fc89f","false","null","<span style=""color: black; font-size: 48px"">M + N</span>","null","","","","resp_prompt","","","","","","","","","","","","","","","",""
"categorize-image","37","124080","0.0-2.0-2.0-1.13","0784glpe217a2v2","practice_no_cue","5ee37ccb16ad19000c16585e","5f60e3c0a3b16e07647b2ff9","5f63259a03747427248fc89f","true","712.4300000000367","./Stimuli/ImagesPractice/SN221.jpg","76","","","","test","true","M + N","76","","SN","SN221.jpg","remember","old","14","1","start","right","","","",""
"html-keyboard-response","38","124781","0.0-2.0-2.0-0.14","0784glpe217a2v2","practice_no_cue","5ee37ccb16ad19000c16585e","5f60e3c0a3b16e07647b2ff9","5f63259a03747427248fc89f","false","null","<span style=""color: black; font-size: 48px"">M + N</span>","null","","","","resp_prompt","","","","","","","","","","","","","","","",""
"categorize-image","39","126070","0.0-2.0-2.0-1.14","0784glpe217a2v2","practice_no_cue","5ee37ccb16ad19000c16585e","5f60e3c0a3b16e07647b2ff9","5f63259a03747427248fc89f","true","787.6049999999814","./Stimuli/ImagesPractice/SM62.jpg","83","","","","test","true","M + N","83","","SM","SM62.jpg","forget","old","15","1","start","left","","","",""
"html-keyboard-response","40","126771","0.0-2.0-2.0-0.15","0784glpe217a2v2","practice_no_cue","5ee37ccb16ad19000c16585e","5f60e3c0a3b16e07647b2ff9","5f63259a03747427248fc89f","false","null","<span style=""color: black; font-size: 48px"">M + N</span>","null","","","","resp_prompt","","","","","","","","","","","","","","","",""
"categorize-image","41","128032","0.0-2.0-2.0-1.15","0784glpe217a2v2","practice_no_cue","5ee37ccb16ad19000c16585e","5f60e3c0a3b16e07647b2ff9","5f63259a03747427248fc89f","true","759.2999999997119","./Stimuli/ImagesPractice/LM55.jpg","83","","","","test","true","M + N","83","","LM","LM55.jpg","forget","old","16","1","start","left","","","",""
"html-keyboard-response","42","139679","0.0-2.0-3.0","0784glpe217a2v2","break","5ee37ccb16ad19000c16585e","5f60e3c0a3b16e07647b2ff9","5f63259a03747427248fc89f","false","11646.46000000037","<p style='font-size: 32px;'>Break</><br><br><br><br><br><p style='font-size: 24px;'>In the last block, you committed 5 errors and did not respond in time on 0 trials.
</p><p style='font-size: 24px;'>Try to respond as fast and accurately as possible in the next block as well! </p><p style='font-size: 24px;'>Press SPACE to continue.</p>","32","","","","","","","","","","","","","","","","","","","",""
"html-keyboard-response","43","143201","0.0-2.0-4.0","0784glpe217a2v2","instructions","5ee37ccb16ad19000c16585e","5f60e3c0a3b16e07647b2ff9","5f63259a03747427248fc89f","false","3520.895000000106","<div align=left> Great!<br><br>Are you ready to continue?<br><br>If you want to reread the instructions and redo the practice trials, <br>please press „Z“. <br><br>Press SPACE to CONTINUE with the experiment when you are ready. </div>","32","","","","","","","","","","","","","","","","","","","",""
"html-keyboard-response","44","155813","0.0-3.0-0.0","0784glpe217a2v2","instructions","5ee37ccb16ad19000c16585e","5f60e3c0a3b16e07647b2ff9","5f63259a03747427248fc89f","false","12611.4150000003","<div align=left>Great!<br> <strong>Attention</strong>! You will now receive a second, additional task! <br><br>To this point it was you <strong>first task</strong> to correctly <strong>classify objects</strong>. <br><br>As mentioned in the beginning, we aim to examine how well humans can remember previously learned information.<br>We would like to find out whether our memory improves if we only remember information that is relevant to us. <br><br>Therefore, your <strong>second task</strong> will be to <strong>remember</strong> the pictures you are to categorize. <br> After the learning phase, there will be a memory test phase, in which you will be asked to indicate whether you have seen a picture before or not. <br>Some, but not all pictures shown in the learning phase will appear in the memory test phase.<br>After classifying a picture, you will be told whether you should remember it for the memory test phase or not. <br>Thus, some pictures can be forgotten, whereas others have to be remembered. <br><br>Note: From now on, feedback will only be displayed if you responded incorrectly or not in time.<br><br>Press SPACE to continue.</div>","32","","","","","","","","","","","","","","","","","","","",""
"html-keyboard-response","45","162251","0.0-3.0-1.0","0784glpe217a2v2","instructions","5ee37ccb16ad19000c16585e","5f60e3c0a3b16e07647b2ff9","5f63259a03747427248fc89f","false","6438.030000000261","<div align=left>In the following part, you will thus have to remember only some pictures. <br>Immediately after seeing and classifying the picture, a symbol will be displayed, indicating whether you should remember or forget the previous picture. <br><br>A <span style='color: dodgerblue; font-size: 28px'>O</span> indicates REMEMBER. That means, you have to remember this picture, because it will be tested later. <br><br>A <span style='color: darkorange; font-size:28px'>Ø</span> indicates FORGET. You do not have to remember this picture. <br><br> As you will have to remember a lot of pictures, it will be hard for you to remember all of them. <br>It will put you at an advantage if you instantly forget the pictures you are not asked to remember. <br> This will make it easier for you to remember the pictures that will be tested afterwards. <br><br>Press SPACE to continue.</div>","32","","","","","","","","","","","","","","","","","","","",""
"html-keyboard-response","46","164519","0.0-3.0-2.0","0784glpe217a2v2","instructions","5ee37ccb16ad19000c16585e","5f60e3c0a3b16e07647b2ff9","5f63259a03747427248fc89f","false","2266.969999999681","<div align=left> Now you have the chance to practice both tasks together.<br><br>Remember: <br> <br><li>Please place your index fingers on the <strong>'S'</strong> and <strong>'L'</strong> keys <br>to respond as fast and accurately as possible.</li><li>Every picture can be classified as either mechanical or non-mechanical.</li><li>If you do not respond in time or commit an error, you will receive a corresponding feedback. <br>Please try to respond as <strong> fast </strong> and as <strong> accurately as possible </strong>.</li><li> Please remember only the to-be-remembered <span style='color: dodgerblue; font-size: 28px'>O</span> pictures. <br></li><li> Please minimize distractions and stay focused. </li><br><br>Press SPACE to START</div>","32","","","","","","","","","","","","","","","","","","","",""
"html-keyboard-response","47","165220","0.0-3.0-3.0-0.0","0784glpe217a2v2","practice_cue","5ee37ccb16ad19000c16585e","5f60e3c0a3b16e07647b2ff9","5f63259a03747427248fc89f","false","null","<span style=""color: black; font-size: 48px"">M + N</span>","null","","","","resp_prompt","","","","","","","","","","","","","","","",""
"categorize-image","48","165855","0.0-3.0-3.0-1.0","0784glpe217a2v2","practice_cue","5ee37ccb16ad19000c16585e","5f60e3c0a3b16e07647b2ff9","5f63259a03747427248fc89f","true","632.3349999997881","./Stimuli/ImagesPractice/SM35.jpg","83","","","","test","true","M + N","83","","SM","SM35.jpg","forget","old","17","2","practice_forget","left","","","",""
"html-keyboard-response","49","167857","0.0-3.0-3.0-3.0","0784glpe217a2v2","practice_cue","5ee37ccb16ad19000c16585e","5f60e3c0a3b16e07647b2ff9","5f63259a03747427248fc89f","false","null","<div style=""align-items: center; display: flex; color: darkorange; font-size: 90px""><b>ø</b></div>","null","","","","forget_cue","","","","","","","","","","","","","","","",""
"html-keyboard-response","50","168558","0.0-3.0-3.0-0.1","0784glpe217a2v2","practice_cue","5ee37ccb16ad19000c16585e","5f60e3c0a3b16e07647b2ff9","5f63259a03747427248fc89f","false","null","<span style=""color: black; font-size: 48px"">N + M</span>","null","","","","resp_prompt","","","","","","","","","","","","","","","",""
"categorize-image","51","169604","0.0-3.0-3.0-1.1","0784glpe217a2v2","practice_cue","5ee37ccb16ad19000c16585e","5f60e3c0a3b16e07647b2ff9","5f63259a03747427248fc89f","true","1043.3349999998172","./Stimuli/ImagesPractice/LN72.jpg","83","","","","test","true","N + M","83","","LN","LN72.jpg","remember","old","18","2","practice_forget","left","","","",""
"html-keyboard-response","52","171605","0.0-3.0-3.0-3.1","0784glpe217a2v2","practice_cue","5ee37ccb16ad19000c16585e","5f60e3c0a3b16e07647b2ff9","5f63259a03747427248fc89f","false","null","<div style=""align-items: center; display: flex; color: dodgerblue; font-size: 90px""><b>o</b></div>","null","","","","forget_cue","","","","","","","","","","","","","","","",""
"html-keyboard-response","53","172307","0.0-3.0-3.0-0.2","0784glpe217a2v2","practice_cue","5ee37ccb16ad19000c16585e","5f60e3c0a3b16e07647b2ff9","5f63259a03747427248fc89f","false","null","<span style=""color: black; font-size: 48px"">N + M</span>","null","","","","resp_prompt","","","","","","","","","","","","","","","",""
"categorize-image","54","173146","0.0-3.0-3.0-1.2","0784glpe217a2v2","practice_cue","5ee37ccb16ad19000c16585e","5f60e3c0a3b16e07647b2ff9","5f63259a03747427248fc89f","true","835.4749999998603","./Stimuli/ImagesPractice/SM61.jpg","76","","","","test","true","N + M","76","","SM","SM61.jpg","forget","old","19","2","practice_forget","right","","","",""
"html-keyboard-response","55","175146","0.0-3.0-3.0-3.2","0784glpe217a2v2","practice_cue","5ee37ccb16ad19000c16585e","5f60e3c0a3b16e07647b2ff9","5f63259a03747427248fc89f","false","null","<div style=""align-items: center; display: flex; color: darkorange; font-size: 90px""><b>ø</b></div>","null","","","","forget_cue","","","","","","","","","","","","","","","",""
"html-keyboard-response","56","175847","0.0-3.0-3.0-0.3","0784glpe217a2v2","practice_cue","5ee37ccb16ad19000c16585e","5f60e3c0a3b16e07647b2ff9","5f63259a03747427248fc89f","false","null","<span style=""color: black; font-size: 48px"">N + M</span>","null","","","","resp_prompt","","","","","","","","","","","","","","","",""
"categorize-image","57","176803","0.0-3.0-3.0-1.3","0784glpe217a2v2","practice_cue","5ee37ccb16ad19000c16585e","5f60e3c0a3b16e07647b2ff9","5f63259a03747427248fc89f","true","952.8950000003679","./Stimuli/ImagesPractice/SN205.jpg","83","","","","test","true","N + M","83","","SN","SN205.jpg","remember","old","20","2","practice_forget","left","","","",""
"html-keyboard-response","58","178804","0.0-3.0-3.0-3.3","0784glpe217a2v2","practice_cue","5ee37ccb16ad19000c16585e","5f60e3c0a3b16e07647b2ff9","5f63259a03747427248fc89f","false","null","<div style=""align-items: center; display: flex; color: dodgerblue; font-size: 90px""><b>o</b></div>","null","","","","forget_cue","","","","","","","","","","","","","","","",""
"html-keyboard-response","59","179505","0.0-3.0-3.0-0.4","0784glpe217a2v2","practice_cue","5ee37ccb16ad19000c16585e","5f60e3c0a3b16e07647b2ff9","5f63259a03747427248fc89f","false","null","<span style=""color: black; font-size: 48px"">N + M</span>","null","","","","resp_prompt","","","","","","","","","","","","","","","",""
"categorize-image","60","180639","0.0-3.0-3.0-1.4","0784glpe217a2v2","practice_cue","5ee37ccb16ad19000c16585e","5f60e3c0a3b16e07647b2ff9","5f63259a03747427248fc89f","true","1130.3550000002142","./Stimuli/ImagesPractice/LN109.jpg","83","","","","test","true","N + M","83","","LN","LN109.jpg","remember","old","21","2","practice_forget","left","","","",""
"html-keyboard-response","61","182640","0.0-3.0-3.0-3.4","0784glpe217a2v2","practice_cue","5ee37ccb16ad19000c16585e","5f60e3c0a3b16e07647b2ff9","5f63259a03747427248fc89f","false","null","<div style=""align-items: center; display: flex; color: dodgerblue; font-size: 90px""><b>o</b></div>","null","","","","forget_cue","","","","","","","","","","","","","","","",""
"html-keyboard-response","62","183340","0.0-3.0-3.0-0.5","0784glpe217a2v2","practice_cue","5ee37ccb16ad19000c16585e","5f60e3c0a3b16e07647b2ff9","5f63259a03747427248fc89f","false","null","<span style=""color: black; font-size: 48px"">N + M</span>","null","","","","resp_prompt","","","","","","","","","","","","","","","",""
"categorize-image","63","184336","0.0-3.0-3.0-1.5","0784glpe217a2v2","practice_cue","5ee37ccb16ad19000c16585e","5f60e3c0a3b16e07647b2ff9","5f63259a03747427248fc89f","true","992.289999999688","./Stimuli/ImagesPractice/SN75.jpg","83","","","","test","true","N + M","83","","SN","SN75.jpg","forget","old","22","2","practice_forget","left","","","",""
"html-keyboard-response","64","186337","0.0-3.0-3.0-3.5","0784glpe217a2v2","practice_cue","5ee37ccb16ad19000c16585e","5f60e3c0a3b16e07647b2ff9","5f63259a03747427248fc89f","false","null","<div style=""align-items: center; display: flex; color: darkorange; font-size: 90px""><b>ø</b></div>","null","","","","forget_cue","","","","","","","","","","","","","","","",""
"html-keyboard-response","65","187039","0.0-3.0-3.0-0.6","0784glpe217a2v2","practice_cue","5ee37ccb16ad19000c16585e","5f60e3c0a3b16e07647b2ff9","5f63259a03747427248fc89f","false","null","<span style=""color: black; font-size: 48px"">M + N</span>","null","","","","resp_prompt","","","","","","","","","","","","","","","",""
"categorize-image","66","188744","0.0-3.0-3.0-1.6","0784glpe217a2v2","practice_cue","5ee37ccb16ad19000c16585e","5f60e3c0a3b16e07647b2ff9","5f63259a03747427248fc89f","true","1702.9250000000466","./Stimuli/ImagesPractice/SM37.jpg","76","","","","test","false","M + N","83","","SM","SM37.jpg","remember","old","23","2","practice_forget","right","","","",""
"html-keyboard-response","67","189245","0.0-3.0-3.0-2.6-0.6","0784glpe217a2v2","practice_cue","5ee37ccb16ad19000c16585e","5f60e3c0a3b16e07647b2ff9","5f63259a03747427248fc89f","false","null","<span style=""color: red; font-size: 48px"">Error!</span>","null","","","","feedback","","","","","","","","","","","","","","","",""
"html-keyboard-response","68","191246","0.0-3.0-3.0-3.6","0784glpe217a2v2","practice_cue","5ee37ccb16ad19000c16585e","5f60e3c0a3b16e07647b2ff9","5f63259a03747427248fc89f","false","null","<div style=""align-items: center; display: flex; color: dodgerblue; font-size: 90px""><b>o</b></div>","null","","","","forget_cue","","","","","","","","","","","","","","","",""
"html-keyboard-response","69","191947","0.0-3.0-3.0-0.7","0784glpe217a2v2","practice_cue","5ee37ccb16ad19000c16585e","5f60e3c0a3b16e07647b2ff9","5f63259a03747427248fc89f","false","null","<span style=""color: black; font-size: 48px"">N + M</span>","null","","","","resp_prompt","","","","","","","","","","","","","","","",""
"categorize-image","70","192741","0.0-3.0-3.0-1.7","0784glpe217a2v2","practice_cue","5ee37ccb16ad19000c16585e","5f60e3c0a3b16e07647b2ff9","5f63259a03747427248fc89f","true","790.8849999998638","./Stimuli/ImagesPractice/LN15.jpg","83","","","","test","true","N + M","83","","LN","LN15.jpg","forget","old","24","2","practice_forget","left","","","",""
"html-keyboard-response","71","194742","0.0-3.0-3.0-3.7","0784glpe217a2v2","practice_cue","5ee37ccb16ad19000c16585e","5f60e3c0a3b16e07647b2ff9","5f63259a03747427248fc89f","false","null","<div style=""align-items: center; display: flex; color: darkorange; font-size: 90px""><b>ø</b></div>","null","","","","forget_cue","","","","","","","","","","","","","","","",""
"html-keyboard-response","72","195443","0.0-3.0-3.0-0.8","0784glpe217a2v2","practice_cue","5ee37ccb16ad19000c16585e","5f60e3c0a3b16e07647b2ff9","5f63259a03747427248fc89f","false","null","<span style=""color: black; font-size: 48px"">M + N</span>","null","","","","resp_prompt","","","","","","","","","","","","","","","",""
"categorize-image","73","196540","0.0-3.0-3.0-1.8","0784glpe217a2v2","practice_cue","5ee37ccb16ad19000c16585e","5f60e3c0a3b16e07647b2ff9","5f63259a03747427248fc89f","true","1092.6999999996915","./Stimuli/ImagesPractice/SN220.jpg","76","","","","test","true","M + N","76","","SN","SN220.jpg","remember","old","25","2","practice_forget","right","","","",""
"html-keyboard-response","74","198541","0.0-3.0-3.0-3.8","0784glpe217a2v2","practice_cue","5ee37ccb16ad19000c16585e","5f60e3c0a3b16e07647b2ff9","5f63259a03747427248fc89f","false","null","<div style=""align-items: center; display: flex; color: dodgerblue; font-size: 90px""><b>o</b></div>","null","","","","forget_cue","","","","","","","","","","","","","","","",""
"html-keyboard-response","75","199243","0.0-3.0-3.0-0.9","0784glpe217a2v2","practice_cue","5ee37ccb16ad19000c16585e","5f60e3c0a3b16e07647b2ff9","5f63259a03747427248fc89f","false","null","<span style=""color: black; font-size: 48px"">N + M</span>","null","","","","resp_prompt","","","","","","","","","","","","","","","",""
"categorize-image","76","200038","0.0-3.0-3.0-1.9","0784glpe217a2v2","practice_cue","5ee37ccb16ad19000c16585e","5f60e3c0a3b16e07647b2ff9","5f63259a03747427248fc89f","true","792.9199999998673","./Stimuli/ImagesPractice/SM98.jpg","76","","","","test","true","N + M","76","","SM","SM98.jpg","forget","old","26","2","practice_forget","right","","","",""
"html-keyboard-response","77","202039","0.0-3.0-3.0-3.9","0784glpe217a2v2","practice_cue","5ee37ccb16ad19000c16585e","5f60e3c0a3b16e07647b2ff9","5f63259a03747427248fc89f","false","null","<div style=""align-items: center; display: flex; color: darkorange; font-size: 90px""><b>ø</b></div>","null","","","","forget_cue","","","","","","","","","","","","","","","",""
"html-keyboard-response","78","202740","0.0-3.0-3.0-0.10","0784glpe217a2v2","practice_cue","5ee37ccb16ad19000c16585e","5f60e3c0a3b16e07647b2ff9","5f63259a03747427248fc89f","false","null","<span style=""color: black; font-size: 48px"">M + N</span>","null","","","","resp_prompt","","","","","","","","","","","","","","","",""
"categorize-image","79","203412","0.0-3.0-3.0-1.10","0784glpe217a2v2","practice_cue","5ee37ccb16ad19000c16585e","5f60e3c0a3b16e07647b2ff9","5f63259a03747427248fc89f","true","668.035000000149","./Stimuli/ImagesPractice/SM62.jpg","83","","","","test","true","M + N","83","","SM","SM62.jpg","forget","old","27","2","practice_forget","left","","","",""
"html-keyboard-response","80","205413","0.0-3.0-3.0-3.10","0784glpe217a2v2","practice_cue","5ee37ccb16ad19000c16585e","5f60e3c0a3b16e07647b2ff9","5f63259a03747427248fc89f","false","null","<div style=""align-items: center; display: flex; color: darkorange; font-size: 90px""><b>ø</b></div>","null","","","","forget_cue","","","","","","","","","","","","","","","",""
"html-keyboard-response","81","206114","0.0-3.0-3.0-0.11","0784glpe217a2v2","practice_cue","5ee37ccb16ad19000c16585e","5f60e3c0a3b16e07647b2ff9","5f63259a03747427248fc89f","false","null","<span style=""color: black; font-size: 48px"">M + N</span>","null","","","","resp_prompt","","","","","","","","","","","","","","","",""
"categorize-image","82","206958","0.0-3.0-3.0-1.11","0784glpe217a2v2","practice_cue","5ee37ccb16ad19000c16585e","5f60e3c0a3b16e07647b2ff9","5f63259a03747427248fc89f","true","840.3900000002759","./Stimuli/ImagesPractice/LN2.jpg","76","","","","test","true","M + N","76","","LN","LN2.jpg","forget","old","28","2","practice_forget","right","","","",""
"html-keyboard-response","83","208960","0.0-3.0-3.0-3.11","0784glpe217a2v2","practice_cue","5ee37ccb16ad19000c16585e","5f60e3c0a3b16e07647b2ff9","5f63259a03747427248fc89f","false","null","<div style=""align-items: center; display: flex; color: darkorange; font-size: 90px""><b>ø</b></div>","null","","","","forget_cue","","","","","","","","","","","","","","","",""
"html-keyboard-response","84","209661","0.0-3.0-3.0-0.12","0784glpe217a2v2","practice_cue","5ee37ccb16ad19000c16585e","5f60e3c0a3b16e07647b2ff9","5f63259a03747427248fc89f","false","null","<span style=""color: black; font-size: 48px"">M + N</span>","null","","","","resp_prompt","","","","","","","","","","","","","","","",""
"categorize-image","85","210473","0.0-3.0-3.0-1.12","0784glpe217a2v2","practice_cue","5ee37ccb16ad19000c16585e","5f60e3c0a3b16e07647b2ff9","5f63259a03747427248fc89f","true","808.5599999999686","./Stimuli/ImagesPractice/LM55.jpg","83","","","","test","true","M + N","83","","LM","LM55.jpg","forget","old","29","2","practice_forget","left","","","",""
"html-keyboard-response","86","212474","0.0-3.0-3.0-3.12","0784glpe217a2v2","practice_cue","5ee37ccb16ad19000c16585e","5f60e3c0a3b16e07647b2ff9","5f63259a03747427248fc89f","false","null","<div style=""align-items: center; display: flex; color: darkorange; font-size: 90px""><b>ø</b></div>","null","","","","forget_cue","","","","","","","","","","","","","","","",""
"html-keyboard-response","87","213175","0.0-3.0-3.0-0.13","0784glpe217a2v2","practice_cue","5ee37ccb16ad19000c16585e","5f60e3c0a3b16e07647b2ff9","5f63259a03747427248fc89f","false","null","<span style=""color: black; font-size: 48px"">M + N</span>","null","","","","resp_prompt","","","","","","","","","","","","","","","",""
"categorize-image","88","214027","0.0-3.0-3.0-1.13","0784glpe217a2v2","practice_cue","5ee37ccb16ad19000c16585e","5f60e3c0a3b16e07647b2ff9","5f63259a03747427248fc89f","true","849.4449999998324","./Stimuli/ImagesPractice/LM143.jpg","83","","","","test","true","M + N","83","","LM","LM143.jpg","remember","old","30","2","practice_forget","left","","","",""
"html-keyboard-response","89","216028","0.0-3.0-3.0-3.13","0784glpe217a2v2","practice_cue","5ee37ccb16ad19000c16585e","5f60e3c0a3b16e07647b2ff9","5f63259a03747427248fc89f","false","null","<div style=""align-items: center; display: flex; color: dodgerblue; font-size: 90px""><b>o</b></div>","null","","","","forget_cue","","","","","","","","","","","","","","","",""
"html-keyboard-response","90","216729","0.0-3.0-3.0-0.14","0784glpe217a2v2","practice_cue","5ee37ccb16ad19000c16585e","5f60e3c0a3b16e07647b2ff9","5f63259a03747427248fc89f","false","null","<span style=""color: black; font-size: 48px"">N + M</span>","null","","","","resp_prompt","","","","","","","","","","","","","","","",""
"categorize-image","91","217444","0.0-3.0-3.0-1.14","0784glpe217a2v2","practice_cue","5ee37ccb16ad19000c16585e","5f60e3c0a3b16e07647b2ff9","5f63259a03747427248fc89f","true","710.6599999997416","./Stimuli/ImagesPractice/LM230.jpg","76","","","","test","true","N + M","76","","LM","LM230.jpg","remember","old","31","2","practice_forget","right","","","",""
"html-keyboard-response","92","219445","0.0-3.0-3.0-3.14","0784glpe217a2v2","practice_cue","5ee37ccb16ad19000c16585e","5f60e3c0a3b16e07647b2ff9","5f63259a03747427248fc89f","false","null","<div style=""align-items: center; display: flex; color: dodgerblue; font-size: 90px""><b>o</b></div>","null","","","","forget_cue","","","","","","","","","","","","","","","",""
"html-keyboard-response","93","220146","0.0-3.0-3.0-0.15","0784glpe217a2v2","practice_cue","5ee37ccb16ad19000c16585e","5f60e3c0a3b16e07647b2ff9","5f63259a03747427248fc89f","false","null","<span style=""color: black; font-size: 48px"">M + N</span>","null","","","","resp_prompt","","","","","","","","","","","","","","","",""
"categorize-image","94","221033","0.0-3.0-3.0-1.15","0784glpe217a2v2","practice_cue","5ee37ccb16ad19000c16585e","5f60e3c0a3b16e07647b2ff9","5f63259a03747427248fc89f","true","884.0300000001735","./Stimuli/ImagesPractice/SN221.jpg","76","","","","test","true","M + N","76","","SN","SN221.jpg","remember","old","32","2","practice_forget","right","","","",""
"html-keyboard-response","95","223034","0.0-3.0-3.0-3.15","0784glpe217a2v2","practice_cue","5ee37ccb16ad19000c16585e","5f60e3c0a3b16e07647b2ff9","5f63259a03747427248fc89f","false","null","<div style=""align-items: center; display: flex; color: dodgerblue; font-size: 90px""><b>o</b></div>","null","","","","forget_cue","","","","","","","","","","","","","","","",""
"html-keyboard-response","96","225024","0.0-3.0-4.0","0784glpe217a2v2","break","5ee37ccb16ad19000c16585e","5f60e3c0a3b16e07647b2ff9","5f63259a03747427248fc89f","false","1988.9350000003178","<p style='font-size: 32px;'>Break</><br><br><br><br><br><p style='font-size: 24px;'>In the last block, you committed 1 errors and did not respond in time on 0 trials.
</p><p style='font-size: 24px;'>Try to respond as fast and accurately as possible in the next block as well! </p><p style='font-size: 24px;'>Press SPACE to continue.</p>","32","","","","","","","","","","","","","","","","","","","",""
"html-keyboard-response","97","233712","0.0-3.0-5.0","0784glpe217a2v2","instructions","5ee37ccb16ad19000c16585e","5f60e3c0a3b16e07647b2ff9","5f63259a03747427248fc89f","false","8687.695000000065","<div align=left> Now, to practice, we kindly ask you to remember as many of the to-be-remembered pictures<br>of the previous learning phase as possible.<br><br>The pictures you were instructed to remember were the pictures followed by a <span style='color: dodgerblue; font-size: 28px'>O</span>.<br><br>In this memory test phase, you will also see some new pictures.<br>It is your task to remember whether you were presented with this specific picture in this study so far or not.<br>If you recognize an object (you have already seen it in this study), it is an OLD object. <br>If you do not recognize an object (you have NOT seen it in this study), it is a NEW object. <br><strong> Attention</strong>: As already mentioned, <span style='color: darkorange; font-size:28px'>Ø</span>-pictures will <strong>never</strong> appear in this memory test (neither as new objects). <br><br>Press SPACE to continue. </div>","32","","","","","","","","","","","","","","","","","","","",""
"html-keyboard-response","98","242403","0.0-3.0-6.0","0784glpe217a2v2","instructions","5ee37ccb16ad19000c16585e","5f60e3c0a3b16e07647b2ff9","5f63259a03747427248fc89f","false","8690.364999999932","<div align=left> M and N no longer will appear on the left/right of the fixation cross. <br>Instead there will be a note at the bottom of the left or right side  <br>indicating which key you should press for an old or new object:  <br> <br>Press the <strong>right</strong> key to classify an object as <strong>old</strong> and press the <strong>left</strong>, to classify an object as <strong>new</strong>.<br>Please classify the objects as new/old by again placing your index finger on the 'S' and 'L' keys <br>and press them accordingly.<br><br><strong>Old:</strong> This object has been presented before. <br><strong>New:</strong> This object has <strong>not</strong> been presented.<br><br>Now please put your right and left index fingers on the 'S' and 'L' keys of your keyboard. <br>Please respond as fast and as accurately as possible!<br><br>Press SPACE to continue. </div>","32","","","","","","","","","","","","","","","","","","","",""
"categorize-image","99","245595","0.0-3.0-7.0-0.0","0784glpe217a2v2","practice_recog","5ee37ccb16ad19000c16585e","5f60e3c0a3b16e07647b2ff9","5f63259a03747427248fc89f","true","2689.8999999998487","./Stimuli/ImagesPractice/SN76.jpg","76","","","","test","true","","76","","SN","SN76.jpg","","new","33","3","practice_recog","right","","","",""
"categorize-image","100","247136","0.0-3.0-7.0-0.1","0784glpe217a2v2","practice_recog","5ee37ccb16ad19000c16585e","5f60e3c0a3b16e07647b2ff9","5f63259a03747427248fc89f","true","1039.3349999999336","./Stimuli/ImagesPractice/SN220.jpg","83","","","","test","true","","83","","SN","SN220.jpg","","old","34","3","practice_recog","left","","","",""
"categorize-image","101","248539","0.0-3.0-7.0-0.2","0784glpe217a2v2","practice_recog","5ee37ccb16ad19000c16585e","5f60e3c0a3b16e07647b2ff9","5f63259a03747427248fc89f","true","901.6349999997183","./Stimuli/ImagesPractice/LM224.jpg","76","","","","test","true","","76","","LM","LM224.jpg","","new","35","3","practice_recog","right","","","",""
"categorize-image","102","249780","0.0-3.0-7.0-0.3","0784glpe217a2v2","practice_recog","5ee37ccb16ad19000c16585e","5f60e3c0a3b16e07647b2ff9","5f63259a03747427248fc89f","true","737.8149999999732","./Stimuli/ImagesPractice/LM143.jpg","83","","","","test","true","","83","","LM","LM143.jpg","","old","36","3","practice_recog","left","","","",""
"categorize-image","103","251675","0.0-3.0-7.0-0.4","0784glpe217a2v2","practice_recog","5ee37ccb16ad19000c16585e","5f60e3c0a3b16e07647b2ff9","5f63259a03747427248fc89f","true","1392.7399999997579","./Stimuli/ImagesPractice/SN205.jpg","83","","","","test","true","","83","","SN","SN205.jpg","","old","37","3","practice_recog","left","","","",""
"categorize-image","104","252961","0.0-3.0-7.0-0.5","0784glpe217a2v2","practice_recog","5ee37ccb16ad19000c16585e","5f60e3c0a3b16e07647b2ff9","5f63259a03747427248fc89f","true","784.9599999999627","./Stimuli/ImagesPractice/SM97.jpg","76","","","","test","true","","76","","SM","SM97.jpg","","new","38","3","practice_recog","right","","","",""
"categorize-image","105","254351","0.0-3.0-7.0-0.6","0784glpe217a2v2","practice_recog","5ee37ccb16ad19000c16585e","5f60e3c0a3b16e07647b2ff9","5f63259a03747427248fc89f","true","889.7799999999697","./Stimuli/ImagesPractice/LM239.jpg","76","","","","test","true","","76","","LM","LM239.jpg","","new","39","3","practice_recog","right","","","",""
"categorize-image","106","255674","0.0-3.0-7.0-0.7","0784glpe217a2v2","practice_recog","5ee37ccb16ad19000c16585e","5f60e3c0a3b16e07647b2ff9","5f63259a03747427248fc89f","true","821.4849999999278","./Stimuli/ImagesPractice/LN4.jpg","76","","","","test","true","","76","","LN","LN4.jpg","","new","40","3","practice_recog","right","","","",""
"categorize-image","107","256950","0.0-3.0-7.0-0.8","0784glpe217a2v2","practice_recog","5ee37ccb16ad19000c16585e","5f60e3c0a3b16e07647b2ff9","5f63259a03747427248fc89f","true","775.084999999759","./Stimuli/ImagesPractice/LM230.jpg","83","","","","test","true","","83","","LM","LM230.jpg","","old","41","3","practice_recog","left","","","",""
"categorize-image","108","258865","0.0-3.0-7.0-0.9","0784glpe217a2v2","practice_recog","5ee37ccb16ad19000c16585e","5f60e3c0a3b16e07647b2ff9","5f63259a03747427248fc89f","true","1414.5450000001001","./Stimuli/ImagesPractice/SN222.jpg","76","","","","test","true","","76","","SN","SN222.jpg","","new","42","3","practice_recog","right","","","",""
"categorize-image","109","260306","0.0-3.0-7.0-0.10","0784glpe217a2v2","practice_recog","5ee37ccb16ad19000c16585e","5f60e3c0a3b16e07647b2ff9","5f63259a03747427248fc89f","true","938.844999999681","./Stimuli/ImagesPractice/LN17.jpg","76","","","","test","true","","76","","LN","LN17.jpg","","new","43","3","practice_recog","right","","","",""
"categorize-image","110","261596","0.0-3.0-7.0-0.11","0784glpe217a2v2","practice_recog","5ee37ccb16ad19000c16585e","5f60e3c0a3b16e07647b2ff9","5f63259a03747427248fc89f","true","789.4599999999627","./Stimuli/ImagesPractice/LN109.jpg","83","","","","test","true","","83","","LN","LN109.jpg","","old","44","3","practice_recog","left","","","",""
"categorize-image","111","263046","0.0-3.0-7.0-0.12","0784glpe217a2v2","practice_recog","5ee37ccb16ad19000c16585e","5f60e3c0a3b16e07647b2ff9","5f63259a03747427248fc89f","true","948.8650000002817","./Stimuli/ImagesPractice/LN72.jpg","83","","","","test","true","","83","","LN","LN72.jpg","","old","45","3","practice_recog","left","","","",""
"categorize-image","112","264293","0.0-3.0-7.0-0.13","0784glpe217a2v2","practice_recog","5ee37ccb16ad19000c16585e","5f60e3c0a3b16e07647b2ff9","5f63259a03747427248fc89f","true","745.7950000002747","./Stimuli/ImagesPractice/SM37.jpg","83","","","","test","true","","83","","SM","SM37.jpg","","old","46","3","practice_recog","left","","","",""
"categorize-image","113","265518","0.0-3.0-7.0-0.14","0784glpe217a2v2","practice_recog","5ee37ccb16ad19000c16585e","5f60e3c0a3b16e07647b2ff9","5f63259a03747427248fc89f","true","723.4199999998091","./Stimuli/ImagesPractice/LM147.jpg","76","","","","test","true","","76","","LM","LM147.jpg","","new","47","3","practice_recog","right","","","",""
"categorize-image","114","266782","0.0-3.0-7.0-0.15","0784glpe217a2v2","practice_recog","5ee37ccb16ad19000c16585e","5f60e3c0a3b16e07647b2ff9","5f63259a03747427248fc89f","true","762.8250000002445","./Stimuli/ImagesPractice/SN221.jpg","83","","","","test","true","","83","","SN","SN221.jpg","","old","48","3","practice_recog","left","","","",""
"html-keyboard-response","115","271291","0.0-3.0-8.0","0784glpe217a2v2","instructions","5ee37ccb16ad19000c16585e","5f60e3c0a3b16e07647b2ff9","5f63259a03747427248fc89f","false","4509.054999999993","<div align=left> Great!<br><br>Are you ready to continue?<br>If you want to reread the instructions and redo the practice trials, please <br>press „Z“.<br><br>You can proceed when you are ready.<br><br>After the presentation of each object, you will receive an instruction whether to <br>remember or to forget the object.<br>We will test your memory of the following pictures only at the very end of <br>the experiment after all learning blocks are completed. <br><br>Press SPACE to CONTINUE when you are ready. </div>","32","","","","","","","","","","","","","","","","","","","",""
"html-keyboard-response","116","275038","0.0-4.0-0.0","0784glpe217a2v2","instructions","5ee37ccb16ad19000c16585e","5f60e3c0a3b16e07647b2ff9","5f63259a03747427248fc89f","false","3745.854999999632","<div align=left> The actual experiment is about to start.<br>The practice trials are over!<br><br>Please always respond both fast and accurately!<br><br>Remember: <br> <br><li> Please place your index fingers on the <strong>'S'</strong> and <strong>'L'</strong> keys <br>to respond as fast and accurately as possible.</li><li> Every picture can be classified as either mechanical or non-mechanical.</li><li> If you do not respond in time or commit an error, you will receive a corresponding feedback.<br> Please try to respond as <strong> fast </strong> and as <strong> accurately as possible </strong>.</li><li> Remember the <span style='color: dodgerblue; font-size: 28px'>O</span> pictures. <br></li><li> Please minimize distractions and stay focused. </li><br><br>Press SPACE to START.</div>","32","","","","","","","","","","","","","","","","","","","",""
"html-keyboard-response","117","275738","0.0-4.0-1.0-0.0","0784glpe217a2v2","prime","5ee37ccb16ad19000c16585e","5f60e3c0a3b16e07647b2ff9","5f63259a03747427248fc89f","false","null","<span style=""color: black; font-size: 48px"">M + N</span>","null","","","","resp_prompt","","","","","","","","","","","","","","","",""
"categorize-image","118","277079","0.0-4.0-1.0-1.0","0784glpe217a2v2","prime","5ee37ccb16ad19000c16585e","5f60e3c0a3b16e07647b2ff9","5f63259a03747427248fc89f","true","1338.9799999999814","./Stimuli/SelectedImages/SM/SM78.bmp","83","","","","test","true","M + N","83","switch","SM","SM78.bmp","remember","","49","3","prime1","left","","","",""
"html-keyboard-response","119","279081","0.0-4.0-1.0-3.0","0784glpe217a2v2","prime","5ee37ccb16ad19000c16585e","5f60e3c0a3b16e07647b2ff9","5f63259a03747427248fc89f","false","null","<div style=""align-items: center; display: flex; color: dodgerblue; font-size: 90px""><b>o</b></div>","null","","","","forget_cue","","","","","","","","","","","","","","","",""
"html-keyboard-response","120","279782","0.0-4.0-1.0-0.1","0784glpe217a2v2","prime","5ee37ccb16ad19000c16585e","5f60e3c0a3b16e07647b2ff9","5f63259a03747427248fc89f","false","null","<span style=""color: black; font-size: 48px"">N + M</span>","null","","","","resp_prompt","","","","","","","","","","","","","","","",""
"categorize-image","121","280803","0.0-4.0-1.0-1.1","0784glpe217a2v2","prime","5ee37ccb16ad19000c16585e","5f60e3c0a3b16e07647b2ff9","5f63259a03747427248fc89f","true","1017.3399999999092","./Stimuli/SelectedImages/LM/LM167.bmp","76","","","","test","true","N + M","76","repetition","LM","LM167.bmp","remember","","50","3","prime1","right","","","",""
"html-keyboard-response","122","282804","0.0-4.0-1.0-3.1","0784glpe217a2v2","prime","5ee37ccb16ad19000c16585e","5f60e3c0a3b16e07647b2ff9","5f63259a03747427248fc89f","false","null","<div style=""align-items: center; display: flex; color: dodgerblue; font-size: 90px""><b>o</b></div>","null","","","","forget_cue","","","","","","","","","","","","","","","",""
"html-keyboard-response","123","283505","0.0-4.0-1.0-0.2","0784glpe217a2v2","prime","5ee37ccb16ad19000c16585e","5f60e3c0a3b16e07647b2ff9","5f63259a03747427248fc89f","false","null","<span style=""color: black; font-size: 48px"">N + M</span>","null","","","","resp_prompt","","","","","","","","","","","","","","","",""
"categorize-image","124","284426","0.0-4.0-1.0-1.2","0784glpe217a2v2","prime","5ee37ccb16ad19000c16585e","5f60e3c0a3b16e07647b2ff9","5f63259a03747427248fc89f","true","918.875000000291","./Stimuli/SelectedImages/LN/LN128.bmp","83","","","","test","true","N + M","83","switch","LN","LN128.bmp","forget","","51","3","prime1","left","","","",""
"html-keyboard-response","125","286427","0.0-4.0-1.0-3.2","0784glpe217a2v2","prime","5ee37ccb16ad19000c16585e","5f60e3c0a3b16e07647b2ff9","5f63259a03747427248fc89f","false","null","<div style=""align-items: center; display: flex; color: darkorange; font-size: 90px""><b>ø</b></div>","null","","","","forget_cue","","","","","","","","","","","","","","","",""
"html-keyboard-response","126","287129","0.0-4.0-1.0-0.3","0784glpe217a2v2","prime","5ee37ccb16ad19000c16585e","5f60e3c0a3b16e07647b2ff9","5f63259a03747427248fc89f","false","null","<span style=""color: black; font-size: 48px"">M + N</span>","null","","","","resp_prompt","","","","","","","","","","","","","","","",""
"categorize-image","127","288587","0.0-4.0-1.0-1.3","0784glpe217a2v2","prime","5ee37ccb16ad19000c16585e","5f60e3c0a3b16e07647b2ff9","5f63259a03747427248fc89f","true","1456.3499999999185","./Stimuli/SelectedImages/LM/LM157.bmp","83","","","","test","true","M + N","83","repetition","LM","LM157.bmp","forget","","52","3","prime1","left","","","",""
"html-keyboard-response","128","290588","0.0-4.0-1.0-3.3","0784glpe217a2v2","prime","5ee37ccb16ad19000c16585e","5f60e3c0a3b16e07647b2ff9","5f63259a03747427248fc89f","false","null","<div style=""align-items: center; display: flex; color: darkorange; font-size: 90px""><b>ø</b></div>","null","","","","forget_cue","","","","","","","","","","","","","","","",""
"html-keyboard-response","129","291288","0.0-4.0-1.0-0.4","0784glpe217a2v2","prime","5ee37ccb16ad19000c16585e","5f60e3c0a3b16e07647b2ff9","5f63259a03747427248fc89f","false","null","<span style=""color: black; font-size: 48px"">M + N</span>","null","","","","resp_prompt","","","","","","","","","","","","","","","",""
"categorize-image","130","292389","0.0-4.0-1.0-1.4","0784glpe217a2v2","prime","5ee37ccb16ad19000c16585e","5f60e3c0a3b16e07647b2ff9","5f63259a03747427248fc89f","true","1097.8399999999092","./Stimuli/SelectedImages/LM/LM75.bmp","83","","","","test","true","M + N","83","repetition","LM","LM75.bmp","remember","","53","3","prime1","left","","","",""
"html-keyboard-response","131","294390","0.0-4.0-1.0-3.4","0784glpe217a2v2","prime","5ee37ccb16ad19000c16585e","5f60e3c0a3b16e07647b2ff9","5f63259a03747427248fc89f","false","null","<div style=""align-items: center; display: flex; color: dodgerblue; font-size: 90px""><b>o</b></div>","null","","","","forget_cue","","","","","","","","","","","","","","","",""
"html-keyboard-response","132","295092","0.0-4.0-1.0-0.5","0784glpe217a2v2","prime","5ee37ccb16ad19000c16585e","5f60e3c0a3b16e07647b2ff9","5f63259a03747427248fc89f","false","null","<span style=""color: black; font-size: 48px"">M + N</span>","null","","","","resp_prompt","","","","","","","","","","","","","","","",""
"categorize-image","133","295985","0.0-4.0-1.0-1.5","0784glpe217a2v2","prime","5ee37ccb16ad19000c16585e","5f60e3c0a3b16e07647b2ff9","5f63259a03747427248fc89f","true","891.8350000003702","./Stimuli/SelectedImages/SM/SM128.bmp","83","","","","test","true","M + N","83","repetition","SM","SM128.bmp","forget","","54","3","prime1","left","","","",""
"html-keyboard-response","134","297987","0.0-4.0-1.0-3.5","0784glpe217a2v2","prime","5ee37ccb16ad19000c16585e","5f60e3c0a3b16e07647b2ff9","5f63259a03747427248fc89f","false","null","<div style=""align-items: center; display: flex; color: darkorange; font-size: 90px""><b>ø</b></div>","null","","","","forget_cue","","","","","","","","","","","","","","","",""
"html-keyboard-response","135","298688","0.0-4.0-1.0-0.6","0784glpe217a2v2","prime","5ee37ccb16ad19000c16585e","5f60e3c0a3b16e07647b2ff9","5f63259a03747427248fc89f","false","null","<span style=""color: black; font-size: 48px"">M + N</span>","null","","","","resp_prompt","","","","","","","","","","","","","","","",""
"categorize-image","136","299546","0.0-4.0-1.0-1.6","0784glpe217a2v2","prime","5ee37ccb16ad19000c16585e","5f60e3c0a3b16e07647b2ff9","5f63259a03747427248fc89f","true","854.3600000002771","./Stimuli/SelectedImages/LM/LM150.bmp","83","","","","test","true","M + N","83","repetition","LM","LM150.bmp","remember","","55","3","prime1","left","","","",""
"html-keyboard-response","137","301546","0.0-4.0-1.0-3.6","0784glpe217a2v2","prime","5ee37ccb16ad19000c16585e","5f60e3c0a3b16e07647b2ff9","5f63259a03747427248fc89f","false","null","<div style=""align-items: center; display: flex; color: dodgerblue; font-size: 90px""><b>o</b></div>","null","","","","forget_cue","","","","","","","","","","","","","","","",""
"html-keyboard-response","138","302248","0.0-4.0-1.0-0.7","0784glpe217a2v2","prime","5ee37ccb16ad19000c16585e","5f60e3c0a3b16e07647b2ff9","5f63259a03747427248fc89f","false","null","<span style=""color: black; font-size: 48px"">M + N</span>","null","","","","resp_prompt","","","","","","","","","","","","","","","",""
"categorize-image","139","302914","0.0-4.0-1.0-1.7","0784glpe217a2v2","prime","5ee37ccb16ad19000c16585e","5f60e3c0a3b16e07647b2ff9","5f63259a03747427248fc89f","true","662.8699999996461","./Stimuli/SelectedImages/LN/LN111.bmp","76","","","","test","true","M + N","76","repetition","LN","LN111.bmp","forget","","56","3","prime1","right","","","",""
"html-keyboard-response","140","304915","0.0-4.0-1.0-3.7","0784glpe217a2v2","prime","5ee37ccb16ad19000c16585e","5f60e3c0a3b16e07647b2ff9","5f63259a03747427248fc89f","false","null","<div style=""align-items: center; display: flex; color: darkorange; font-size: 90px""><b>ø</b></div>","null","","","","forget_cue","","","","","","","","","","","","","","","",""
"html-keyboard-response","141","305616","0.0-4.0-1.0-0.8","0784glpe217a2v2","prime","5ee37ccb16ad19000c16585e","5f60e3c0a3b16e07647b2ff9","5f63259a03747427248fc89f","false","null","<span style=""color: black; font-size: 48px"">M + N</span>","null","","","","resp_prompt","","","","","","","","","","","","","","","",""
"categorize-image","142","306772","0.0-4.0-1.0-1.8","0784glpe217a2v2","prime","5ee37ccb16ad19000c16585e","5f60e3c0a3b16e07647b2ff9","5f63259a03747427248fc89f","true","1153.049999999872","./Stimuli/SelectedImages/SM/SM205.bmp","83","","","","test","true","M + N","83","switch","SM","SM205.bmp","remember","","57","3","prime1","left","","","",""
"html-keyboard-response","143","308774","0.0-4.0-1.0-3.8","0784glpe217a2v2","prime","5ee37ccb16ad19000c16585e","5f60e3c0a3b16e07647b2ff9","5f63259a03747427248fc89f","false","null","<div style=""align-items: center; display: flex; color: dodgerblue; font-size: 90px""><b>o</b></div>","null","","","","forget_cue","","","","","","","","","","","","","","","",""
"html-keyboard-response","144","309475","0.0-4.0-1.0-0.9","0784glpe217a2v2","prime","5ee37ccb16ad19000c16585e","5f60e3c0a3b16e07647b2ff9","5f63259a03747427248fc89f","false","null","<span style=""color: black; font-size: 48px"">N + M</span>","null","","","","resp_prompt","","","","","","","","","","","","","","","",""
"categorize-image","145","310444","0.0-4.0-1.0-1.9","0784glpe217a2v2","prime","5ee37ccb16ad19000c16585e","5f60e3c0a3b16e07647b2ff9","5f63259a03747427248fc89f","true","966.62000000017","./Stimuli/SelectedImages/SM/SM195.bmp","76","","","","test","true","N + M","76","switch","SM","SM195.bmp","remember","","58","3","prime1","right","","","",""
"html-keyboard-response","146","312445","0.0-4.0-1.0-3.9","0784glpe217a2v2","prime","5ee37ccb16ad19000c16585e","5f60e3c0a3b16e07647b2ff9","5f63259a03747427248fc89f","false","null","<div style=""align-items: center; display: flex; color: dodgerblue; font-size: 90px""><b>o</b></div>","null","","","","forget_cue","","","","","","","","","","","","","","","",""
"html-keyboard-response","147","313145","0.0-4.0-1.0-0.10","0784glpe217a2v2","prime","5ee37ccb16ad19000c16585e","5f60e3c0a3b16e07647b2ff9","5f63259a03747427248fc89f","false","null","<span style=""color: black; font-size: 48px"">M + N</span>","null","","","","resp_prompt","","","","","","","","","","","","","","","",""
"categorize-image","148","314042","0.0-4.0-1.0-1.10","0784glpe217a2v2","prime","5ee37ccb16ad19000c16585e","5f60e3c0a3b16e07647b2ff9","5f63259a03747427248fc89f","true","893.425000000163","./Stimuli/SelectedImages/SN/SN182.bmp","83","","","","test","false","M + N","76","repetition","SN","SN182.bmp","remember","","59","3","prime1","left","","","",""
"html-keyboard-response","149","314543","0.0-4.0-1.0-2.10-0.10","0784glpe217a2v2","prime","5ee37ccb16ad19000c16585e","5f60e3c0a3b16e07647b2ff9","5f63259a03747427248fc89f","false","null","<span style=""color: red; font-size: 48px"">Error!</span>","null","","","","feedback","","","","","","","","","","","","","","","",""
"html-keyboard-response","150","316544","0.0-4.0-1.0-3.10","0784glpe217a2v2","prime","5ee37ccb16ad19000c16585e","5f60e3c0a3b16e07647b2ff9","5f63259a03747427248fc89f","false","null","<div style=""align-items: center; display: flex; color: dodgerblue; font-size: 90px""><b>o</b></div>","null","","","","forget_cue","","","","","","","","","","","","","","","",""
"html-keyboard-response","151","317246","0.0-4.0-1.0-0.11","0784glpe217a2v2","prime","5ee37ccb16ad19000c16585e","5f60e3c0a3b16e07647b2ff9","5f63259a03747427248fc89f","false","null","<span style=""color: black; font-size: 48px"">M + N</span>","null","","","","resp_prompt","","","","","","","","","","","","","","","",""
"categorize-image","152","318652","0.0-4.0-1.0-1.11","0784glpe217a2v2","prime","5ee37ccb16ad19000c16585e","5f60e3c0a3b16e07647b2ff9","5f63259a03747427248fc89f","true","1403.5749999997788","./Stimuli/SelectedImages/LN/LN28.bmp","76","","","","test","true","M + N","76","repetition","LN","LN28.bmp","forget","","60","3","prime1","right","","","",""
"html-keyboard-response","153","320653","0.0-4.0-1.0-3.11","0784glpe217a2v2","prime","5ee37ccb16ad19000c16585e","5f60e3c0a3b16e07647b2ff9","5f63259a03747427248fc89f","false","null","<div style=""align-items: center; display: flex; color: darkorange; font-size: 90px""><b>ø</b></div>","null","","","","forget_cue","","","","","","","","","","","","","","","",""
"html-keyboard-response","154","321354","0.0-4.0-1.0-0.12","0784glpe217a2v2","prime","5ee37ccb16ad19000c16585e","5f60e3c0a3b16e07647b2ff9","5f63259a03747427248fc89f","false","null","<span style=""color: black; font-size: 48px"">M + N</span>","null","","","","resp_prompt","","","","","","","","","","","","","","","",""
"categorize-image","155","322601","0.0-4.0-1.0-1.12","0784glpe217a2v2","prime","5ee37ccb16ad19000c16585e","5f60e3c0a3b16e07647b2ff9","5f63259a03747427248fc89f","true","1243.544999999809","./Stimuli/SelectedImages/LN/LN42.bmp","76","","","","test","true","M + N","76","switch","LN","LN42.bmp","remember","","61","3","prime1","right","","","",""
"html-keyboard-response","156","324602","0.0-4.0-1.0-3.12","0784glpe217a2v2","prime","5ee37ccb16ad19000c16585e","5f60e3c0a3b16e07647b2ff9","5f63259a03747427248fc89f","false","null","<div style=""align-items: center; display: flex; color: dodgerblue; font-size: 90px""><b>o</b></div>","null","","","","forget_cue","","","","","","","","","","","","","","","",""
"html-keyboard-response","157","325303","0.0-4.0-1.0-0.13","0784glpe217a2v2","prime","5ee37ccb16ad19000c16585e","5f60e3c0a3b16e07647b2ff9","5f63259a03747427248fc89f","false","null","<span style=""color: black; font-size: 48px"">N + M</span>","null","","","","resp_prompt","","","","","","","","","","","","","","","",""
"categorize-image","158","327113","0.0-4.0-1.0-1.13","0784glpe217a2v2","prime","5ee37ccb16ad19000c16585e","5f60e3c0a3b16e07647b2ff9","5f63259a03747427248fc89f","true","1808.660000000149","./Stimuli/SelectedImages/LM/LM48.bmp","83","","","","test","false","N + M","76","switch","LM","LM48.bmp","forget","","62","3","prime1","left","","","",""
"html-keyboard-response","159","327615","0.0-4.0-1.0-2.13-0.13","0784glpe217a2v2","prime","5ee37ccb16ad19000c16585e","5f60e3c0a3b16e07647b2ff9","5f63259a03747427248fc89f","false","null","<span style=""color: red; font-size: 48px"">Error!</span>","null","","","","feedback","","","","","","","","","","","","","","","",""
"html-keyboard-response","160","329616","0.0-4.0-1.0-3.13","0784glpe217a2v2","prime","5ee37ccb16ad19000c16585e","5f60e3c0a3b16e07647b2ff9","5f63259a03747427248fc89f","false","null","<div style=""align-items: center; display: flex; color: darkorange; font-size: 90px""><b>ø</b></div>","null","","","","forget_cue","","","","","","","","","","","","","","","",""
"html-keyboard-response","161","330317","0.0-4.0-1.0-0.14","0784glpe217a2v2","prime","5ee37ccb16ad19000c16585e","5f60e3c0a3b16e07647b2ff9","5f63259a03747427248fc89f","false","null","<span style=""color: black; font-size: 48px"">N + M</span>","null","","","","resp_prompt","","","","","","","","","","","","","","","",""
"categorize-image","162","331376","0.0-4.0-1.0-1.14","0784glpe217a2v2","prime","5ee37ccb16ad19000c16585e","5f60e3c0a3b16e07647b2ff9","5f63259a03747427248fc89f","true","1056.1400000001304","./Stimuli/SelectedImages/SM/SM73.bmp","76","","","","test","true","N + M","76","repetition","SM","SM73.bmp","forget","","63","3","prime1","right","","","",""
"html-keyboard-response","163","333377","0.0-4.0-1.0-3.14","0784glpe217a2v2","prime","5ee37ccb16ad19000c16585e","5f60e3c0a3b16e07647b2ff9","5f63259a03747427248fc89f","false","null","<div style=""align-items: center; display: flex; color: darkorange; font-size: 90px""><b>ø</b></div>","null","","","","forget_cue","","","","","","","","","","","","","","","",""
"html-keyboard-response","164","334079","0.0-4.0-1.0-0.15","0784glpe217a2v2","prime","5ee37ccb16ad19000c16585e","5f60e3c0a3b16e07647b2ff9","5f63259a03747427248fc89f","false","null","<span style=""color: black; font-size: 48px"">M + N</span>","null","","","","resp_prompt","","","","","","","","","","","","","","","",""
"categorize-image","165","334676","0.0-4.0-1.0-1.15","0784glpe217a2v2","prime","5ee37ccb16ad19000c16585e","5f60e3c0a3b16e07647b2ff9","5f63259a03747427248fc89f","true","594.2600000003004","./Stimuli/SelectedImages/SM/SM76.bmp","83","","","","test","true","M + N","83","repetition","SM","SM76.bmp","remember","","64","3","prime1","left","","","",""
"html-keyboard-response","166","336678","0.0-4.0-1.0-3.15","0784glpe217a2v2","prime","5ee37ccb16ad19000c16585e","5f60e3c0a3b16e07647b2ff9","5f63259a03747427248fc89f","false","null","<div style=""align-items: center; display: flex; color: dodgerblue; font-size: 90px""><b>o</b></div>","null","","","","forget_cue","","","","","","","","","","","","","","","",""
"html-keyboard-response","167","337379","0.0-4.0-1.0-0.16","0784glpe217a2v2","prime","5ee37ccb16ad19000c16585e","5f60e3c0a3b16e07647b2ff9","5f63259a03747427248fc89f","false","null","<span style=""color: black; font-size: 48px"">N + M</span>","null","","","","resp_prompt","","","","","","","","","","","","","","","",""
"categorize-image","168","339322","0.0-4.0-1.0-1.16","0784glpe217a2v2","prime","5ee37ccb16ad19000c16585e","5f60e3c0a3b16e07647b2ff9","5f63259a03747427248fc89f","true","1940.3999999999069","./Stimuli/SelectedImages/SN/SN140.bmp","83","","","","test","true","N + M","83","switch","SN","SN140.bmp","forget","","65","3","prime1","left","","","",""
"html-keyboard-response","169","341322","0.0-4.0-1.0-3.16","0784glpe217a2v2","prime","5ee37ccb16ad19000c16585e","5f60e3c0a3b16e07647b2ff9","5f63259a03747427248fc89f","false","null","<div style=""align-items: center; display: flex; color: darkorange; font-size: 90px""><b>ø</b></div>","null","","","","forget_cue","","","","","","","","","","","","","","","",""
"html-keyboard-response","170","342023","0.0-4.0-1.0-0.17","0784glpe217a2v2","prime","5ee37ccb16ad19000c16585e","5f60e3c0a3b16e07647b2ff9","5f63259a03747427248fc89f","false","null","<span style=""color: black; font-size: 48px"">M + N</span>","null","","","","resp_prompt","","","","","","","","","","","","","","","",""
"categorize-image","171","342693","0.0-4.0-1.0-1.17","0784glpe217a2v2","prime","5ee37ccb16ad19000c16585e","5f60e3c0a3b16e07647b2ff9","5f63259a03747427248fc89f","true","667.5900000000256","./Stimuli/SelectedImages/LN/LN166.bmp","76","","","","test","true","M + N","76","switch","LN","LN166.bmp","forget","","66","3","prime1","right","","","",""
"html-keyboard-response","172","344695","0.0-4.0-1.0-3.17","0784glpe217a2v2","prime","5ee37ccb16ad19000c16585e","5f60e3c0a3b16e07647b2ff9","5f63259a03747427248fc89f","false","null","<div style=""align-items: center; display: flex; color: darkorange; font-size: 90px""><b>ø</b></div>","null","","","","forget_cue","","","","","","","","","","","","","","","",""
"html-keyboard-response","173","345396","0.0-4.0-1.0-0.18","0784glpe217a2v2","prime","5ee37ccb16ad19000c16585e","5f60e3c0a3b16e07647b2ff9","5f63259a03747427248fc89f","false","null","<span style=""color: black; font-size: 48px"">N + M</span>","null","","","","resp_prompt","","","","","","","","","","","","","","","",""
"categorize-image","174","346264","0.0-4.0-1.0-1.18","0784glpe217a2v2","prime","5ee37ccb16ad19000c16585e","5f60e3c0a3b16e07647b2ff9","5f63259a03747427248fc89f","true","864.6799999996438","./Stimuli/SelectedImages/SN/SN111.bmp","83","","","","test","true","N + M","83","repetition","SN","SN111.bmp","forget","","67","3","prime1","left","","","",""
"html-keyboard-response","175","348265","0.0-4.0-1.0-3.18","0784glpe217a2v2","prime","5ee37ccb16ad19000c16585e","5f60e3c0a3b16e07647b2ff9","5f63259a03747427248fc89f","false","null","<div style=""align-items: center; display: flex; color: darkorange; font-size: 90px""><b>ø</b></div>","null","","","","forget_cue","","","","","","","","","","","","","","","",""
"html-keyboard-response","176","348966","0.0-4.0-1.0-0.19","0784glpe217a2v2","prime","5ee37ccb16ad19000c16585e","5f60e3c0a3b16e07647b2ff9","5f63259a03747427248fc89f","false","null","<span style=""color: black; font-size: 48px"">M + N</span>","null","","","","resp_prompt","","","","","","","","","","","","","","","",""
"categorize-image","177","349638","0.0-4.0-1.0-1.19","0784glpe217a2v2","prime","5ee37ccb16ad19000c16585e","5f60e3c0a3b16e07647b2ff9","5f63259a03747427248fc89f","true","669.7249999997439","./Stimuli/SelectedImages/SN/SN49.bmp","76","","","","test","true","M + N","76","switch","SN","SN49.bmp","forget","","68","3","prime1","right","","","",""
"html-keyboard-response","178","351640","0.0-4.0-1.0-3.19","0784glpe217a2v2","prime","5ee37ccb16ad19000c16585e","5f60e3c0a3b16e07647b2ff9","5f63259a03747427248fc89f","false","null","<div style=""align-items: center; display: flex; color: darkorange; font-size: 90px""><b>ø</b></div>","null","","","","forget_cue","","","","","","","","","","","","","","","",""
"html-keyboard-response","179","352341","0.0-4.0-1.0-0.20","0784glpe217a2v2","prime","5ee37ccb16ad19000c16585e","5f60e3c0a3b16e07647b2ff9","5f63259a03747427248fc89f","false","null","<span style=""color: black; font-size: 48px"">M + N</span>","null","","","","resp_prompt","","","","","","","","","","","","","","","",""
"categorize-image","180","353513","0.0-4.0-1.0-1.20","0784glpe217a2v2","prime","5ee37ccb16ad19000c16585e","5f60e3c0a3b16e07647b2ff9","5f63259a03747427248fc89f","true","1170.7099999998463","./Stimuli/SelectedImages/LM/LM209.bmp","83","","","","test","true","M + N","83","switch","LM","LM209.bmp","remember","","69","3","prime1","left","","","",""
"html-keyboard-response","181","355514","0.0-4.0-1.0-3.20","0784glpe217a2v2","prime","5ee37ccb16ad19000c16585e","5f60e3c0a3b16e07647b2ff9","5f63259a03747427248fc89f","false","null","<div style=""align-items: center; display: flex; color: dodgerblue; font-size: 90px""><b>o</b></div>","null","","","","forget_cue","","","","","","","","","","","","","","","",""
"html-keyboard-response","182","356216","0.0-4.0-1.0-0.21","0784glpe217a2v2","prime","5ee37ccb16ad19000c16585e","5f60e3c0a3b16e07647b2ff9","5f63259a03747427248fc89f","false","null","<span style=""color: black; font-size: 48px"">N + M</span>","null","","","","resp_prompt","","","","","","","","","","","","","","","",""
"categorize-image","183","357058","0.0-4.0-1.0-1.21","0784glpe217a2v2","prime","5ee37ccb16ad19000c16585e","5f60e3c0a3b16e07647b2ff9","5f63259a03747427248fc89f","true","838.6299999997136","./Stimuli/SelectedImages/SM/SM213.bmp","76","","","","test","true","N + M","76","repetition","SM","SM213.bmp","remember","","70","3","prime1","right","","","",""
"html-keyboard-response","184","359059","0.0-4.0-1.0-3.21","0784glpe217a2v2","prime","5ee37ccb16ad19000c16585e","5f60e3c0a3b16e07647b2ff9","5f63259a03747427248fc89f","false","null","<div style=""align-items: center; display: flex; color: dodgerblue; font-size: 90px""><b>o</b></div>","null","","","","forget_cue","","","","","","","","","","","","","","","",""
"html-keyboard-response","185","359761","0.0-4.0-1.0-0.22","0784glpe217a2v2","prime","5ee37ccb16ad19000c16585e","5f60e3c0a3b16e07647b2ff9","5f63259a03747427248fc89f","false","null","<span style=""color: black; font-size: 48px"">N + M</span>","null","","","","resp_prompt","","","","","","","","","","","","","","","",""
"categorize-image","186","360703","0.0-4.0-1.0-1.22","0784glpe217a2v2","prime","5ee37ccb16ad19000c16585e","5f60e3c0a3b16e07647b2ff9","5f63259a03747427248fc89f","true","939.9949999997043","./Stimuli/SelectedImages/LM/LM216.bmp","76","","","","test","true","N + M","76","repetition","LM","LM216.bmp","forget","","71","3","prime1","right","","","",""
"html-keyboard-response","187","362704","0.0-4.0-1.0-3.22","0784glpe217a2v2","prime","5ee37ccb16ad19000c16585e","5f60e3c0a3b16e07647b2ff9","5f63259a03747427248fc89f","false","null","<div style=""align-items: center; display: flex; color: darkorange; font-size: 90px""><b>ø</b></div>","null","","","","forget_cue","","","","","","","","","","","","","","","",""
"html-keyboard-response","188","363405","0.0-4.0-1.0-0.23","0784glpe217a2v2","prime","5ee37ccb16ad19000c16585e","5f60e3c0a3b16e07647b2ff9","5f63259a03747427248fc89f","false","null","<span style=""color: black; font-size: 48px"">M + N</span>","null","","","","resp_prompt","","","","","","","","","","","","","","","",""
"categorize-image","189","364153","0.0-4.0-1.0-1.23","0784glpe217a2v2","prime","5ee37ccb16ad19000c16585e","5f60e3c0a3b16e07647b2ff9","5f63259a03747427248fc89f","true","745.3149999996531","./Stimuli/SelectedImages/LM/LM179.bmp","83","","","","test","true","M + N","83","switch","LM","LM179.bmp","remember","","72","3","prime1","left","","","",""
"html-keyboard-response","190","366154","0.0-4.0-1.0-3.23","0784glpe217a2v2","prime","5ee37ccb16ad19000c16585e","5f60e3c0a3b16e07647b2ff9","5f63259a03747427248fc89f","false","null","<div style=""align-items: center; display: flex; color: dodgerblue; font-size: 90px""><b>o</b></div>","null","","","","forget_cue","","","","","","","","","","","","","","","",""
"html-keyboard-response","191","366855","0.0-4.0-1.0-0.24","0784glpe217a2v2","prime","5ee37ccb16ad19000c16585e","5f60e3c0a3b16e07647b2ff9","5f63259a03747427248fc89f","false","null","<span style=""color: black; font-size: 48px"">M + N</span>","null","","","","resp_prompt","","","","","","","","","","","","","","","",""
"categorize-image","192","367810","0.0-4.0-1.0-1.24","0784glpe217a2v2","prime","5ee37ccb16ad19000c16585e","5f60e3c0a3b16e07647b2ff9","5f63259a03747427248fc89f","true","951.749999999709","./Stimuli/SelectedImages/LM/LM59.bmp","83","","","","test","true","M + N","83","repetition","LM","LM59.bmp","forget","","73","3","prime1","left","","","",""
"html-keyboard-response","193","369811","0.0-4.0-1.0-3.24","0784glpe217a2v2","prime","5ee37ccb16ad19000c16585e","5f60e3c0a3b16e07647b2ff9","5f63259a03747427248fc89f","false","null","<div style=""align-items: center; display: flex; color: darkorange; font-size: 90px""><b>ø</b></div>","null","","","","forget_cue","","","","","","","","","","","","","","","",""
"html-keyboard-response","194","370512","0.0-4.0-1.0-0.25","0784glpe217a2v2","prime","5ee37ccb16ad19000c16585e","5f60e3c0a3b16e07647b2ff9","5f63259a03747427248fc89f","false","null","<span style=""color: black; font-size: 48px"">N + M</span>","null","","","","resp_prompt","","","","","","","","","","","","","","","",""
"categorize-image","195","371521","0.0-4.0-1.0-1.25","0784glpe217a2v2","prime","5ee37ccb16ad19000c16585e","5f60e3c0a3b16e07647b2ff9","5f63259a03747427248fc89f","true","1006.144999999844","./Stimuli/SelectedImages/LM/LM129.bmp","76","","","","test","true","N + M","76","repetition","LM","LM129.bmp","forget","","74","3","prime1","right","","","",""
"html-keyboard-response","196","373523","0.0-4.0-1.0-3.25","0784glpe217a2v2","prime","5ee37ccb16ad19000c16585e","5f60e3c0a3b16e07647b2ff9","5f63259a03747427248fc89f","false","null","<div style=""align-items: center; display: flex; color: darkorange; font-size: 90px""><b>ø</b></div>","null","","","","forget_cue","","","","","","","","","","","","","","","",""
"html-keyboard-response","197","374224","0.0-4.0-1.0-0.26","0784glpe217a2v2","prime","5ee37ccb16ad19000c16585e","5f60e3c0a3b16e07647b2ff9","5f63259a03747427248fc89f","false","null","<span style=""color: black; font-size: 48px"">M + N</span>","null","","","","resp_prompt","","","","","","","","","","","","","","","",""
"categorize-image","198","375027","0.0-4.0-1.0-1.26","0784glpe217a2v2","prime","5ee37ccb16ad19000c16585e","5f60e3c0a3b16e07647b2ff9","5f63259a03747427248fc89f","true","800.5650000000023","./Stimuli/SelectedImages/LN/LN82.bmp","76","","","","test","true","M + N","76","repetition","LN","LN82.bmp","remember","","75","3","prime1","right","","","",""
"html-keyboard-response","199","377028","0.0-4.0-1.0-3.26","0784glpe217a2v2","prime","5ee37ccb16ad19000c16585e","5f60e3c0a3b16e07647b2ff9","5f63259a03747427248fc89f","false","null","<div style=""align-items: center; display: flex; color: dodgerblue; font-size: 90px""><b>o</b></div>","null","","","","forget_cue","","","","","","","","","","","","","","","",""
"html-keyboard-response","200","377730","0.0-4.0-1.0-0.27","0784glpe217a2v2","prime","5ee37ccb16ad19000c16585e","5f60e3c0a3b16e07647b2ff9","5f63259a03747427248fc89f","false","null","<span style=""color: black; font-size: 48px"">M + N</span>","null","","","","resp_prompt","","","","","","","","","","","","","","","",""
"categorize-image","201","378572","0.0-4.0-1.0-1.27","0784glpe217a2v2","prime","5ee37ccb16ad19000c16585e","5f60e3c0a3b16e07647b2ff9","5f63259a03747427248fc89f","true","840.8600000002189","./Stimuli/SelectedImages/SM/SM148.bmp","83","","","","test","true","M + N","83","switch","SM","SM148.bmp","forget","","76","3","prime1","left","","","",""
"html-keyboard-response","202","380574","0.0-4.0-1.0-3.27","0784glpe217a2v2","prime","5ee37ccb16ad19000c16585e","5f60e3c0a3b16e07647b2ff9","5f63259a03747427248fc89f","false","null","<div style=""align-items: center; display: flex; color: darkorange; font-size: 90px""><b>ø</b></div>","null","","","","forget_cue","","","","","","","","","","","","","","","",""
"html-keyboard-response","203","381275","0.0-4.0-1.0-0.28","0784glpe217a2v2","prime","5ee37ccb16ad19000c16585e","5f60e3c0a3b16e07647b2ff9","5f63259a03747427248fc89f","false","null","<span style=""color: black; font-size: 48px"">N + M</span>","null","","","","resp_prompt","","","","","","","","","","","","","","","",""
"categorize-image","204","383281","0.0-4.0-1.0-1.28","0784glpe217a2v2","prime","5ee37ccb16ad19000c16585e","5f60e3c0a3b16e07647b2ff9","5f63259a03747427248fc89f","true","null","./Stimuli/SelectedImages/SM/SM24.bmp","null","","","","test","false","N + M","76","switch","SM","SM24.bmp","forget","","77","3","prime1","too_slow","","","",""
"html-keyboard-response","205","383781","0.0-4.0-1.0-2.28-0.28","0784glpe217a2v2","prime","5ee37ccb16ad19000c16585e","5f60e3c0a3b16e07647b2ff9","5f63259a03747427248fc89f","false","null","<span style=""color: red; font-size: 48px"">Too slow!</span>","null","","","","feedback","","","","","","","","","","","","","","","",""
"html-keyboard-response","206","385783","0.0-4.0-1.0-3.28","0784glpe217a2v2","prime","5ee37ccb16ad19000c16585e","5f60e3c0a3b16e07647b2ff9","5f63259a03747427248fc89f","false","null","<div style=""align-items: center; display: flex; color: darkorange; font-size: 90px""><b>ø</b></div>","null","","","","forget_cue","","","","","","","","","","","","","","","",""
"html-keyboard-response","207","386484","0.0-4.0-1.0-0.29","0784glpe217a2v2","prime","5ee37ccb16ad19000c16585e","5f60e3c0a3b16e07647b2ff9","5f63259a03747427248fc89f","false","null","<span style=""color: black; font-size: 48px"">N + M</span>","null","","","","resp_prompt","","","","","","","","","","","","","","","",""
"categorize-image","208","387390","0.0-4.0-1.0-1.29","0784glpe217a2v2","prime","5ee37ccb16ad19000c16585e","5f60e3c0a3b16e07647b2ff9","5f63259a03747427248fc89f","true","903.0650000000023","./Stimuli/SelectedImages/SN/SN18.bmp","83","","","","test","true","N + M","83","repetition","SN","SN18.bmp","forget","","78","3","prime1","left","","","",""
"html-keyboard-response","209","389391","0.0-4.0-1.0-3.29","0784glpe217a2v2","prime","5ee37ccb16ad19000c16585e","5f60e3c0a3b16e07647b2ff9","5f63259a03747427248fc89f","false","null","<div style=""align-items: center; display: flex; color: darkorange; font-size: 90px""><b>ø</b></div>","null","","","","forget_cue","","","","","","","","","","","","","","","",""
"html-keyboard-response","210","390092","0.0-4.0-1.0-0.30","0784glpe217a2v2","prime","5ee37ccb16ad19000c16585e","5f60e3c0a3b16e07647b2ff9","5f63259a03747427248fc89f","false","null","<span style=""color: black; font-size: 48px"">M + N</span>","null","","","","resp_prompt","","","","","","","","","","","","","","","",""
"categorize-image","211","390721","0.0-4.0-1.0-1.30","0784glpe217a2v2","prime","5ee37ccb16ad19000c16585e","5f60e3c0a3b16e07647b2ff9","5f63259a03747427248fc89f","true","625.5450000002747","./Stimuli/SelectedImages/SN/SN93.bmp","76","","","","test","true","M + N","76","switch","SN","SN93.bmp","forget","","79","3","prime1","right","","","",""
"html-keyboard-response","212","392722","0.0-4.0-1.0-3.30","0784glpe217a2v2","prime","5ee37ccb16ad19000c16585e","5f60e3c0a3b16e07647b2ff9","5f63259a03747427248fc89f","false","null","<div style=""align-items: center; display: flex; color: darkorange; font-size: 90px""><b>ø</b></div>","null","","","","forget_cue","","","","","","","","","","","","","","","",""
"html-keyboard-response","213","393423","0.0-4.0-1.0-0.31","0784glpe217a2v2","prime","5ee37ccb16ad19000c16585e","5f60e3c0a3b16e07647b2ff9","5f63259a03747427248fc89f","false","null","<span style=""color: black; font-size: 48px"">M + N</span>","null","","","","resp_prompt","","","","","","","","","","","","","","","",""
"categorize-image","214","394183","0.0-4.0-1.0-1.31","0784glpe217a2v2","prime","5ee37ccb16ad19000c16585e","5f60e3c0a3b16e07647b2ff9","5f63259a03747427248fc89f","true","756.1449999997858","./Stimuli/SelectedImages/LN/LN9.bmp","76","","","","test","true","M + N","76","switch","LN","LN9.bmp","forget","","80","3","prime1","right","","","",""
"html-keyboard-response","215","396183","0.0-4.0-1.0-3.31","0784glpe217a2v2","prime","5ee37ccb16ad19000c16585e","5f60e3c0a3b16e07647b2ff9","5f63259a03747427248fc89f","false","null","<div style=""align-items: center; display: flex; color: darkorange; font-size: 90px""><b>ø</b></div>","null","","","","forget_cue","","","","","","","","","","","","","","","",""
"html-keyboard-response","216","396885","0.0-4.0-1.0-0.32","0784glpe217a2v2","prime","5ee37ccb16ad19000c16585e","5f60e3c0a3b16e07647b2ff9","5f63259a03747427248fc89f","false","null","<span style=""color: black; font-size: 48px"">N + M</span>","null","","","","resp_prompt","","","","","","","","","","","","","","","",""
"categorize-image","217","398014","0.0-4.0-1.0-1.32","0784glpe217a2v2","prime","5ee37ccb16ad19000c16585e","5f60e3c0a3b16e07647b2ff9","5f63259a03747427248fc89f","true","1125.744999999879","./Stimuli/SelectedImages/LM/LM100.bmp","76","","","","test","true","N + M","76","repetition","LM","LM100.bmp","remember","","81","3","prime1","right","","","",""
"html-keyboard-response","218","400015","0.0-4.0-1.0-3.32","0784glpe217a2v2","prime","5ee37ccb16ad19000c16585e","5f60e3c0a3b16e07647b2ff9","5f63259a03747427248fc89f","false","null","<div style=""align-items: center; display: flex; color: dodgerblue; font-size: 90px""><b>o</b></div>","null","","","","forget_cue","","","","","","","","","","","","","","","",""
"html-keyboard-response","219","400716","0.0-4.0-1.0-0.33","0784glpe217a2v2","prime","5ee37ccb16ad19000c16585e","5f60e3c0a3b16e07647b2ff9","5f63259a03747427248fc89f","false","null","<span style=""color: black; font-size: 48px"">N + M</span>","null","","","","resp_prompt","","","","","","","","","","","","","","","",""
"categorize-image","220","401662","0.0-4.0-1.0-1.33","0784glpe217a2v2","prime","5ee37ccb16ad19000c16585e","5f60e3c0a3b16e07647b2ff9","5f63259a03747427248fc89f","true","942.0949999998556","./Stimuli/SelectedImages/SM/SM108.bmp","76","","","","test","true","N + M","76","switch","SM","SM108.bmp","remember","","82","3","prime1","right","","","",""
"html-keyboard-response","221","403663","0.0-4.0-1.0-3.33","0784glpe217a2v2","prime","5ee37ccb16ad19000c16585e","5f60e3c0a3b16e07647b2ff9","5f63259a03747427248fc89f","false","null","<div style=""align-items: center; display: flex; color: dodgerblue; font-size: 90px""><b>o</b></div>","null","","","","forget_cue","","","","","","","","","","","","","","","",""
"html-keyboard-response","222","404365","0.0-4.0-1.0-0.34","0784glpe217a2v2","prime","5ee37ccb16ad19000c16585e","5f60e3c0a3b16e07647b2ff9","5f63259a03747427248fc89f","false","null","<span style=""color: black; font-size: 48px"">M + N</span>","null","","","","resp_prompt","","","","","","","","","","","","","","","",""
"categorize-image","223","405084","0.0-4.0-1.0-1.34","0784glpe217a2v2","prime","5ee37ccb16ad19000c16585e","5f60e3c0a3b16e07647b2ff9","5f63259a03747427248fc89f","true","716.37999999983","./Stimuli/SelectedImages/SM/SM184.bmp","83","","","","test","true","M + N","83","repetition","SM","SM184.bmp","remember","","83","3","prime1","left","","","",""
"html-keyboard-response","224","407086","0.0-4.0-1.0-3.34","0784glpe217a2v2","prime","5ee37ccb16ad19000c16585e","5f60e3c0a3b16e07647b2ff9","5f63259a03747427248fc89f","false","null","<div style=""align-items: center; display: flex; color: dodgerblue; font-size: 90px""><b>o</b></div>","null","","","","forget_cue","","","","","","","","","","","","","","","",""
"html-keyboard-response","225","407787","0.0-4.0-1.0-0.35","0784glpe217a2v2","prime","5ee37ccb16ad19000c16585e","5f60e3c0a3b16e07647b2ff9","5f63259a03747427248fc89f","false","null","<span style=""color: black; font-size: 48px"">M + N</span>","null","","","","resp_prompt","","","","","","","","","","","","","","","",""
"categorize-image","226","408434","0.0-4.0-1.0-1.35","0784glpe217a2v2","prime","5ee37ccb16ad19000c16585e","5f60e3c0a3b16e07647b2ff9","5f63259a03747427248fc89f","true","643.9700000000885","./Stimuli/SelectedImages/SN/SN60.bmp","76","","","","test","true","M + N","76","repetition","SN","SN60.bmp","remember","","84","3","prime1","right","","","",""
"html-keyboard-response","227","410434","0.0-4.0-1.0-3.35","0784glpe217a2v2","prime","5ee37ccb16ad19000c16585e","5f60e3c0a3b16e07647b2ff9","5f63259a03747427248fc89f","false","null","<div style=""align-items: center; display: flex; color: dodgerblue; font-size: 90px""><b>o</b></div>","null","","","","forget_cue","","","","","","","","","","","","","","","",""
"html-keyboard-response","228","411135","0.0-4.0-1.0-0.36","0784glpe217a2v2","prime","5ee37ccb16ad19000c16585e","5f60e3c0a3b16e07647b2ff9","5f63259a03747427248fc89f","false","null","<span style=""color: black; font-size: 48px"">N + M</span>","null","","","","resp_prompt","","","","","","","","","","","","","","","",""
"categorize-image","229","412121","0.0-4.0-1.0-1.36","0784glpe217a2v2","prime","5ee37ccb16ad19000c16585e","5f60e3c0a3b16e07647b2ff9","5f63259a03747427248fc89f","true","982.0849999996135","./Stimuli/SelectedImages/LM/LM57.bmp","76","","","","test","true","N + M","76","switch","LM","LM57.bmp","remember","","85","3","prime1","right","","","",""
"html-keyboard-response","230","414122","0.0-4.0-1.0-3.36","0784glpe217a2v2","prime","5ee37ccb16ad19000c16585e","5f60e3c0a3b16e07647b2ff9","5f63259a03747427248fc89f","false","null","<div style=""align-items: center; display: flex; color: dodgerblue; font-size: 90px""><b>o</b></div>","null","","","","forget_cue","","","","","","","","","","","","","","","",""
"html-keyboard-response","231","414824","0.0-4.0-1.0-0.37","0784glpe217a2v2","prime","5ee37ccb16ad19000c16585e","5f60e3c0a3b16e07647b2ff9","5f63259a03747427248fc89f","false","null","<span style=""color: black; font-size: 48px"">M + N</span>","null","","","","resp_prompt","","","","","","","","","","","","","","","",""
"categorize-image","232","415788","0.0-4.0-1.0-1.37","0784glpe217a2v2","prime","5ee37ccb16ad19000c16585e","5f60e3c0a3b16e07647b2ff9","5f63259a03747427248fc89f","true","961.4799999999232","./Stimuli/SelectedImages/SM/SM74.bmp","83","","","","test","true","M + N","83","repetition","SM","SM74.bmp","forget","","86","3","prime1","left","","","",""
"html-keyboard-response","233","417789","0.0-4.0-1.0-3.37","0784glpe217a2v2","prime","5ee37ccb16ad19000c16585e","5f60e3c0a3b16e07647b2ff9","5f63259a03747427248fc89f","false","null","<div style=""align-items: center; display: flex; color: darkorange; font-size: 90px""><b>ø</b></div>","null","","","","forget_cue","","","","","","","","","","","","","","","",""
"html-keyboard-response","234","418490","0.0-4.0-1.0-0.38","0784glpe217a2v2","prime","5ee37ccb16ad19000c16585e","5f60e3c0a3b16e07647b2ff9","5f63259a03747427248fc89f","false","null","<span style=""color: black; font-size: 48px"">M + N</span>","null","","","","resp_prompt","","","","","","","","","","","","","","","",""
"categorize-image","235","419046","0.0-4.0-1.0-1.38","0784glpe217a2v2","prime","5ee37ccb16ad19000c16585e","5f60e3c0a3b16e07647b2ff9","5f63259a03747427248fc89f","true","552.7399999995832","./Stimuli/SelectedImages/LM/LM235.bmp","83","","","","test","true","M + N","83","switch","LM","LM235.bmp","forget","","87","3","prime1","left","","","",""
"html-keyboard-response","236","421047","0.0-4.0-1.0-3.38","0784glpe217a2v2","prime","5ee37ccb16ad19000c16585e","5f60e3c0a3b16e07647b2ff9","5f63259a03747427248fc89f","false","null","<div style=""align-items: center; display: flex; color: darkorange; font-size: 90px""><b>ø</b></div>","null","","","","forget_cue","","","","","","","","","","","","","","","",""
"html-keyboard-response","237","421747","0.0-4.0-1.0-0.39","0784glpe217a2v2","prime","5ee37ccb16ad19000c16585e","5f60e3c0a3b16e07647b2ff9","5f63259a03747427248fc89f","false","null","<span style=""color: black; font-size: 48px"">N + M</span>","null","","","","resp_prompt","","","","","","","","","","","","","","","",""
"categorize-image","238","422590","0.0-4.0-1.0-1.39","0784glpe217a2v2","prime","5ee37ccb16ad19000c16585e","5f60e3c0a3b16e07647b2ff9","5f63259a03747427248fc89f","true","840.1199999998789","./Stimuli/SelectedImages/SN/SN240.bmp","83","","","","test","true","N + M","83","switch","SN","SN240.bmp","remember","","88","3","prime1","left","","","",""
"html-keyboard-response","239","424591","0.0-4.0-1.0-3.39","0784glpe217a2v2","prime","5ee37ccb16ad19000c16585e","5f60e3c0a3b16e07647b2ff9","5f63259a03747427248fc89f","false","null","<div style=""align-items: center; display: flex; color: dodgerblue; font-size: 90px""><b>o</b></div>","null","","","","forget_cue","","","","","","","","","","","","","","","",""
"html-keyboard-response","240","425292","0.0-4.0-1.0-0.40","0784glpe217a2v2","prime","5ee37ccb16ad19000c16585e","5f60e3c0a3b16e07647b2ff9","5f63259a03747427248fc89f","false","null","<span style=""color: black; font-size: 48px"">N + M</span>","null","","","","resp_prompt","","","","","","","","","","","","","","","",""
"categorize-image","241","426143","0.0-4.0-1.0-1.40","0784glpe217a2v2","prime","5ee37ccb16ad19000c16585e","5f60e3c0a3b16e07647b2ff9","5f63259a03747427248fc89f","true","849.090000000142","./Stimuli/SelectedImages/LM/LM103.bmp","76","","","","test","true","N + M","76","switch","LM","LM103.bmp","forget","","89","3","prime1","right","","","",""
"html-keyboard-response","242","428144","0.0-4.0-1.0-3.40","0784glpe217a2v2","prime","5ee37ccb16ad19000c16585e","5f60e3c0a3b16e07647b2ff9","5f63259a03747427248fc89f","false","null","<div style=""align-items: center; display: flex; color: darkorange; font-size: 90px""><b>ø</b></div>","null","","","","forget_cue","","","","","","","","","","","","","","","",""
"html-keyboard-response","243","428845","0.0-4.0-1.0-0.41","0784glpe217a2v2","prime","5ee37ccb16ad19000c16585e","5f60e3c0a3b16e07647b2ff9","5f63259a03747427248fc89f","false","null","<span style=""color: black; font-size: 48px"">M + N</span>","null","","","","resp_prompt","","","","","","","","","","","","","","","",""
"categorize-image","244","429503","0.0-4.0-1.0-1.41","0784glpe217a2v2","prime","5ee37ccb16ad19000c16585e","5f60e3c0a3b16e07647b2ff9","5f63259a03747427248fc89f","true","654.5200000000768","./Stimuli/SelectedImages/SN/SN64.bmp","76","","","","test","true","M + N","76","repetition","SN","SN64.bmp","forget","","90","3","prime1","right","","","",""
"html-keyboard-response","245","431504","0.0-4.0-1.0-3.41","0784glpe217a2v2","prime","5ee37ccb16ad19000c16585e","5f60e3c0a3b16e07647b2ff9","5f63259a03747427248fc89f","false","null","<div style=""align-items: center; display: flex; color: darkorange; font-size: 90px""><b>ø</b></div>","null","","","","forget_cue","","","","","","","","","","","","","","","",""
"html-keyboard-response","246","432205","0.0-4.0-1.0-0.42","0784glpe217a2v2","prime","5ee37ccb16ad19000c16585e","5f60e3c0a3b16e07647b2ff9","5f63259a03747427248fc89f","false","null","<span style=""color: black; font-size: 48px"">N + M</span>","null","","","","resp_prompt","","","","","","","","","","","","","","","",""
"categorize-image","247","432987","0.0-4.0-1.0-1.42","0784glpe217a2v2","prime","5ee37ccb16ad19000c16585e","5f60e3c0a3b16e07647b2ff9","5f63259a03747427248fc89f","true","779.2949999998091","./Stimuli/SelectedImages/LN/LN149.bmp","83","","","","test","true","N + M","83","repetition","LN","LN149.bmp","remember","","91","3","prime1","left","","","",""
"html-keyboard-response","248","434988","0.0-4.0-1.0-3.42","0784glpe217a2v2","prime","5ee37ccb16ad19000c16585e","5f60e3c0a3b16e07647b2ff9","5f63259a03747427248fc89f","false","null","<div style=""align-items: center; display: flex; color: dodgerblue; font-size: 90px""><b>o</b></div>","null","","","","forget_cue","","","","","","","","","","","","","","","",""
"html-keyboard-response","249","435688","0.0-4.0-1.0-0.43","0784glpe217a2v2","prime","5ee37ccb16ad19000c16585e","5f60e3c0a3b16e07647b2ff9","5f63259a03747427248fc89f","false","null","<span style=""color: black; font-size: 48px"">N + M</span>","null","","","","resp_prompt","","","","","","","","","","","","","","","",""
"categorize-image","250","436353","0.0-4.0-1.0-1.43","0784glpe217a2v2","prime","5ee37ccb16ad19000c16585e","5f60e3c0a3b16e07647b2ff9","5f63259a03747427248fc89f","true","661.6400000002468","./Stimuli/SelectedImages/SN/SN128.bmp","83","","","","test","true","N + M","83","switch","SN","SN128.bmp","forget","","92","3","prime1","left","","","",""
"html-keyboard-response","251","438355","0.0-4.0-1.0-3.43","0784glpe217a2v2","prime","5ee37ccb16ad19000c16585e","5f60e3c0a3b16e07647b2ff9","5f63259a03747427248fc89f","false","null","<div style=""align-items: center; display: flex; color: darkorange; font-size: 90px""><b>ø</b></div>","null","","","","forget_cue","","","","","","","","","","","","","","","",""
"html-keyboard-response","252","439056","0.0-4.0-1.0-0.44","0784glpe217a2v2","prime","5ee37ccb16ad19000c16585e","5f60e3c0a3b16e07647b2ff9","5f63259a03747427248fc89f","false","null","<span style=""color: black; font-size: 48px"">N + M</span>","null","","","","resp_prompt","","","","","","","","","","","","","","","",""
