"trial_type","trial_index","time_elapsed","internal_node_id","subject","exp_part","prolific_PID","study_ID","session_ID","use","rt","stimulus","key_press","button_pressed","responses","question_order","trial_part","correct","resp_map","correct_resp","probe_condition","category","image","forget_condition","list","trial_num","block_num","block","response","test_part","n_span","sequence","num_spaces"
"pavlovia","0","17","0.0-0.0","3wm6avcueytxf50","","5f15e3e14d733b70e097d14f","5f60e3c0a3b16e07647b2ff9","5f60ef38fc0d1f00090d454b","false","","","","","","","","","","","","","","","","","","","","","","",""
"html-keyboard-response","1","10775","0.0-1.0-0.0-0.0","3wm6avcueytxf50","welcome","5f15e3e14d733b70e097d14f","5f60e3c0a3b16e07647b2ff9","5f60ef38fc0d1f00090d454b","false","10753.419999964535","<div align=left>Dear participant, <br> thank you for participating in an online study of the Cognition, Action, and Sustainability Unit of the University of Freiburg! <br> <br>The aim of this study is to examine our ability to remember previously learned information. <br>Our goal is to find out, whether our memory improves, when we only remember information that is relevant to us. <br>The experiment will take about 35 minutes to complete. <br> <br>Please, note that you can only participate in this study if you are using a device with a keyboard (PC, Laptop etc.) <br>and not if you are using a mobile device such as a tablet or smartphone.<br> <br>Press 'SPACE' to proceed to the experiment. </div>","32","","","","","","","","","","","","","","","","","","","",""
"html-keyboard-response","2","99789","0.0-1.0-0.0-1.0","3wm6avcueytxf50","welcome","5f15e3e14d733b70e097d14f","5f60e3c0a3b16e07647b2ff9","5f60ef38fc0d1f00090d454b","false","89011.4899999462","<div align=left><strong> Time Course of this experiment: </strong> <br><br> <strong> 1.</strong>  First, please fill in some information regarding your demographic data. <br><br> <strong> 2.</strong>  Next, your task will be to classify everyday objects. <br>In addition, you will be asked to remember certain objects and recall them later. <br>Working on these tasks requires your undivided attention and concentration.<br>It is therefore essential that you eliminate any sources of distraction in your  <br>environment and ensure that you will not be disturbed. <br><br><strong> 3.</strong>  At the end of the experiment, you will be asked to answer a few additional questions. <br> <br><strong> Important:</strong> After finishing the experiment, only close the browser window <br> by clicking on the 'end the experiment'-button when you are asked to do so. <br>Closing the browser window prematurely will make the allocation of your participation credit impossible. <br><br> Press 'SPACE' to start the experiment. </div>","32","","","","","","","","","","","","","","","","","","","",""
"html-button-response","3","139979","0.0-1.0-0.0-2.0","3wm6avcueytxf50","welcome","5f15e3e14d733b70e097d14f","5f60e3c0a3b16e07647b2ff9","5f60ef38fc0d1f00090d454b","true","40186.63500016555","<div align=left><strong> Informed consent </strong>  <br>The aim of our research is to better understand human behavior and mental processes. <br>In the following study your behavior (e.g. choices, reaction times) will be studied. <br> <br><strong> Voluntariness and Anonymity </strong> <br>Your participation in this study is  <strong> voluntary</strong>.<br>You may withdraw your consent to participate at any time without providing a reason for doing so and without fear of prejudice. <br><br>As no personal data will be collected, <strong>your data and your person cannot be connected after data collection</strong> – the data-set is anonymous. <br>Respectively, deletion of your data will not be possible after data collection has been completed, as we cannot retrace your data-set.<br>The results and anonymized data collected in this study will be published as a scientific publication. <br>This will happen in an <strong>anonymized format</strong>, so that no data can be traced back to a specific person. <br> <br>The anonymized data of this study will be made available to other researchers and/or in a data archive on the Internet as a means of transparency and to enable subsequent re-use. By doing so, this study follows the recommendations of the Deutsche Forschungsgemeinschaft (DFG, German Research Foundation) and Deutsche Gesellschaft für Psychologie (DGPS, German Psychological Society) regarding quality assurance in research.<br>If you have any questions now or after the experiment, please contact our team (experiments@cs.uni-freiburg.de).<br><br><br>I hereby declare, that I understand the above described conditions of participation and I agree to participate under these conditions. <br><br> </div>","","0","","","","","","","","","","","","","","","","","","",""
"html-keyboard-response","4","187425","0.0-1.0-0.0-3.0","3wm6avcueytxf50","welcome","5f15e3e14d733b70e097d14f","5f60e3c0a3b16e07647b2ff9","5f60ef38fc0d1f00090d454b","false","47441.14000024274","<div align=left><strong> General information concerning the experiment </strong>  <br> <br>Please follow the instructions:<ol> <li><strong> Do not leave this tab (your browser window) during the experiment and do not reload this tab! </strong>  <br>If you do switch tabs/windows during the experiment (to check your mail or visit another website, for example), <br>the experiment will end automatically and you will <strong>not receive credit</strong> for your participation. <br>Repeated participation or resumption of the experiment is impossible.</li> <br><li>Please close all other programs for the duration of your participation. </li> <br><li>Please mute or turn off your phone and put it out of your reach. </li> <br><li>Please also take off any disturbing accessories (such as wristwatches, bracelets, etc.). </li> <br><li>If you have music playing in the background, please turn it off now. </li> <br></ol>Thank you! <br>Press 'SPACE' to continue. </div>","32","","","","","","","","","","","","","","","","","","","",""
"survey-text","5","191161","0.0-1.0-1.0-0.0","3wm6avcueytxf50","demographics","5f15e3e14d733b70e097d14f","5f60e3c0a3b16e07647b2ff9","5f60ef38fc0d1f00090d454b","true","3729.249999858439","","","","{""age"":""30""}","","","","","","","","","","","","","","","","","",""
"survey-multi-choice","6","249725","0.0-1.0-1.0-1.0","3wm6avcueytxf50","demographics","5f15e3e14d733b70e097d14f","5f60e3c0a3b16e07647b2ff9","5f60ef38fc0d1f00090d454b","true","58560.395000036806","","","","{""gender"":""male"",""school"":""others"",""education"":""Completed university degree or equivalent""}","[0,1,2]","","","","","","","","","","","","","","","","",""
"html-keyboard-response","7","332094","0.0-1.0-2.0","3wm6avcueytxf50","instructions","5f15e3e14d733b70e097d14f","5f60e3c0a3b16e07647b2ff9","5f60ef38fc0d1f00090d454b","false","82365.48499995843","<div align=left> The experiment is now about to start: <br> <br>In the following part, you will be presented pictures of everyday objects. <br>Your first task is to <strong>classify these objects. </strong> <br> <br> You will classify them either as mechanical or non-mechanical objects. <br> <br>Objects that include any kind of technical mechanism (for example, wheels, switches, levers, <br> electronic components) fall under the category of <strong>mechanical</strong> objects. <br>Only objects without any kind of technical mechanism should be classified as <strong>non-mechanical</strong>. <br><br>Press 'SPACE' to continue. </div>","32","","","","","","","","","","","","","","","","","","","",""
"html-keyboard-response","8","441179","0.0-2.0-0.0","3wm6avcueytxf50","instructions","5f15e3e14d733b70e097d14f","5f60e3c0a3b16e07647b2ff9","5f60ef38fc0d1f00090d454b","false","109083.32500001416","<div align=justify>You will classify the objects using the <strong>'S'</strong> and the <strong>'L'</strong> keys on your keyboard.<br>For doing so, please place your <strong>left index finger</strong> on the <strong>'S'</strong> key and place your <strong>right index finger</strong> on the <strong>'L'</strong> key. <br><br> Each trial starts with an instruction, indicating which key ('S'/'L') you need to press to classify <br>the object as mechanical (letter M) or non-mechanical (letter N).<br>The instruction <strong>M + N</strong> indicates that, in the current trial, by pressing the left key ('S') you classify the displayed object as mechanical (M) <br> and by pressing the right key ('L') you classify the object as non-mechanical (N). <br>The instruction <strong>N + M</strong> on the other hand indicates that by pressing the left key ('S') you classify the displayed object as non-mechanical (N) <br> and by pressing the right key ('L') you classify the object as mechanical (M). <br><br>Please press the key corresponding to the correct classification as fast as possible as soon as the object is displayed and try to avoid making mistakes.<br>If you do not respond within a 2 second window, a corresponding feedback will be displayed and the next trial will start.<br> The experiment is divided into multiple blocks to give you the opportunity to take a break after each block. <br>First, you can now practice this task. <br><br>Please place your <strong>LEFT INDEX FINGER</strong> on the 'S' key and your <strong>RIGHT INDEX FINGER</strong> on the 'L' key now. <br><br>Press SPACE to continue.</div>","32","","","","","","","","","","","","","","","","","","","",""
"html-keyboard-response","9","461574","0.0-2.0-1.0","3wm6avcueytxf50","instructions","5f15e3e14d733b70e097d14f","5f60e3c0a3b16e07647b2ff9","5f60ef38fc0d1f00090d454b","false","20391.340000089258","<div align=left> You will now have time to practice this task.<br><br>Remember: <br> <br><li>Please place your index fingers on the <strong>'S'</strong> and <strong>'L'</strong> keys <br>to respond as fast and accurately as possible.</li><li>Every picture can be classified as either mechanical or non-mechanical.</li><li>If you do not respond in time or commit an error, you will receive a corresponding feedback. </li><li> Please try to respond as <strong> fast </strong> and as <strong> accurately as possible </strong> .<br><li>To ensure optimal results, please minimize distractions and stay focused. </li><br><br>Press SPACE to continue.</div>","32","","","","","","","","","","","","","","","","","","","",""
"html-keyboard-response","10","462286","0.0-2.0-2.0-0.0","3wm6avcueytxf50","practice_no_cue","5f15e3e14d733b70e097d14f","5f60e3c0a3b16e07647b2ff9","5f60ef38fc0d1f00090d454b","false","null","<span style=""color: black; font-size: 48px"">M + N</span>","null","","","","resp_prompt","","","","","","","","","","","","","","","",""
"categorize-image","11","464801","0.0-2.0-2.0-1.0","3wm6avcueytxf50","practice_no_cue","5f15e3e14d733b70e097d14f","5f60e3c0a3b16e07647b2ff9","5f60ef38fc0d1f00090d454b","true","null","./Stimuli/ImagesPractice/LN2.jpg","null","","","","test","false","M + N","76","","LN","LN2.jpg","forget","old","1","1","start","too_slow","","","",""
"html-keyboard-response","12","465505","0.0-2.0-2.0-0.1","3wm6avcueytxf50","practice_no_cue","5f15e3e14d733b70e097d14f","5f60e3c0a3b16e07647b2ff9","5f60ef38fc0d1f00090d454b","false","null","<span style=""color: black; font-size: 48px"">M + N</span>","null","","","","resp_prompt","","","","","","","","","","","","","","","",""
"categorize-image","13","466787","0.0-2.0-2.0-1.1","3wm6avcueytxf50","practice_no_cue","5f15e3e14d733b70e097d14f","5f60e3c0a3b16e07647b2ff9","5f60ef38fc0d1f00090d454b","true","760.6999999843538","./Stimuli/ImagesPractice/LN4.jpg","76","","","","test","true","M + N","76","","LN","LN4.jpg","forget","old","2","1","start","right","","","",""
"html-keyboard-response","14","467490","0.0-2.0-2.0-0.2","3wm6avcueytxf50","practice_no_cue","5f15e3e14d733b70e097d14f","5f60e3c0a3b16e07647b2ff9","5f60ef38fc0d1f00090d454b","false","null","<span style=""color: black; font-size: 48px"">M + N</span>","null","","","","resp_prompt","","","","","","","","","","","","","","","",""
"categorize-image","15","468787","0.0-2.0-2.0-1.2","3wm6avcueytxf50","practice_no_cue","5f15e3e14d733b70e097d14f","5f60e3c0a3b16e07647b2ff9","5f60ef38fc0d1f00090d454b","true","793.1049996986985","./Stimuli/ImagesPractice/SM97.jpg","83","","","","test","true","M + N","83","","SM","SM97.jpg","remember","old","3","1","start","left","","","",""
"html-keyboard-response","16","469490","0.0-2.0-2.0-0.3","3wm6avcueytxf50","practice_no_cue","5f15e3e14d733b70e097d14f","5f60e3c0a3b16e07647b2ff9","5f60ef38fc0d1f00090d454b","false","null","<span style=""color: black; font-size: 48px"">N + M</span>","null","","","","resp_prompt","","","","","","","","","","","","","","","",""
"categorize-image","17","471147","0.0-2.0-2.0-1.3","3wm6avcueytxf50","practice_no_cue","5f15e3e14d733b70e097d14f","5f60e3c0a3b16e07647b2ff9","5f60ef38fc0d1f00090d454b","true","1144.150000065565","./Stimuli/ImagesPractice/SN75.jpg","83","","","","test","true","N + M","83","","SN","SN75.jpg","forget","old","4","1","start","left","","","",""
"html-keyboard-response","18","471853","0.0-2.0-2.0-0.4","3wm6avcueytxf50","practice_no_cue","5f15e3e14d733b70e097d14f","5f60e3c0a3b16e07647b2ff9","5f60ef38fc0d1f00090d454b","false","null","<span style=""color: black; font-size: 48px"">M + N</span>","null","","","","resp_prompt","","","","","","","","","","","","","","","",""
"categorize-image","19","473585","0.0-2.0-2.0-1.4","3wm6avcueytxf50","practice_no_cue","5f15e3e14d733b70e097d14f","5f60e3c0a3b16e07647b2ff9","5f60ef38fc0d1f00090d454b","true","1227.4500001221895","./Stimuli/ImagesPractice/SM98.jpg","83","","","","test","true","M + N","83","","SM","SM98.jpg","remember","old","5","1","start","left","","","",""
"html-keyboard-response","20","474297","0.0-2.0-2.0-0.5","3wm6avcueytxf50","practice_no_cue","5f15e3e14d733b70e097d14f","5f60e3c0a3b16e07647b2ff9","5f60ef38fc0d1f00090d454b","false","null","<span style=""color: black; font-size: 48px"">N + M</span>","null","","","","resp_prompt","","","","","","","","","","","","","","","",""
"categorize-image","21","476159","0.0-2.0-2.0-1.5","3wm6avcueytxf50","practice_no_cue","5f15e3e14d733b70e097d14f","5f60e3c0a3b16e07647b2ff9","5f60ef38fc0d1f00090d454b","true","1342.9549997672439","./Stimuli/ImagesPractice/SM35.jpg","76","","","","test","true","N + M","76","","SM","SM35.jpg","forget","old","6","1","start","right","","","",""
"html-keyboard-response","22","476879","0.0-2.0-2.0-0.6","3wm6avcueytxf50","practice_no_cue","5f15e3e14d733b70e097d14f","5f60e3c0a3b16e07647b2ff9","5f60ef38fc0d1f00090d454b","false","null","<span style=""color: black; font-size: 48px"">N + M</span>","null","","","","resp_prompt","","","","","","","","","","","","","","","",""
"categorize-image","23","478831","0.0-2.0-2.0-1.6","3wm6avcueytxf50","practice_no_cue","5f15e3e14d733b70e097d14f","5f60e3c0a3b16e07647b2ff9","5f60ef38fc0d1f00090d454b","true","1445.27000002563","./Stimuli/ImagesPractice/SN222.jpg","83","","","","test","true","N + M","83","","SN","SN222.jpg","remember","old","7","1","start","left","","","",""
"html-keyboard-response","24","479536","0.0-2.0-2.0-0.7","3wm6avcueytxf50","practice_no_cue","5f15e3e14d733b70e097d14f","5f60e3c0a3b16e07647b2ff9","5f60ef38fc0d1f00090d454b","false","null","<span style=""color: black; font-size: 48px"">N + M</span>","null","","","","resp_prompt","","","","","","","","","","","","","","","",""
"categorize-image","25","481180","0.0-2.0-2.0-1.7","3wm6avcueytxf50","practice_no_cue","5f15e3e14d733b70e097d14f","5f60e3c0a3b16e07647b2ff9","5f60ef38fc0d1f00090d454b","true","1138.8250002637506","./Stimuli/ImagesPractice/LM230.jpg","83","","","","test","false","N + M","76","","LM","LM230.jpg","remember","old","8","1","start","left","","","",""
"html-keyboard-response","26","481890","0.0-2.0-2.0-0.8","3wm6avcueytxf50","practice_no_cue","5f15e3e14d733b70e097d14f","5f60e3c0a3b16e07647b2ff9","5f60ef38fc0d1f00090d454b","false","null","<span style=""color: black; font-size: 48px"">N + M</span>","null","","","","resp_prompt","","","","","","","","","","","","","","","",""
"categorize-image","27","483157","0.0-2.0-2.0-1.8","3wm6avcueytxf50","practice_no_cue","5f15e3e14d733b70e097d14f","5f60e3c0a3b16e07647b2ff9","5f60ef38fc0d1f00090d454b","true","757.7249999158084","./Stimuli/ImagesPractice/LN15.jpg","83","","","","test","true","N + M","83","","LN","LN15.jpg","remember","old","9","1","start","left","","","",""
"html-keyboard-response","28","483872","0.0-2.0-2.0-0.9","3wm6avcueytxf50","practice_no_cue","5f15e3e14d733b70e097d14f","5f60e3c0a3b16e07647b2ff9","5f60ef38fc0d1f00090d454b","false","null","<span style=""color: black; font-size: 48px"">M + N</span>","null","","","","resp_prompt","","","","","","","","","","","","","","","",""
"categorize-image","29","485870","0.0-2.0-2.0-1.9","3wm6avcueytxf50","practice_no_cue","5f15e3e14d733b70e097d14f","5f60e3c0a3b16e07647b2ff9","5f60ef38fc0d1f00090d454b","true","1494.815000332892","./Stimuli/ImagesPractice/LM239.jpg","76","","","","test","false","M + N","83","","LM","LM239.jpg","forget","old","10","1","start","right","","","",""
"html-keyboard-response","30","486579","0.0-2.0-2.0-0.10","3wm6avcueytxf50","practice_no_cue","5f15e3e14d733b70e097d14f","5f60e3c0a3b16e07647b2ff9","5f60ef38fc0d1f00090d454b","false","null","<span style=""color: black; font-size: 48px"">N + M</span>","null","","","","resp_prompt","","","","","","","","","","","","","","","",""
"categorize-image","31","488254","0.0-2.0-2.0-1.10","3wm6avcueytxf50","practice_no_cue","5f15e3e14d733b70e097d14f","5f60e3c0a3b16e07647b2ff9","5f60ef38fc0d1f00090d454b","true","1166.6350001469254","./Stimuli/ImagesPractice/SN220.jpg","76","","","","test","false","N + M","83","","SN","SN220.jpg","forget","old","11","1","start","right","","","",""
"html-keyboard-response","32","488971","0.0-2.0-2.0-0.11","3wm6avcueytxf50","practice_no_cue","5f15e3e14d733b70e097d14f","5f60e3c0a3b16e07647b2ff9","5f60ef38fc0d1f00090d454b","false","null","<span style=""color: black; font-size: 48px"">M + N</span>","null","","","","resp_prompt","","","","","","","","","","","","","","","",""
"categorize-image","33","491482","0.0-2.0-2.0-1.11","3wm6avcueytxf50","practice_no_cue","5f15e3e14d733b70e097d14f","5f60e3c0a3b16e07647b2ff9","5f60ef38fc0d1f00090d454b","true","null","./Stimuli/ImagesPractice/SM62.jpg","null","","","","test","false","M + N","83","","SM","SM62.jpg","forget","old","12","1","start","too_slow","","","",""
"html-keyboard-response","34","492185","0.0-2.0-2.0-0.12","3wm6avcueytxf50","practice_no_cue","5f15e3e14d733b70e097d14f","5f60e3c0a3b16e07647b2ff9","5f60ef38fc0d1f00090d454b","false","null","<span style=""color: black; font-size: 48px"">M + N</span>","null","","","","resp_prompt","","","","","","","","","","","","","","","",""
"categorize-image","35","493849","0.0-2.0-2.0-1.12","3wm6avcueytxf50","practice_no_cue","5f15e3e14d733b70e097d14f","5f60e3c0a3b16e07647b2ff9","5f60ef38fc0d1f00090d454b","true","1158.5750002413988","./Stimuli/ImagesPractice/LM147.jpg","83","","","","test","true","M + N","83","","LM","LM147.jpg","remember","old","13","1","start","left","","","",""
"html-keyboard-response","36","494562","0.0-2.0-2.0-0.13","3wm6avcueytxf50","practice_no_cue","5f15e3e14d733b70e097d14f","5f60e3c0a3b16e07647b2ff9","5f60ef38fc0d1f00090d454b","false","null","<span style=""color: black; font-size: 48px"">M + N</span>","null","","","","resp_prompt","","","","","","","","","","","","","","","",""
"categorize-image","37","495966","0.0-2.0-2.0-1.13","3wm6avcueytxf50","practice_no_cue","5f15e3e14d733b70e097d14f","5f60e3c0a3b16e07647b2ff9","5f60ef38fc0d1f00090d454b","true","898.4250002540648","./Stimuli/ImagesPractice/LM143.jpg","83","","","","test","true","M + N","83","","LM","LM143.jpg","remember","old","14","1","start","left","","","",""
"html-keyboard-response","38","496674","0.0-2.0-2.0-0.14","3wm6avcueytxf50","practice_no_cue","5f15e3e14d733b70e097d14f","5f60e3c0a3b16e07647b2ff9","5f60ef38fc0d1f00090d454b","false","null","<span style=""color: black; font-size: 48px"">N + M</span>","null","","","","resp_prompt","","","","","","","","","","","","","","","",""
"categorize-image","39","498410","0.0-2.0-2.0-1.14","3wm6avcueytxf50","practice_no_cue","5f15e3e14d733b70e097d14f","5f60e3c0a3b16e07647b2ff9","5f60ef38fc0d1f00090d454b","true","1230.3599999286234","./Stimuli/ImagesPractice/LN17.jpg","76","","","","test","false","N + M","83","","LN","LN17.jpg","forget","old","15","1","start","right","","","",""
"html-keyboard-response","40","499113","0.0-2.0-2.0-0.15","3wm6avcueytxf50","practice_no_cue","5f15e3e14d733b70e097d14f","5f60e3c0a3b16e07647b2ff9","5f60ef38fc0d1f00090d454b","false","null","<span style=""color: black; font-size: 48px"">N + M</span>","null","","","","resp_prompt","","","","","","","","","","","","","","","",""
"categorize-image","41","501645","0.0-2.0-2.0-1.15","3wm6avcueytxf50","practice_no_cue","5f15e3e14d733b70e097d14f","5f60e3c0a3b16e07647b2ff9","5f60ef38fc0d1f00090d454b","true","null","./Stimuli/ImagesPractice/LM55.jpg","null","","","","test","false","N + M","76","","LM","LM55.jpg","remember","old","16","1","start","too_slow","","","",""
"html-keyboard-response","42","515199","0.0-2.0-3.0","3wm6avcueytxf50","break","5f15e3e14d733b70e097d14f","5f60e3c0a3b16e07647b2ff9","5f60ef38fc0d1f00090d454b","false","13549.529999960214","<p style='font-size: 32px;'>Break</><br><br><br><br><br><p style='font-size: 24px;'>In the last block, you committed 4 errors and did not respond in time on 3 trials.
</p><p style='font-size: 24px;'>Try to respond as fast and accurately as possible in the next block as well! </p><p style='font-size: 24px;'>Press SPACE to continue.</p>","32","","","","","","","","","","","","","","","","","","","",""
"html-keyboard-response","43","523623","0.0-2.0-4.0","3wm6avcueytxf50","instructions","5f15e3e14d733b70e097d14f","5f60e3c0a3b16e07647b2ff9","5f60ef38fc0d1f00090d454b","false","8421.899999957532","<div align=left> Great!<br><br>Are you ready to continue?<br><br>If you want to reread the instructions and redo the practice trials, <br>please press „Z“. <br><br>Press SPACE to CONTINUE with the experiment when you are ready. </div>","32","","","","","","","","","","","","","","","","","","","",""
"html-keyboard-response","44","576607","0.0-3.0-0.0","3wm6avcueytxf50","instructions","5f15e3e14d733b70e097d14f","5f60e3c0a3b16e07647b2ff9","5f60ef38fc0d1f00090d454b","false","52981.06999974698","<div align=left>Great!<br> <strong>Attention</strong>! You will now receive a second, additional task! <br><br>To this point it was you <strong>first task</strong> to correctly <strong>classify objects</strong>. <br><br>As mentioned in the beginning, we aim to examine how well humans can remember previously learned information.<br>We would like to find out whether our memory improves if we only remember information that is relevant to us. <br><br>Therefore, your <strong>second task</strong> will be to <strong>remember</strong> the pictures you are to categorize. <br> After the learning phase, there will be a memory test phase, in which you will be asked to indicate whether you have seen a picture before or not. <br>Some, but not all pictures shown in the learning phase will appear in the memory test phase.<br>After classifying a picture, you will be told whether you should remember it for the memory test phase or not. <br>Thus, some pictures can be forgotten, whereas others have to be remembered. <br><br>Note: From now on, feedback will only be displayed if you responded incorrectly or not in time.<br><br>Press SPACE to continue.</div>","32","","","","","","","","","","","","","","","","","","","",""
"html-keyboard-response","45","602663","0.0-3.0-1.0","3wm6avcueytxf50","instructions","5f15e3e14d733b70e097d14f","5f60e3c0a3b16e07647b2ff9","5f60ef38fc0d1f00090d454b","false","26053.505000192672","<div align=left>In the following part, you will thus have to remember only some pictures. <br>Immediately after seeing and classifying the picture, a symbol will be displayed, indicating whether you should remember or forget the previous picture. <br><br>A <span style='color: dodgerblue; font-size: 28px'>O</span> indicates REMEMBER. That means, you have to remember this picture, because it will be tested later. <br><br>A <span style='color: darkorange; font-size:28px'>Ø</span> indicates FORGET. You do not have to remember this picture. <br><br> As you will have to remember a lot of pictures, it will be hard for you to remember all of them. <br>It will put you at an advantage if you instantly forget the pictures you are not asked to remember. <br> This will make it easier for you to remember the pictures that will be tested afterwards. <br><br>Press SPACE to continue.</div>","32","","","","","","","","","","","","","","","","","","","",""
"html-keyboard-response","46","632635","0.0-3.0-2.0","3wm6avcueytxf50","instructions","5f15e3e14d733b70e097d14f","5f60e3c0a3b16e07647b2ff9","5f60ef38fc0d1f00090d454b","false","29969.759999774396","<div align=left> Now you have the chance to practice both tasks together.<br><br>Remember: <br> <br><li>Please place your index fingers on the <strong>'S'</strong> and <strong>'L'</strong> keys <br>to respond as fast and accurately as possible.</li><li>Every picture can be classified as either mechanical or non-mechanical.</li><li>If you do not respond in time or commit an error, you will receive a corresponding feedback. <br>Please try to respond as <strong> fast </strong> and as <strong> accurately as possible </strong>.</li><li> Please remember only the to-be-remembered <span style='color: dodgerblue; font-size: 28px'>O</span> pictures. <br></li><li> Please minimize distractions and stay focused. </li><br><br>Press SPACE to START</div>","32","","","","","","","","","","","","","","","","","","","",""
"html-keyboard-response","47","633344","0.0-3.0-3.0-0.0","3wm6avcueytxf50","practice_cue","5f15e3e14d733b70e097d14f","5f60e3c0a3b16e07647b2ff9","5f60ef38fc0d1f00090d454b","false","null","<span style=""color: black; font-size: 48px"">M + N</span>","null","","","","resp_prompt","","","","","","","","","","","","","","","",""
"categorize-image","48","634700","0.0-3.0-3.0-1.0","3wm6avcueytxf50","practice_cue","5f15e3e14d733b70e097d14f","5f60e3c0a3b16e07647b2ff9","5f60ef38fc0d1f00090d454b","true","1348.8150001503527","./Stimuli/ImagesPractice/LM239.jpg","76","","","","test","false","M + N","83","","LM","LM239.jpg","forget","old","17","2","practice_forget","right","","","",""
"html-keyboard-response","49","635207","0.0-3.0-3.0-2.0-0.0","3wm6avcueytxf50","practice_cue","5f15e3e14d733b70e097d14f","5f60e3c0a3b16e07647b2ff9","5f60ef38fc0d1f00090d454b","false","null","<span style=""color: red; font-size: 48px"">Error!</span>","null","","","","feedback","","","","","","","","","","","","","","","",""
"html-keyboard-response","50","637211","0.0-3.0-3.0-3.0","3wm6avcueytxf50","practice_cue","5f15e3e14d733b70e097d14f","5f60e3c0a3b16e07647b2ff9","5f60ef38fc0d1f00090d454b","false","null","<div style=""align-items: center; display: flex; color: darkorange; font-size: 90px""><b>ø</b></div>","null","","","","forget_cue","","","","","","","","","","","","","","","",""
"html-keyboard-response","51","637923","0.0-3.0-3.0-0.1","3wm6avcueytxf50","practice_cue","5f15e3e14d733b70e097d14f","5f60e3c0a3b16e07647b2ff9","5f60ef38fc0d1f00090d454b","false","null","<span style=""color: black; font-size: 48px"">M + N</span>","null","","","","resp_prompt","","","","","","","","","","","","","","","",""
"categorize-image","52","639607","0.0-3.0-3.0-1.1","3wm6avcueytxf50","practice_cue","5f15e3e14d733b70e097d14f","5f60e3c0a3b16e07647b2ff9","5f60ef38fc0d1f00090d454b","true","1675.8549995720387","./Stimuli/ImagesPractice/SM98.jpg","83","","","","test","true","M + N","83","","SM","SM98.jpg","remember","old","18","2","practice_forget","left","","","",""
"html-keyboard-response","53","641615","0.0-3.0-3.0-3.1","3wm6avcueytxf50","practice_cue","5f15e3e14d733b70e097d14f","5f60e3c0a3b16e07647b2ff9","5f60ef38fc0d1f00090d454b","false","null","<div style=""align-items: center; display: flex; color: dodgerblue; font-size: 90px""><b>o</b></div>","null","","","","forget_cue","","","","","","","","","","","","","","","",""
"html-keyboard-response","54","642325","0.0-3.0-3.0-0.2","3wm6avcueytxf50","practice_cue","5f15e3e14d733b70e097d14f","5f60e3c0a3b16e07647b2ff9","5f60ef38fc0d1f00090d454b","false","null","<span style=""color: black; font-size: 48px"">M + N</span>","null","","","","resp_prompt","","","","","","","","","","","","","","","",""
"categorize-image","55","643052","0.0-3.0-3.0-1.2","3wm6avcueytxf50","practice_cue","5f15e3e14d733b70e097d14f","5f60e3c0a3b16e07647b2ff9","5f60ef38fc0d1f00090d454b","true","720.450000371784","./Stimuli/ImagesPractice/LN2.jpg","76","","","","test","true","M + N","76","","LN","LN2.jpg","forget","old","19","2","practice_forget","right","","","",""
"html-keyboard-response","56","645062","0.0-3.0-3.0-3.2","3wm6avcueytxf50","practice_cue","5f15e3e14d733b70e097d14f","5f60e3c0a3b16e07647b2ff9","5f60ef38fc0d1f00090d454b","false","null","<div style=""align-items: center; display: flex; color: darkorange; font-size: 90px""><b>ø</b></div>","null","","","","forget_cue","","","","","","","","","","","","","","","",""
"html-keyboard-response","57","645767","0.0-3.0-3.0-0.3","3wm6avcueytxf50","practice_cue","5f15e3e14d733b70e097d14f","5f60e3c0a3b16e07647b2ff9","5f60ef38fc0d1f00090d454b","false","null","<span style=""color: black; font-size: 48px"">N + M</span>","null","","","","resp_prompt","","","","","","","","","","","","","","","",""
"categorize-image","58","647032","0.0-3.0-3.0-1.3","3wm6avcueytxf50","practice_cue","5f15e3e14d733b70e097d14f","5f60e3c0a3b16e07647b2ff9","5f60ef38fc0d1f00090d454b","true","1261.0849998891354","./Stimuli/ImagesPractice/SN222.jpg","83","","","","test","true","N + M","83","","SN","SN222.jpg","remember","old","20","2","practice_forget","left","","","",""
"html-keyboard-response","59","649036","0.0-3.0-3.0-3.3","3wm6avcueytxf50","practice_cue","5f15e3e14d733b70e097d14f","5f60e3c0a3b16e07647b2ff9","5f60ef38fc0d1f00090d454b","false","null","<div style=""align-items: center; display: flex; color: dodgerblue; font-size: 90px""><b>o</b></div>","null","","","","forget_cue","","","","","","","","","","","","","","","",""
"html-keyboard-response","60","649751","0.0-3.0-3.0-0.4","3wm6avcueytxf50","practice_cue","5f15e3e14d733b70e097d14f","5f60e3c0a3b16e07647b2ff9","5f60ef38fc0d1f00090d454b","false","null","<span style=""color: black; font-size: 48px"">N + M</span>","null","","","","resp_prompt","","","","","","","","","","","","","","","",""
"categorize-image","61","650961","0.0-3.0-3.0-1.4","3wm6avcueytxf50","practice_cue","5f15e3e14d733b70e097d14f","5f60e3c0a3b16e07647b2ff9","5f60ef38fc0d1f00090d454b","true","1204.6599998138845","./Stimuli/ImagesPractice/SM35.jpg","83","","","","test","false","N + M","76","","SM","SM35.jpg","forget","old","21","2","practice_forget","left","","","",""
"html-keyboard-response","62","651465","0.0-3.0-3.0-2.4-0.4","3wm6avcueytxf50","practice_cue","5f15e3e14d733b70e097d14f","5f60e3c0a3b16e07647b2ff9","5f60ef38fc0d1f00090d454b","false","null","<span style=""color: red; font-size: 48px"">Error!</span>","null","","","","feedback","","","","","","","","","","","","","","","",""
"html-keyboard-response","63","653466","0.0-3.0-3.0-3.4","3wm6avcueytxf50","practice_cue","5f15e3e14d733b70e097d14f","5f60e3c0a3b16e07647b2ff9","5f60ef38fc0d1f00090d454b","false","null","<div style=""align-items: center; display: flex; color: darkorange; font-size: 90px""><b>ø</b></div>","null","","","","forget_cue","","","","","","","","","","","","","","","",""
"html-keyboard-response","64","654171","0.0-3.0-3.0-0.5","3wm6avcueytxf50","practice_cue","5f15e3e14d733b70e097d14f","5f60e3c0a3b16e07647b2ff9","5f60ef38fc0d1f00090d454b","false","null","<span style=""color: black; font-size: 48px"">N + M</span>","null","","","","resp_prompt","","","","","","","","","","","","","","","",""
"categorize-image","65","655434","0.0-3.0-3.0-1.5","3wm6avcueytxf50","practice_cue","5f15e3e14d733b70e097d14f","5f60e3c0a3b16e07647b2ff9","5f60ef38fc0d1f00090d454b","true","1256.539999973029","./Stimuli/ImagesPractice/SN220.jpg","83","","","","test","true","N + M","83","","SN","SN220.jpg","forget","old","22","2","practice_forget","left","","","",""
"html-keyboard-response","66","657437","0.0-3.0-3.0-3.5","3wm6avcueytxf50","practice_cue","5f15e3e14d733b70e097d14f","5f60e3c0a3b16e07647b2ff9","5f60ef38fc0d1f00090d454b","false","null","<div style=""align-items: center; display: flex; color: darkorange; font-size: 90px""><b>ø</b></div>","null","","","","forget_cue","","","","","","","","","","","","","","","",""
"html-keyboard-response","67","658149","0.0-3.0-3.0-0.6","3wm6avcueytxf50","practice_cue","5f15e3e14d733b70e097d14f","5f60e3c0a3b16e07647b2ff9","5f60ef38fc0d1f00090d454b","false","null","<span style=""color: black; font-size: 48px"">N + M</span>","null","","","","resp_prompt","","","","","","","","","","","","","","","",""
"categorize-image","68","659169","0.0-3.0-3.0-1.6","3wm6avcueytxf50","practice_cue","5f15e3e14d733b70e097d14f","5f60e3c0a3b16e07647b2ff9","5f60ef38fc0d1f00090d454b","true","1014.8649998009205","./Stimuli/ImagesPractice/LM55.jpg","76","","","","test","true","N + M","76","","LM","LM55.jpg","remember","old","23","2","practice_forget","right","","","",""
"html-keyboard-response","69","661176","0.0-3.0-3.0-3.6","3wm6avcueytxf50","practice_cue","5f15e3e14d733b70e097d14f","5f60e3c0a3b16e07647b2ff9","5f60ef38fc0d1f00090d454b","false","null","<div style=""align-items: center; display: flex; color: dodgerblue; font-size: 90px""><b>o</b></div>","null","","","","forget_cue","","","","","","","","","","","","","","","",""
"html-keyboard-response","70","661889","0.0-3.0-3.0-0.7","3wm6avcueytxf50","practice_cue","5f15e3e14d733b70e097d14f","5f60e3c0a3b16e07647b2ff9","5f60ef38fc0d1f00090d454b","false","null","<span style=""color: black; font-size: 48px"">N + M</span>","null","","","","resp_prompt","","","","","","","","","","","","","","","",""
"categorize-image","71","663472","0.0-3.0-3.0-1.7","3wm6avcueytxf50","practice_cue","5f15e3e14d733b70e097d14f","5f60e3c0a3b16e07647b2ff9","5f60ef38fc0d1f00090d454b","true","1576.6900000162423","./Stimuli/ImagesPractice/LN15.jpg","83","","","","test","true","N + M","83","","LN","LN15.jpg","remember","old","24","2","practice_forget","left","","","",""
"html-keyboard-response","72","665474","0.0-3.0-3.0-3.7","3wm6avcueytxf50","practice_cue","5f15e3e14d733b70e097d14f","5f60e3c0a3b16e07647b2ff9","5f60ef38fc0d1f00090d454b","false","null","<div style=""align-items: center; display: flex; color: dodgerblue; font-size: 90px""><b>o</b></div>","null","","","","forget_cue","","","","","","","","","","","","","","","",""
"html-keyboard-response","73","666175","0.0-3.0-3.0-0.8","3wm6avcueytxf50","practice_cue","5f15e3e14d733b70e097d14f","5f60e3c0a3b16e07647b2ff9","5f60ef38fc0d1f00090d454b","false","null","<span style=""color: black; font-size: 48px"">M + N</span>","null","","","","resp_prompt","","","","","","","","","","","","","","","",""
"categorize-image","74","667063","0.0-3.0-3.0-1.8","3wm6avcueytxf50","practice_cue","5f15e3e14d733b70e097d14f","5f60e3c0a3b16e07647b2ff9","5f60ef38fc0d1f00090d454b","true","880.6400001049042","./Stimuli/ImagesPractice/LN4.jpg","83","","","","test","false","M + N","76","","LN","LN4.jpg","forget","old","25","2","practice_forget","left","","","",""
"html-keyboard-response","75","667566","0.0-3.0-3.0-2.8-0.8","3wm6avcueytxf50","practice_cue","5f15e3e14d733b70e097d14f","5f60e3c0a3b16e07647b2ff9","5f60ef38fc0d1f00090d454b","false","null","<span style=""color: red; font-size: 48px"">Error!</span>","null","","","","feedback","","","","","","","","","","","","","","","",""
"html-keyboard-response","76","669569","0.0-3.0-3.0-3.8","3wm6avcueytxf50","practice_cue","5f15e3e14d733b70e097d14f","5f60e3c0a3b16e07647b2ff9","5f60ef38fc0d1f00090d454b","false","null","<div style=""align-items: center; display: flex; color: darkorange; font-size: 90px""><b>ø</b></div>","null","","","","forget_cue","","","","","","","","","","","","","","","",""
"html-keyboard-response","77","670286","0.0-3.0-3.0-0.9","3wm6avcueytxf50","practice_cue","5f15e3e14d733b70e097d14f","5f60e3c0a3b16e07647b2ff9","5f60ef38fc0d1f00090d454b","false","null","<span style=""color: black; font-size: 48px"">M + N</span>","null","","","","resp_prompt","","","","","","","","","","","","","","","",""
"categorize-image","78","671538","0.0-3.0-3.0-1.9","3wm6avcueytxf50","practice_cue","5f15e3e14d733b70e097d14f","5f60e3c0a3b16e07647b2ff9","5f60ef38fc0d1f00090d454b","true","1246.1350001394749","./Stimuli/ImagesPractice/SM62.jpg","83","","","","test","true","M + N","83","","SM","SM62.jpg","forget","old","26","2","practice_forget","left","","","",""
"html-keyboard-response","79","673555","0.0-3.0-3.0-3.9","3wm6avcueytxf50","practice_cue","5f15e3e14d733b70e097d14f","5f60e3c0a3b16e07647b2ff9","5f60ef38fc0d1f00090d454b","false","null","<div style=""align-items: center; display: flex; color: darkorange; font-size: 90px""><b>ø</b></div>","null","","","","forget_cue","","","","","","","","","","","","","","","",""
"html-keyboard-response","80","674264","0.0-3.0-3.0-0.10","3wm6avcueytxf50","practice_cue","5f15e3e14d733b70e097d14f","5f60e3c0a3b16e07647b2ff9","5f60ef38fc0d1f00090d454b","false","null","<span style=""color: black; font-size: 48px"">N + M</span>","null","","","","resp_prompt","","","","","","","","","","","","","","","",""
"categorize-image","81","675488","0.0-3.0-3.0-1.10","3wm6avcueytxf50","practice_cue","5f15e3e14d733b70e097d14f","5f60e3c0a3b16e07647b2ff9","5f60ef38fc0d1f00090d454b","true","1218.66500005126","./Stimuli/ImagesPractice/LN17.jpg","83","","","","test","true","N + M","83","","LN","LN17.jpg","forget","old","27","2","practice_forget","left","","","",""
"html-keyboard-response","82","677492","0.0-3.0-3.0-3.10","3wm6avcueytxf50","practice_cue","5f15e3e14d733b70e097d14f","5f60e3c0a3b16e07647b2ff9","5f60ef38fc0d1f00090d454b","false","null","<div style=""align-items: center; display: flex; color: darkorange; font-size: 90px""><b>ø</b></div>","null","","","","forget_cue","","","","","","","","","","","","","","","",""
"html-keyboard-response","83","678199","0.0-3.0-3.0-0.11","3wm6avcueytxf50","practice_cue","5f15e3e14d733b70e097d14f","5f60e3c0a3b16e07647b2ff9","5f60ef38fc0d1f00090d454b","false","null","<span style=""color: black; font-size: 48px"">M + N</span>","null","","","","resp_prompt","","","","","","","","","","","","","","","",""
"categorize-image","84","679406","0.0-3.0-3.0-1.11","3wm6avcueytxf50","practice_cue","5f15e3e14d733b70e097d14f","5f60e3c0a3b16e07647b2ff9","5f60ef38fc0d1f00090d454b","true","1200.2000003121793","./Stimuli/ImagesPractice/LM147.jpg","83","","","","test","true","M + N","83","","LM","LM147.jpg","remember","old","28","2","practice_forget","left","","","",""
"html-keyboard-response","85","681416","0.0-3.0-3.0-3.11","3wm6avcueytxf50","practice_cue","5f15e3e14d733b70e097d14f","5f60e3c0a3b16e07647b2ff9","5f60ef38fc0d1f00090d454b","false","null","<div style=""align-items: center; display: flex; color: dodgerblue; font-size: 90px""><b>o</b></div>","null","","","","forget_cue","","","","","","","","","","","","","","","",""
"html-keyboard-response","86","682125","0.0-3.0-3.0-0.12","3wm6avcueytxf50","practice_cue","5f15e3e14d733b70e097d14f","5f60e3c0a3b16e07647b2ff9","5f60ef38fc0d1f00090d454b","false","null","<span style=""color: black; font-size: 48px"">M + N</span>","null","","","","resp_prompt","","","","","","","","","","","","","","","",""
"categorize-image","87","682878","0.0-3.0-3.0-1.12","3wm6avcueytxf50","practice_cue","5f15e3e14d733b70e097d14f","5f60e3c0a3b16e07647b2ff9","5f60ef38fc0d1f00090d454b","true","745.9000004455447","./Stimuli/ImagesPractice/SM97.jpg","83","","","","test","true","M + N","83","","SM","SM97.jpg","remember","old","29","2","practice_forget","left","","","",""
"html-keyboard-response","88","684887","0.0-3.0-3.0-3.12","3wm6avcueytxf50","practice_cue","5f15e3e14d733b70e097d14f","5f60e3c0a3b16e07647b2ff9","5f60ef38fc0d1f00090d454b","false","null","<div style=""align-items: center; display: flex; color: dodgerblue; font-size: 90px""><b>o</b></div>","null","","","","forget_cue","","","","","","","","","","","","","","","",""
"html-keyboard-response","89","685600","0.0-3.0-3.0-0.13","3wm6avcueytxf50","practice_cue","5f15e3e14d733b70e097d14f","5f60e3c0a3b16e07647b2ff9","5f60ef38fc0d1f00090d454b","false","null","<span style=""color: black; font-size: 48px"">N + M</span>","null","","","","resp_prompt","","","","","","","","","","","","","","","",""
"categorize-image","90","686837","0.0-3.0-3.0-1.13","3wm6avcueytxf50","practice_cue","5f15e3e14d733b70e097d14f","5f60e3c0a3b16e07647b2ff9","5f60ef38fc0d1f00090d454b","true","1229.9999999813735","./Stimuli/ImagesPractice/LM230.jpg","76","","","","test","true","N + M","76","","LM","LM230.jpg","remember","old","30","2","practice_forget","right","","","",""
"html-keyboard-response","91","688839","0.0-3.0-3.0-3.13","3wm6avcueytxf50","practice_cue","5f15e3e14d733b70e097d14f","5f60e3c0a3b16e07647b2ff9","5f60ef38fc0d1f00090d454b","false","null","<div style=""align-items: center; display: flex; color: dodgerblue; font-size: 90px""><b>o</b></div>","null","","","","forget_cue","","","","","","","","","","","","","","","",""
"html-keyboard-response","92","689553","0.0-3.0-3.0-0.14","3wm6avcueytxf50","practice_cue","5f15e3e14d733b70e097d14f","5f60e3c0a3b16e07647b2ff9","5f60ef38fc0d1f00090d454b","false","null","<span style=""color: black; font-size: 48px"">N + M</span>","null","","","","resp_prompt","","","","","","","","","","","","","","","",""
"categorize-image","93","690425","0.0-3.0-3.0-1.14","3wm6avcueytxf50","practice_cue","5f15e3e14d733b70e097d14f","5f60e3c0a3b16e07647b2ff9","5f60ef38fc0d1f00090d454b","true","865.7149998471141","./Stimuli/ImagesPractice/SN75.jpg","83","","","","test","true","N + M","83","","SN","SN75.jpg","forget","old","31","2","practice_forget","left","","","",""
"html-keyboard-response","94","692435","0.0-3.0-3.0-3.14","3wm6avcueytxf50","practice_cue","5f15e3e14d733b70e097d14f","5f60e3c0a3b16e07647b2ff9","5f60ef38fc0d1f00090d454b","false","null","<div style=""align-items: center; display: flex; color: darkorange; font-size: 90px""><b>ø</b></div>","null","","","","forget_cue","","","","","","","","","","","","","","","",""
"html-keyboard-response","95","693141","0.0-3.0-3.0-0.15","3wm6avcueytxf50","practice_cue","5f15e3e14d733b70e097d14f","5f60e3c0a3b16e07647b2ff9","5f60ef38fc0d1f00090d454b","false","null","<span style=""color: black; font-size: 48px"">M + N</span>","null","","","","resp_prompt","","","","","","","","","","","","","","","",""
"categorize-image","96","693819","0.0-3.0-3.0-1.15","3wm6avcueytxf50","practice_cue","5f15e3e14d733b70e097d14f","5f60e3c0a3b16e07647b2ff9","5f60ef38fc0d1f00090d454b","true","671.8649999238551","./Stimuli/ImagesPractice/LM143.jpg","83","","","","test","true","M + N","83","","LM","LM143.jpg","remember","old","32","2","practice_forget","left","","","",""
"html-keyboard-response","97","695830","0.0-3.0-3.0-3.15","3wm6avcueytxf50","practice_cue","5f15e3e14d733b70e097d14f","5f60e3c0a3b16e07647b2ff9","5f60ef38fc0d1f00090d454b","false","null","<div style=""align-items: center; display: flex; color: dodgerblue; font-size: 90px""><b>o</b></div>","null","","","","forget_cue","","","","","","","","","","","","","","","",""
"html-keyboard-response","98","701667","0.0-3.0-4.0","3wm6avcueytxf50","break","5f15e3e14d733b70e097d14f","5f60e3c0a3b16e07647b2ff9","5f60ef38fc0d1f00090d454b","false","5832.620000001043","<p style='font-size: 32px;'>Break</><br><br><br><br><br><p style='font-size: 24px;'>In the last block, you committed 3 errors and did not respond in time on 0 trials.
</p><p style='font-size: 24px;'>Try to respond as fast and accurately as possible in the next block as well! </p><p style='font-size: 24px;'>Press SPACE to continue.</p>","32","","","","","","","","","","","","","","","","","","","",""
"html-keyboard-response","99","777042","0.0-3.0-5.0","3wm6avcueytxf50","instructions","5f15e3e14d733b70e097d14f","5f60e3c0a3b16e07647b2ff9","5f60ef38fc0d1f00090d454b","false","75372.97999998555","<div align=left> Now, to practice, we kindly ask you to remember as many of the to-be-remembered pictures<br>of the previous learning phase as possible.<br><br>The pictures you were instructed to remember were the pictures followed by a <span style='color: dodgerblue; font-size: 28px'>O</span>.<br><br>In this memory test phase, you will also see some new pictures.<br>It is your task to remember whether you were presented with this specific picture in this study so far or not.<br>If you recognize an object (you have already seen it in this study), it is an OLD object. <br>If you do not recognize an object (you have NOT seen it in this study), it is a NEW object. <br><strong> Attention</strong>: As already mentioned, <span style='color: darkorange; font-size:28px'>Ø</span>-pictures will <strong>never</strong> appear in this memory test (neither as new objects). <br><br>Press SPACE to continue. </div>","32","","","","","","","","","","","","","","","","","","","",""
"html-keyboard-response","100","865683","0.0-3.0-6.0","3wm6avcueytxf50","instructions","5f15e3e14d733b70e097d14f","5f60e3c0a3b16e07647b2ff9","5f60ef38fc0d1f00090d454b","false","88638.40999966487","<div align=left> M and N no longer will appear on the left/right of the fixation cross. <br>Instead there will be a note at the bottom of the left or right side  <br>indicating which key you should press for an old or new object:  <br> <br>Press the <strong>right</strong> key to classify an object as <strong>old</strong> and press the <strong>left</strong>, to classify an object as <strong>new</strong>.<br>Please classify the objects as new/old by again placing your index finger on the 'S' and 'L' keys <br>and press them accordingly.<br><br><strong>Old:</strong> This object has been presented before. <br><strong>New:</strong> This object has <strong>not</strong> been presented.<br><br>Now please put your right and left index fingers on the 'S' and 'L' keys of your keyboard. <br>Please respond as fast and as accurately as possible!<br><br>Press SPACE to continue. </div>","32","","","","","","","","","","","","","","","","","","","",""
"categorize-image","101","867911","0.0-3.0-7.0-0.0","3wm6avcueytxf50","practice_recog","5f15e3e14d733b70e097d14f","5f60e3c0a3b16e07647b2ff9","5f60ef38fc0d1f00090d454b","true","1720.3799998387694","./Stimuli/ImagesPractice/SN221.jpg","83","","","","test","true","","83","","SN","SN221.jpg","","new","33","3","practice_recog","left","","","",""
"categorize-image","102","869295","0.0-3.0-7.0-0.1","3wm6avcueytxf50","practice_recog","5f15e3e14d733b70e097d14f","5f60e3c0a3b16e07647b2ff9","5f60ef38fc0d1f00090d454b","true","868.2099999859929","./Stimuli/ImagesPractice/SN205.jpg","83","","","","test","true","","83","","SN","SN205.jpg","","new","34","3","practice_recog","left","","","",""
"categorize-image","103","870794","0.0-3.0-7.0-0.2","3wm6avcueytxf50","practice_recog","5f15e3e14d733b70e097d14f","5f60e3c0a3b16e07647b2ff9","5f60ef38fc0d1f00090d454b","true","987.0700002647936","./Stimuli/ImagesPractice/SM98.jpg","76","","","","test","true","","76","","SM","SM98.jpg","","old","35","3","practice_recog","right","","","",""
"categorize-image","104","872282","0.0-3.0-7.0-0.3","3wm6avcueytxf50","practice_recog","5f15e3e14d733b70e097d14f","5f60e3c0a3b16e07647b2ff9","5f60ef38fc0d1f00090d454b","true","978.2650000415742","./Stimuli/ImagesPractice/LN72.jpg","83","","","","test","true","","83","","LN","LN72.jpg","","new","36","3","practice_recog","left","","","",""
"categorize-image","105","873740","0.0-3.0-7.0-0.4","3wm6avcueytxf50","practice_recog","5f15e3e14d733b70e097d14f","5f60e3c0a3b16e07647b2ff9","5f60ef38fc0d1f00090d454b","true","942.2849998809397","./Stimuli/ImagesPractice/SN76.jpg","83","","","","test","true","","83","","SN","SN76.jpg","","new","37","3","practice_recog","left","","","",""
"categorize-image","106","875264","0.0-3.0-7.0-0.5","3wm6avcueytxf50","practice_recog","5f15e3e14d733b70e097d14f","5f60e3c0a3b16e07647b2ff9","5f60ef38fc0d1f00090d454b","true","1020.0399998575449","./Stimuli/ImagesPractice/LM147.jpg","76","","","","test","true","","76","","LM","LM147.jpg","","old","38","3","practice_recog","right","","","",""
"categorize-image","107","876955","0.0-3.0-7.0-0.6","3wm6avcueytxf50","practice_recog","5f15e3e14d733b70e097d14f","5f60e3c0a3b16e07647b2ff9","5f60ef38fc0d1f00090d454b","true","1180.0649999640882","./Stimuli/ImagesPractice/SM37.jpg","76","","","","test","false","","83","","SM","SM37.jpg","","new","39","3","practice_recog","right","","","",""
"categorize-image","108","879168","0.0-3.0-7.0-0.7","3wm6avcueytxf50","practice_recog","5f15e3e14d733b70e097d14f","5f60e3c0a3b16e07647b2ff9","5f60ef38fc0d1f00090d454b","true","1702.95500010252","./Stimuli/ImagesPractice/LM224.jpg","76","","","","test","false","","83","","LM","LM224.jpg","","new","40","3","practice_recog","right","","","",""
"categorize-image","109","881169","0.0-3.0-7.0-0.8","3wm6avcueytxf50","practice_recog","5f15e3e14d733b70e097d14f","5f60e3c0a3b16e07647b2ff9","5f60ef38fc0d1f00090d454b","true","1488.700000103563","./Stimuli/ImagesPractice/LM230.jpg","76","","","","test","true","","76","","LM","LM230.jpg","","old","41","3","practice_recog","right","","","",""
"categorize-image","110","882811","0.0-3.0-7.0-0.9","3wm6avcueytxf50","practice_recog","5f15e3e14d733b70e097d14f","5f60e3c0a3b16e07647b2ff9","5f60ef38fc0d1f00090d454b","true","1129.0899999439716","./Stimuli/ImagesPractice/LN109.jpg","83","","","","test","true","","83","","LN","LN109.jpg","","new","42","3","practice_recog","left","","","",""
"categorize-image","111","884705","0.0-3.0-7.0-0.10","3wm6avcueytxf50","practice_recog","5f15e3e14d733b70e097d14f","5f60e3c0a3b16e07647b2ff9","5f60ef38fc0d1f00090d454b","true","1374.8500002548099","./Stimuli/ImagesPractice/SM97.jpg","76","","","","test","true","","76","","SM","SM97.jpg","","old","43","3","practice_recog","right","","","",""
"categorize-image","112","886504","0.0-3.0-7.0-0.11","3wm6avcueytxf50","practice_recog","5f15e3e14d733b70e097d14f","5f60e3c0a3b16e07647b2ff9","5f60ef38fc0d1f00090d454b","true","1295.1850001700222","./Stimuli/ImagesPractice/LM55.jpg","83","","","","test","false","","76","","LM","LM55.jpg","","old","44","3","practice_recog","left","","","",""
"categorize-image","113","888309","0.0-3.0-7.0-0.12","3wm6avcueytxf50","practice_recog","5f15e3e14d733b70e097d14f","5f60e3c0a3b16e07647b2ff9","5f60ef38fc0d1f00090d454b","true","1301.19499983266","./Stimuli/ImagesPractice/SN222.jpg","83","","","","test","false","","76","","SN","SN222.jpg","","old","45","3","practice_recog","left","","","",""
"categorize-image","114","890283","0.0-3.0-7.0-0.13","3wm6avcueytxf50","practice_recog","5f15e3e14d733b70e097d14f","5f60e3c0a3b16e07647b2ff9","5f60ef38fc0d1f00090d454b","true","1464.2849997617304","./Stimuli/ImagesPractice/LM143.jpg","76","","","","test","true","","76","","LM","LM143.jpg","","old","46","3","practice_recog","right","","","",""
"categorize-image","115","892105","0.0-3.0-7.0-0.14","3wm6avcueytxf50","practice_recog","5f15e3e14d733b70e097d14f","5f60e3c0a3b16e07647b2ff9","5f60ef38fc0d1f00090d454b","true","1314.0400000847876","./Stimuli/ImagesPractice/SM61.jpg","83","","","","test","true","","83","","SM","SM61.jpg","","new","47","3","practice_recog","left","","","",""
"categorize-image","116","893573","0.0-3.0-7.0-0.15","3wm6avcueytxf50","practice_recog","5f15e3e14d733b70e097d14f","5f60e3c0a3b16e07647b2ff9","5f60ef38fc0d1f00090d454b","true","952.3050002753735","./Stimuli/ImagesPractice/LN15.jpg","76","","","","test","true","","76","","LN","LN15.jpg","","old","48","3","practice_recog","right","","","",""
"html-keyboard-response","117","904935","0.0-3.0-8.0","3wm6avcueytxf50","instructions","5f15e3e14d733b70e097d14f","5f60e3c0a3b16e07647b2ff9","5f60ef38fc0d1f00090d454b","false","11359.610000159591","<div align=left> Great!<br><br>Are you ready to continue?<br>If you want to reread the instructions and redo the practice trials, please <br>press „Z“.<br><br>You can proceed when you are ready.<br><br>After the presentation of each object, you will receive an instruction whether to <br>remember or to forget the object.<br>We will test your memory of the following pictures only at the very end of <br>the experiment after all learning blocks are completed. <br><br>Press SPACE to CONTINUE when you are ready. </div>","32","","","","","","","","","","","","","","","","","","","",""
"html-keyboard-response","118","1005773","0.0-4.0-0.0","3wm6avcueytxf50","instructions","5f15e3e14d733b70e097d14f","5f60e3c0a3b16e07647b2ff9","5f60ef38fc0d1f00090d454b","false","100836.32999984547","<div align=left> The actual experiment is about to start.<br>The practice trials are over!<br><br>Please always respond both fast and accurately!<br><br>Remember: <br> <br><li> Please place your index fingers on the <strong>'S'</strong> and <strong>'L'</strong> keys <br>to respond as fast and accurately as possible.</li><li> Every picture can be classified as either mechanical or non-mechanical.</li><li> If you do not respond in time or commit an error, you will receive a corresponding feedback.<br> Please try to respond as <strong> fast </strong> and as <strong> accurately as possible </strong>.</li><li> Remember the <span style='color: dodgerblue; font-size: 28px'>O</span> pictures. <br></li><li> Please minimize distractions and stay focused. </li><br><br>Press SPACE to START.</div>","32","","","","","","","","","","","","","","","","","","","",""
"html-keyboard-response","119","1006477","0.0-4.0-1.0-0.0","3wm6avcueytxf50","prime","5f15e3e14d733b70e097d14f","5f60e3c0a3b16e07647b2ff9","5f60ef38fc0d1f00090d454b","false","null","<span style=""color: black; font-size: 48px"">M + N</span>","null","","","","resp_prompt","","","","","","","","","","","","","","","",""
"categorize-image","120","1007901","0.0-4.0-1.0-1.0","3wm6avcueytxf50","prime","5f15e3e14d733b70e097d14f","5f60e3c0a3b16e07647b2ff9","5f60ef38fc0d1f00090d454b","true","1416.240000165999","./Stimuli/SelectedImages/SN/SN93.bmp","76","","","","test","true","M + N","76","repetition","SN","SN93.bmp","remember","","49","3","prime1","right","","","",""
"html-keyboard-response","121","1009915","0.0-4.0-1.0-3.0","3wm6avcueytxf50","prime","5f15e3e14d733b70e097d14f","5f60e3c0a3b16e07647b2ff9","5f60ef38fc0d1f00090d454b","false","null","<div style=""align-items: center; display: flex; color: dodgerblue; font-size: 90px""><b>o</b></div>","null","","","","forget_cue","","","","","","","","","","","","","","","",""
"html-keyboard-response","122","1010629","0.0-4.0-1.0-0.1","3wm6avcueytxf50","prime","5f15e3e14d733b70e097d14f","5f60e3c0a3b16e07647b2ff9","5f60ef38fc0d1f00090d454b","false","null","<span style=""color: black; font-size: 48px"">M + N</span>","null","","","","resp_prompt","","","","","","","","","","","","","","","",""
"categorize-image","123","1011657","0.0-4.0-1.0-1.1","3wm6avcueytxf50","prime","5f15e3e14d733b70e097d14f","5f60e3c0a3b16e07647b2ff9","5f60ef38fc0d1f00090d454b","true","1023.8100001588464","./Stimuli/SelectedImages/LM/LM59.bmp","83","","","","test","true","M + N","83","switch","LM","LM59.bmp","forget","","50","3","prime1","left","","","",""
"html-keyboard-response","124","1013665","0.0-4.0-1.0-3.1","3wm6avcueytxf50","prime","5f15e3e14d733b70e097d14f","5f60e3c0a3b16e07647b2ff9","5f60ef38fc0d1f00090d454b","false","null","<div style=""align-items: center; display: flex; color: darkorange; font-size: 90px""><b>ø</b></div>","null","","","","forget_cue","","","","","","","","","","","","","","","",""
"html-keyboard-response","125","1014369","0.0-4.0-1.0-0.2","3wm6avcueytxf50","prime","5f15e3e14d733b70e097d14f","5f60e3c0a3b16e07647b2ff9","5f60ef38fc0d1f00090d454b","false","null","<span style=""color: black; font-size: 48px"">N + M</span>","null","","","","resp_prompt","","","","","","","","","","","","","","","",""
"categorize-image","126","1015199","0.0-4.0-1.0-1.2","3wm6avcueytxf50","prime","5f15e3e14d733b70e097d14f","5f60e3c0a3b16e07647b2ff9","5f60ef38fc0d1f00090d454b","true","821.9099999405444","./Stimuli/SelectedImages/SM/SM108.bmp","83","","","","test","false","N + M","76","switch","SM","SM108.bmp","remember","","51","3","prime1","left","","","",""
"html-keyboard-response","127","1015713","0.0-4.0-1.0-2.2-0.2","3wm6avcueytxf50","prime","5f15e3e14d733b70e097d14f","5f60e3c0a3b16e07647b2ff9","5f60ef38fc0d1f00090d454b","false","null","<span style=""color: red; font-size: 48px"">Error!</span>","null","","","","feedback","","","","","","","","","","","","","","","",""
"html-keyboard-response","128","1017716","0.0-4.0-1.0-3.2","3wm6avcueytxf50","prime","5f15e3e14d733b70e097d14f","5f60e3c0a3b16e07647b2ff9","5f60ef38fc0d1f00090d454b","false","null","<div style=""align-items: center; display: flex; color: dodgerblue; font-size: 90px""><b>o</b></div>","null","","","","forget_cue","","","","","","","","","","","","","","","",""
"html-keyboard-response","129","1018432","0.0-4.0-1.0-0.3","3wm6avcueytxf50","prime","5f15e3e14d733b70e097d14f","5f60e3c0a3b16e07647b2ff9","5f60ef38fc0d1f00090d454b","false","null","<span style=""color: black; font-size: 48px"">N + M</span>","null","","","","resp_prompt","","","","","","","","","","","","","","","",""
"categorize-image","130","1019221","0.0-4.0-1.0-1.3","3wm6avcueytxf50","prime","5f15e3e14d733b70e097d14f","5f60e3c0a3b16e07647b2ff9","5f60ef38fc0d1f00090d454b","true","782.5449998490512","./Stimuli/SelectedImages/LN/LN177.bmp","83","","","","test","true","N + M","83","switch","LN","LN177.bmp","forget","","52","3","prime1","left","","","",""
"html-keyboard-response","131","1021238","0.0-4.0-1.0-3.3","3wm6avcueytxf50","prime","5f15e3e14d733b70e097d14f","5f60e3c0a3b16e07647b2ff9","5f60ef38fc0d1f00090d454b","false","null","<div style=""align-items: center; display: flex; color: darkorange; font-size: 90px""><b>ø</b></div>","null","","","","forget_cue","","","","","","","","","","","","","","","",""
"html-keyboard-response","132","1021954","0.0-4.0-1.0-0.4","3wm6avcueytxf50","prime","5f15e3e14d733b70e097d14f","5f60e3c0a3b16e07647b2ff9","5f60ef38fc0d1f00090d454b","false","null","<span style=""color: black; font-size: 48px"">N + M</span>","null","","","","resp_prompt","","","","","","","","","","","","","","","",""
"categorize-image","133","1022846","0.0-4.0-1.0-1.4","3wm6avcueytxf50","prime","5f15e3e14d733b70e097d14f","5f60e3c0a3b16e07647b2ff9","5f60ef38fc0d1f00090d454b","true","885.7100000604987","./Stimuli/SelectedImages/LM/LM75.bmp","76","","","","test","true","N + M","76","repetition","LM","LM75.bmp","remember","","53","3","prime1","right","","","",""
"html-keyboard-response","134","1024850","0.0-4.0-1.0-3.4","3wm6avcueytxf50","prime","5f15e3e14d733b70e097d14f","5f60e3c0a3b16e07647b2ff9","5f60ef38fc0d1f00090d454b","false","null","<div style=""align-items: center; display: flex; color: dodgerblue; font-size: 90px""><b>o</b></div>","null","","","","forget_cue","","","","","","","","","","","","","","","",""
"html-keyboard-response","135","1025567","0.0-4.0-1.0-0.5","3wm6avcueytxf50","prime","5f15e3e14d733b70e097d14f","5f60e3c0a3b16e07647b2ff9","5f60ef38fc0d1f00090d454b","false","null","<span style=""color: black; font-size: 48px"">N + M</span>","null","","","","resp_prompt","","","","","","","","","","","","","","","",""
"categorize-image","136","1026259","0.0-4.0-1.0-1.5","3wm6avcueytxf50","prime","5f15e3e14d733b70e097d14f","5f60e3c0a3b16e07647b2ff9","5f60ef38fc0d1f00090d454b","true","687.1299999766052","./Stimuli/SelectedImages/SM/SM73.bmp","76","","","","test","true","N + M","76","repetition","SM","SM73.bmp","remember","","54","3","prime1","right","","","",""
"html-keyboard-response","137","1028265","0.0-4.0-1.0-3.5","3wm6avcueytxf50","prime","5f15e3e14d733b70e097d14f","5f60e3c0a3b16e07647b2ff9","5f60ef38fc0d1f00090d454b","false","null","<div style=""align-items: center; display: flex; color: dodgerblue; font-size: 90px""><b>o</b></div>","null","","","","forget_cue","","","","","","","","","","","","","","","",""
"html-keyboard-response","138","1028968","0.0-4.0-1.0-0.6","3wm6avcueytxf50","prime","5f15e3e14d733b70e097d14f","5f60e3c0a3b16e07647b2ff9","5f60ef38fc0d1f00090d454b","false","null","<span style=""color: black; font-size: 48px"">M + N</span>","null","","","","resp_prompt","","","","","","","","","","","","","","","",""
"categorize-image","139","1029736","0.0-4.0-1.0-1.6","3wm6avcueytxf50","prime","5f15e3e14d733b70e097d14f","5f60e3c0a3b16e07647b2ff9","5f60ef38fc0d1f00090d454b","true","762.4150002375245","./Stimuli/SelectedImages/SM/SM200.bmp","83","","","","test","true","M + N","83","repetition","SM","SM200.bmp","remember","","55","3","prime1","left","","","",""
"html-keyboard-response","140","1031745","0.0-4.0-1.0-3.6","3wm6avcueytxf50","prime","5f15e3e14d733b70e097d14f","5f60e3c0a3b16e07647b2ff9","5f60ef38fc0d1f00090d454b","false","null","<div style=""align-items: center; display: flex; color: dodgerblue; font-size: 90px""><b>o</b></div>","null","","","","forget_cue","","","","","","","","","","","","","","","",""
"html-keyboard-response","141","1032461","0.0-4.0-1.0-0.7","3wm6avcueytxf50","prime","5f15e3e14d733b70e097d14f","5f60e3c0a3b16e07647b2ff9","5f60ef38fc0d1f00090d454b","false","null","<span style=""color: black; font-size: 48px"">N + M</span>","null","","","","resp_prompt","","","","","","","","","","","","","","","",""
"categorize-image","142","1033177","0.0-4.0-1.0-1.7","3wm6avcueytxf50","prime","5f15e3e14d733b70e097d14f","5f60e3c0a3b16e07647b2ff9","5f60ef38fc0d1f00090d454b","true","709.3500001356006","./Stimuli/SelectedImages/LN/LN12.bmp","83","","","","test","true","N + M","83","repetition","LN","LN12.bmp","remember","","56","3","prime1","left","","","",""
"html-keyboard-response","143","1035183","0.0-4.0-1.0-3.7","3wm6avcueytxf50","prime","5f15e3e14d733b70e097d14f","5f60e3c0a3b16e07647b2ff9","5f60ef38fc0d1f00090d454b","false","null","<div style=""align-items: center; display: flex; color: dodgerblue; font-size: 90px""><b>o</b></div>","null","","","","forget_cue","","","","","","","","","","","","","","","",""
"html-keyboard-response","144","1035885","0.0-4.0-1.0-0.8","3wm6avcueytxf50","prime","5f15e3e14d733b70e097d14f","5f60e3c0a3b16e07647b2ff9","5f60ef38fc0d1f00090d454b","false","null","<span style=""color: black; font-size: 48px"">M + N</span>","null","","","","resp_prompt","","","","","","","","","","","","","","","",""
"categorize-image","145","1036619","0.0-4.0-1.0-1.8","3wm6avcueytxf50","prime","5f15e3e14d733b70e097d14f","5f60e3c0a3b16e07647b2ff9","5f60ef38fc0d1f00090d454b","true","728.6350000649691","./Stimuli/SelectedImages/LN/LN92.bmp","76","","","","test","true","M + N","76","switch","LN","LN92.bmp","remember","","57","3","prime1","right","","","",""
"html-keyboard-response","146","1038631","0.0-4.0-1.0-3.8","3wm6avcueytxf50","prime","5f15e3e14d733b70e097d14f","5f60e3c0a3b16e07647b2ff9","5f60ef38fc0d1f00090d454b","false","null","<div style=""align-items: center; display: flex; color: dodgerblue; font-size: 90px""><b>o</b></div>","null","","","","forget_cue","","","","","","","","","","","","","","","",""
"html-keyboard-response","147","1039345","0.0-4.0-1.0-0.9","3wm6avcueytxf50","prime","5f15e3e14d733b70e097d14f","5f60e3c0a3b16e07647b2ff9","5f60ef38fc0d1f00090d454b","false","null","<span style=""color: black; font-size: 48px"">M + N</span>","null","","","","resp_prompt","","","","","","","","","","","","","","","",""
"categorize-image","148","1040232","0.0-4.0-1.0-1.9","3wm6avcueytxf50","prime","5f15e3e14d733b70e097d14f","5f60e3c0a3b16e07647b2ff9","5f60ef38fc0d1f00090d454b","true","881.5850000828505","./Stimuli/SelectedImages/SM/SM195.bmp","76","","","","test","false","M + N","83","switch","SM","SM195.bmp","forget","","58","3","prime1","right","","","",""
"html-keyboard-response","149","1040744","0.0-4.0-1.0-2.9-0.9","3wm6avcueytxf50","prime","5f15e3e14d733b70e097d14f","5f60e3c0a3b16e07647b2ff9","5f60ef38fc0d1f00090d454b","false","null","<span style=""color: red; font-size: 48px"">Error!</span>","null","","","","feedback","","","","","","","","","","","","","","","",""
"html-keyboard-response","150","1042749","0.0-4.0-1.0-3.9","3wm6avcueytxf50","prime","5f15e3e14d733b70e097d14f","5f60e3c0a3b16e07647b2ff9","5f60ef38fc0d1f00090d454b","false","null","<div style=""align-items: center; display: flex; color: darkorange; font-size: 90px""><b>ø</b></div>","null","","","","forget_cue","","","","","","","","","","","","","","","",""
"html-keyboard-response","151","1043451","0.0-4.0-1.0-0.10","3wm6avcueytxf50","prime","5f15e3e14d733b70e097d14f","5f60e3c0a3b16e07647b2ff9","5f60ef38fc0d1f00090d454b","false","null","<span style=""color: black; font-size: 48px"">M + N</span>","null","","","","resp_prompt","","","","","","","","","","","","","","","",""
"categorize-image","152","1044180","0.0-4.0-1.0-1.10","3wm6avcueytxf50","prime","5f15e3e14d733b70e097d14f","5f60e3c0a3b16e07647b2ff9","5f60ef38fc0d1f00090d454b","true","722.4500002339482","./Stimuli/SelectedImages/LN/LN150.bmp","76","","","","test","true","M + N","76","repetition","LN","LN150.bmp","remember","","59","3","prime1","right","","","",""
"html-keyboard-response","153","1046188","0.0-4.0-1.0-3.10","3wm6avcueytxf50","prime","5f15e3e14d733b70e097d14f","5f60e3c0a3b16e07647b2ff9","5f60ef38fc0d1f00090d454b","false","null","<div style=""align-items: center; display: flex; color: dodgerblue; font-size: 90px""><b>o</b></div>","null","","","","forget_cue","","","","","","","","","","","","","","","",""
"html-keyboard-response","154","1046893","0.0-4.0-1.0-0.11","3wm6avcueytxf50","prime","5f15e3e14d733b70e097d14f","5f60e3c0a3b16e07647b2ff9","5f60ef38fc0d1f00090d454b","false","null","<span style=""color: black; font-size: 48px"">N + M</span>","null","","","","resp_prompt","","","","","","","","","","","","","","","",""
"categorize-image","155","1047518","0.0-4.0-1.0-1.11","3wm6avcueytxf50","prime","5f15e3e14d733b70e097d14f","5f60e3c0a3b16e07647b2ff9","5f60ef38fc0d1f00090d454b","true","619.1750001162291","./Stimuli/SelectedImages/SN/SN52.bmp","83","","","","test","true","N + M","83","repetition","SN","SN52.bmp","remember","","60","3","prime1","left","","","",""
"html-keyboard-response","156","1049521","0.0-4.0-1.0-3.11","3wm6avcueytxf50","prime","5f15e3e14d733b70e097d14f","5f60e3c0a3b16e07647b2ff9","5f60ef38fc0d1f00090d454b","false","null","<div style=""align-items: center; display: flex; color: dodgerblue; font-size: 90px""><b>o</b></div>","null","","","","forget_cue","","","","","","","","","","","","","","","",""
"html-keyboard-response","157","1050228","0.0-4.0-1.0-0.12","3wm6avcueytxf50","prime","5f15e3e14d733b70e097d14f","5f60e3c0a3b16e07647b2ff9","5f60ef38fc0d1f00090d454b","false","null","<span style=""color: black; font-size: 48px"">M + N</span>","null","","","","resp_prompt","","","","","","","","","","","","","","","",""
"categorize-image","158","1051578","0.0-4.0-1.0-1.12","3wm6avcueytxf50","prime","5f15e3e14d733b70e097d14f","5f60e3c0a3b16e07647b2ff9","5f60ef38fc0d1f00090d454b","true","1343.2100000791252","./Stimuli/SelectedImages/LN/LN82.bmp","76","","","","test","true","M + N","76","switch","LN","LN82.bmp","forget","","61","3","prime1","right","","","",""
"html-keyboard-response","159","1053582","0.0-4.0-1.0-3.12","3wm6avcueytxf50","prime","5f15e3e14d733b70e097d14f","5f60e3c0a3b16e07647b2ff9","5f60ef38fc0d1f00090d454b","false","null","<div style=""align-items: center; display: flex; color: darkorange; font-size: 90px""><b>ø</b></div>","null","","","","forget_cue","","","","","","","","","","","","","","","",""
"html-keyboard-response","160","1054292","0.0-4.0-1.0-0.13","3wm6avcueytxf50","prime","5f15e3e14d733b70e097d14f","5f60e3c0a3b16e07647b2ff9","5f60ef38fc0d1f00090d454b","false","null","<span style=""color: black; font-size: 48px"">M + N</span>","null","","","","resp_prompt","","","","","","","","","","","","","","","",""
"categorize-image","161","1055066","0.0-4.0-1.0-1.13","3wm6avcueytxf50","prime","5f15e3e14d733b70e097d14f","5f60e3c0a3b16e07647b2ff9","5f60ef38fc0d1f00090d454b","true","766.4700001478195","./Stimuli/SelectedImages/SN/SN140.bmp","76","","","","test","true","M + N","76","switch","SN","SN140.bmp","remember","","62","3","prime1","right","","","",""
"html-keyboard-response","162","1057079","0.0-4.0-1.0-3.13","3wm6avcueytxf50","prime","5f15e3e14d733b70e097d14f","5f60e3c0a3b16e07647b2ff9","5f60ef38fc0d1f00090d454b","false","null","<div style=""align-items: center; display: flex; color: dodgerblue; font-size: 90px""><b>o</b></div>","null","","","","forget_cue","","","","","","","","","","","","","","","",""
"html-keyboard-response","163","1057781","0.0-4.0-1.0-0.14","3wm6avcueytxf50","prime","5f15e3e14d733b70e097d14f","5f60e3c0a3b16e07647b2ff9","5f60ef38fc0d1f00090d454b","false","null","<span style=""color: black; font-size: 48px"">N + M</span>","null","","","","resp_prompt","","","","","","","","","","","","","","","",""
"categorize-image","164","1058502","0.0-4.0-1.0-1.14","3wm6avcueytxf50","prime","5f15e3e14d733b70e097d14f","5f60e3c0a3b16e07647b2ff9","5f60ef38fc0d1f00090d454b","true","716.8149999342859","./Stimuli/SelectedImages/SN/SN182.bmp","83","","","","test","true","N + M","83","switch","SN","SN182.bmp","remember","","63","3","prime1","left","","","",""
"html-keyboard-response","165","1060510","0.0-4.0-1.0-3.14","3wm6avcueytxf50","prime","5f15e3e14d733b70e097d14f","5f60e3c0a3b16e07647b2ff9","5f60ef38fc0d1f00090d454b","false","null","<div style=""align-items: center; display: flex; color: dodgerblue; font-size: 90px""><b>o</b></div>","null","","","","forget_cue","","","","","","","","","","","","","","","",""
"html-keyboard-response","166","1061213","0.0-4.0-1.0-0.15","3wm6avcueytxf50","prime","5f15e3e14d733b70e097d14f","5f60e3c0a3b16e07647b2ff9","5f60ef38fc0d1f00090d454b","false","null","<span style=""color: black; font-size: 48px"">M + N</span>","null","","","","resp_prompt","","","","","","","","","","","","","","","",""
"categorize-image","167","1062370","0.0-4.0-1.0-1.15","3wm6avcueytxf50","prime","5f15e3e14d733b70e097d14f","5f60e3c0a3b16e07647b2ff9","5f60ef38fc0d1f00090d454b","true","1150.0349999405444","./Stimuli/SelectedImages/LM/LM167.bmp","83","","","","test","true","M + N","83","switch","LM","LM167.bmp","forget","","64","3","prime1","left","","","",""
"html-keyboard-response","168","1064384","0.0-4.0-1.0-3.15","3wm6avcueytxf50","prime","5f15e3e14d733b70e097d14f","5f60e3c0a3b16e07647b2ff9","5f60ef38fc0d1f00090d454b","false","null","<div style=""align-items: center; display: flex; color: darkorange; font-size: 90px""><b>ø</b></div>","null","","","","forget_cue","","","","","","","","","","","","","","","",""
"html-keyboard-response","169","1065089","0.0-4.0-1.0-0.16","3wm6avcueytxf50","prime","5f15e3e14d733b70e097d14f","5f60e3c0a3b16e07647b2ff9","5f60ef38fc0d1f00090d454b","false","null","<span style=""color: black; font-size: 48px"">N + M</span>","null","","","","resp_prompt","","","","","","","","","","","","","","","",""
"categorize-image","170","1065955","0.0-4.0-1.0-1.16","3wm6avcueytxf50","prime","5f15e3e14d733b70e097d14f","5f60e3c0a3b16e07647b2ff9","5f60ef38fc0d1f00090d454b","true","859.390000347048","./Stimuli/SelectedImages/SN/SN187.bmp","83","","","","test","true","N + M","83","switch","SN","SN187.bmp","forget","","65","3","prime1","left","","","",""
"html-keyboard-response","171","1067974","0.0-4.0-1.0-3.16","3wm6avcueytxf50","prime","5f15e3e14d733b70e097d14f","5f60e3c0a3b16e07647b2ff9","5f60ef38fc0d1f00090d454b","false","null","<div style=""align-items: center; display: flex; color: darkorange; font-size: 90px""><b>ø</b></div>","null","","","","forget_cue","","","","","","","","","","","","","","","",""
"html-keyboard-response","172","1068677","0.0-4.0-1.0-0.17","3wm6avcueytxf50","prime","5f15e3e14d733b70e097d14f","5f60e3c0a3b16e07647b2ff9","5f60ef38fc0d1f00090d454b","false","null","<span style=""color: black; font-size: 48px"">M + N</span>","null","","","","resp_prompt","","","","","","","","","","","","","","","",""
"categorize-image","173","1069313","0.0-4.0-1.0-1.17","3wm6avcueytxf50","prime","5f15e3e14d733b70e097d14f","5f60e3c0a3b16e07647b2ff9","5f60ef38fc0d1f00090d454b","true","628.8250000216067","./Stimuli/SelectedImages/SN/SN181.bmp","76","","","","test","true","M + N","76","switch","SN","SN181.bmp","remember","","66","3","prime1","right","","","",""
"html-keyboard-response","174","1071324","0.0-4.0-1.0-3.17","3wm6avcueytxf50","prime","5f15e3e14d733b70e097d14f","5f60e3c0a3b16e07647b2ff9","5f60ef38fc0d1f00090d454b","false","null","<div style=""align-items: center; display: flex; color: dodgerblue; font-size: 90px""><b>o</b></div>","null","","","","forget_cue","","","","","","","","","","","","","","","",""
"html-keyboard-response","175","1072039","0.0-4.0-1.0-0.18","3wm6avcueytxf50","prime","5f15e3e14d733b70e097d14f","5f60e3c0a3b16e07647b2ff9","5f60ef38fc0d1f00090d454b","false","null","<span style=""color: black; font-size: 48px"">N + M</span>","null","","","","resp_prompt","","","","","","","","","","","","","","","",""
"categorize-image","176","1072636","0.0-4.0-1.0-1.18","3wm6avcueytxf50","prime","5f15e3e14d733b70e097d14f","5f60e3c0a3b16e07647b2ff9","5f60ef38fc0d1f00090d454b","true","590.4199997894466","./Stimuli/SelectedImages/LM/LM235.bmp","76","","","","test","true","N + M","76","switch","LM","LM235.bmp","forget","","67","3","prime1","right","","","",""
"html-keyboard-response","177","1074658","0.0-4.0-1.0-3.18","3wm6avcueytxf50","prime","5f15e3e14d733b70e097d14f","5f60e3c0a3b16e07647b2ff9","5f60ef38fc0d1f00090d454b","false","null","<div style=""align-items: center; display: flex; color: darkorange; font-size: 90px""><b>ø</b></div>","null","","","","forget_cue","","","","","","","","","","","","","","","",""
"html-keyboard-response","178","1075363","0.0-4.0-1.0-0.19","3wm6avcueytxf50","prime","5f15e3e14d733b70e097d14f","5f60e3c0a3b16e07647b2ff9","5f60ef38fc0d1f00090d454b","false","null","<span style=""color: black; font-size: 48px"">M + N</span>","null","","","","resp_prompt","","","","","","","","","","","","","","","",""
"categorize-image","179","1075993","0.0-4.0-1.0-1.19","3wm6avcueytxf50","prime","5f15e3e14d733b70e097d14f","5f60e3c0a3b16e07647b2ff9","5f60ef38fc0d1f00090d454b","true","623.7300001084805","./Stimuli/SelectedImages/SN/SN111.bmp","76","","","","test","true","M + N","76","switch","SN","SN111.bmp","forget","","68","3","prime1","right","","","",""
"html-keyboard-response","180","1078001","0.0-4.0-1.0-3.19","3wm6avcueytxf50","prime","5f15e3e14d733b70e097d14f","5f60e3c0a3b16e07647b2ff9","5f60ef38fc0d1f00090d454b","false","null","<div style=""align-items: center; display: flex; color: darkorange; font-size: 90px""><b>ø</b></div>","null","","","","forget_cue","","","","","","","","","","","","","","","",""
"html-keyboard-response","181","1078717","0.0-4.0-1.0-0.20","3wm6avcueytxf50","prime","5f15e3e14d733b70e097d14f","5f60e3c0a3b16e07647b2ff9","5f60ef38fc0d1f00090d454b","false","null","<span style=""color: black; font-size: 48px"">M + N</span>","null","","","","resp_prompt","","","","","","","","","","","","","","","",""
"categorize-image","182","1079465","0.0-4.0-1.0-1.20","3wm6avcueytxf50","prime","5f15e3e14d733b70e097d14f","5f60e3c0a3b16e07647b2ff9","5f60ef38fc0d1f00090d454b","true","742.1099999919534","./Stimuli/SelectedImages/SM/SM74.bmp","76","","","","test","false","M + N","83","repetition","SM","SM74.bmp","forget","","69","3","prime1","right","","","",""
"html-keyboard-response","183","1079975","0.0-4.0-1.0-2.20-0.20","3wm6avcueytxf50","prime","5f15e3e14d733b70e097d14f","5f60e3c0a3b16e07647b2ff9","5f60ef38fc0d1f00090d454b","false","null","<span style=""color: red; font-size: 48px"">Error!</span>","null","","","","feedback","","","","","","","","","","","","","","","",""
"html-keyboard-response","184","1081977","0.0-4.0-1.0-3.20","3wm6avcueytxf50","prime","5f15e3e14d733b70e097d14f","5f60e3c0a3b16e07647b2ff9","5f60ef38fc0d1f00090d454b","false","null","<div style=""align-items: center; display: flex; color: darkorange; font-size: 90px""><b>ø</b></div>","null","","","","forget_cue","","","","","","","","","","","","","","","",""
"html-keyboard-response","185","1082680","0.0-4.0-1.0-0.21","3wm6avcueytxf50","prime","5f15e3e14d733b70e097d14f","5f60e3c0a3b16e07647b2ff9","5f60ef38fc0d1f00090d454b","false","null","<span style=""color: black; font-size: 48px"">N + M</span>","null","","","","resp_prompt","","","","","","","","","","","","","","","",""
"categorize-image","186","1083316","0.0-4.0-1.0-1.21","3wm6avcueytxf50","prime","5f15e3e14d733b70e097d14f","5f60e3c0a3b16e07647b2ff9","5f60ef38fc0d1f00090d454b","true","629.8799999058247","./Stimuli/SelectedImages/SN/SN49.bmp","83","","","","test","true","N + M","83","switch","SN","SN49.bmp","forget","","70","3","prime1","left","","","",""
"html-keyboard-response","187","1085326","0.0-4.0-1.0-3.21","3wm6avcueytxf50","prime","5f15e3e14d733b70e097d14f","5f60e3c0a3b16e07647b2ff9","5f60ef38fc0d1f00090d454b","false","null","<div style=""align-items: center; display: flex; color: darkorange; font-size: 90px""><b>ø</b></div>","null","","","","forget_cue","","","","","","","","","","","","","","","",""
"html-keyboard-response","188","1086034","0.0-4.0-1.0-0.22","3wm6avcueytxf50","prime","5f15e3e14d733b70e097d14f","5f60e3c0a3b16e07647b2ff9","5f60ef38fc0d1f00090d454b","false","null","<span style=""color: black; font-size: 48px"">M + N</span>","null","","","","resp_prompt","","","","","","","","","","","","","","","",""
"categorize-image","189","1086864","0.0-4.0-1.0-1.22","3wm6avcueytxf50","prime","5f15e3e14d733b70e097d14f","5f60e3c0a3b16e07647b2ff9","5f60ef38fc0d1f00090d454b","true","825.650000013411","./Stimuli/SelectedImages/SM/SM24.bmp","83","","","","test","true","M + N","83","switch","SM","SM24.bmp","forget","","71","3","prime1","left","","","",""
"html-keyboard-response","190","1088870","0.0-4.0-1.0-3.22","3wm6avcueytxf50","prime","5f15e3e14d733b70e097d14f","5f60e3c0a3b16e07647b2ff9","5f60ef38fc0d1f00090d454b","false","null","<div style=""align-items: center; display: flex; color: darkorange; font-size: 90px""><b>ø</b></div>","null","","","","forget_cue","","","","","","","","","","","","","","","",""
"html-keyboard-response","191","1089586","0.0-4.0-1.0-0.23","3wm6avcueytxf50","prime","5f15e3e14d733b70e097d14f","5f60e3c0a3b16e07647b2ff9","5f60ef38fc0d1f00090d454b","false","null","<span style=""color: black; font-size: 48px"">N + M</span>","null","","","","resp_prompt","","","","","","","","","","","","","","","",""
"categorize-image","192","1090267","0.0-4.0-1.0-1.23","3wm6avcueytxf50","prime","5f15e3e14d733b70e097d14f","5f60e3c0a3b16e07647b2ff9","5f60ef38fc0d1f00090d454b","true","677.0299999043345","./Stimuli/SelectedImages/SN/SN60.bmp","83","","","","test","true","N + M","83","repetition","SN","SN60.bmp","forget","","72","3","prime1","left","","","",""
"html-keyboard-response","193","1092274","0.0-4.0-1.0-3.23","3wm6avcueytxf50","prime","5f15e3e14d733b70e097d14f","5f60e3c0a3b16e07647b2ff9","5f60ef38fc0d1f00090d454b","false","null","<div style=""align-items: center; display: flex; color: darkorange; font-size: 90px""><b>ø</b></div>","null","","","","forget_cue","","","","","","","","","","","","","","","",""
"html-keyboard-response","194","1092982","0.0-4.0-1.0-0.24","3wm6avcueytxf50","prime","5f15e3e14d733b70e097d14f","5f60e3c0a3b16e07647b2ff9","5f60ef38fc0d1f00090d454b","false","null","<span style=""color: black; font-size: 48px"">M + N</span>","null","","","","resp_prompt","","","","","","","","","","","","","","","",""
"categorize-image","195","1093659","0.0-4.0-1.0-1.24","3wm6avcueytxf50","prime","5f15e3e14d733b70e097d14f","5f60e3c0a3b16e07647b2ff9","5f60ef38fc0d1f00090d454b","true","670.4700002446771","./Stimuli/SelectedImages/SM/SM76.bmp","83","","","","test","true","M + N","83","switch","SM","SM76.bmp","remember","","73","3","prime1","left","","","",""
"html-keyboard-response","196","1095666","0.0-4.0-1.0-3.24","3wm6avcueytxf50","prime","5f15e3e14d733b70e097d14f","5f60e3c0a3b16e07647b2ff9","5f60ef38fc0d1f00090d454b","false","null","<div style=""align-items: center; display: flex; color: dodgerblue; font-size: 90px""><b>o</b></div>","null","","","","forget_cue","","","","","","","","","","","","","","","",""
"html-keyboard-response","197","1096376","0.0-4.0-1.0-0.25","3wm6avcueytxf50","prime","5f15e3e14d733b70e097d14f","5f60e3c0a3b16e07647b2ff9","5f60ef38fc0d1f00090d454b","false","null","<span style=""color: black; font-size: 48px"">M + N</span>","null","","","","resp_prompt","","","","","","","","","","","","","","","",""
"categorize-image","198","1096991","0.0-4.0-1.0-1.25","3wm6avcueytxf50","prime","5f15e3e14d733b70e097d14f","5f60e3c0a3b16e07647b2ff9","5f60ef38fc0d1f00090d454b","true","608.6450000293553","./Stimuli/SelectedImages/LN/LN128.bmp","76","","","","test","true","M + N","76","switch","LN","LN128.bmp","forget","","74","3","prime1","right","","","",""
"html-keyboard-response","199","1098996","0.0-4.0-1.0-3.25","3wm6avcueytxf50","prime","5f15e3e14d733b70e097d14f","5f60e3c0a3b16e07647b2ff9","5f60ef38fc0d1f00090d454b","false","null","<div style=""align-items: center; display: flex; color: darkorange; font-size: 90px""><b>ø</b></div>","null","","","","forget_cue","","","","","","","","","","","","","","","",""
"html-keyboard-response","200","1099699","0.0-4.0-1.0-0.26","3wm6avcueytxf50","prime","5f15e3e14d733b70e097d14f","5f60e3c0a3b16e07647b2ff9","5f60ef38fc0d1f00090d454b","false","null","<span style=""color: black; font-size: 48px"">N + M</span>","null","","","","resp_prompt","","","","","","","","","","","","","","","",""
"categorize-image","201","1100345","0.0-4.0-1.0-1.26","3wm6avcueytxf50","prime","5f15e3e14d733b70e097d14f","5f60e3c0a3b16e07647b2ff9","5f60ef38fc0d1f00090d454b","true","640.3200002387166","./Stimuli/SelectedImages/SN/SN179.bmp","83","","","","test","true","N + M","83","repetition","SN","SN179.bmp","remember","","75","3","prime1","left","","","",""
"html-keyboard-response","202","1102363","0.0-4.0-1.0-3.26","3wm6avcueytxf50","prime","5f15e3e14d733b70e097d14f","5f60e3c0a3b16e07647b2ff9","5f60ef38fc0d1f00090d454b","false","null","<div style=""align-items: center; display: flex; color: dodgerblue; font-size: 90px""><b>o</b></div>","null","","","","forget_cue","","","","","","","","","","","","","","","",""
"html-keyboard-response","203","1103070","0.0-4.0-1.0-0.27","3wm6avcueytxf50","prime","5f15e3e14d733b70e097d14f","5f60e3c0a3b16e07647b2ff9","5f60ef38fc0d1f00090d454b","false","null","<span style=""color: black; font-size: 48px"">M + N</span>","null","","","","resp_prompt","","","","","","","","","","","","","","","",""
"categorize-image","204","1103683","0.0-4.0-1.0-1.27","3wm6avcueytxf50","prime","5f15e3e14d733b70e097d14f","5f60e3c0a3b16e07647b2ff9","5f60ef38fc0d1f00090d454b","true","609.5949998125434","./Stimuli/SelectedImages/LM/LM150.bmp","83","","","","test","true","M + N","83","repetition","LM","LM150.bmp","forget","","76","3","prime1","left","","","",""
"html-keyboard-response","205","1105688","0.0-4.0-1.0-3.27","3wm6avcueytxf50","prime","5f15e3e14d733b70e097d14f","5f60e3c0a3b16e07647b2ff9","5f60ef38fc0d1f00090d454b","false","null","<div style=""align-items: center; display: flex; color: darkorange; font-size: 90px""><b>ø</b></div>","null","","","","forget_cue","","","","","","","","","","","","","","","",""
"html-keyboard-response","206","1106401","0.0-4.0-1.0-0.28","3wm6avcueytxf50","prime","5f15e3e14d733b70e097d14f","5f60e3c0a3b16e07647b2ff9","5f60ef38fc0d1f00090d454b","false","null","<span style=""color: black; font-size: 48px"">N + M</span>","null","","","","resp_prompt","","","","","","","","","","","","","","","",""
"categorize-image","207","1107085","0.0-4.0-1.0-1.28","3wm6avcueytxf50","prime","5f15e3e14d733b70e097d14f","5f60e3c0a3b16e07647b2ff9","5f60ef38fc0d1f00090d454b","true","676.9600003026426","./Stimuli/SelectedImages/LN/LN131.bmp","83","","","","test","true","N + M","83","switch","LN","LN131.bmp","forget","","77","3","prime1","left","","","",""
"html-keyboard-response","208","1109093","0.0-4.0-1.0-3.28","3wm6avcueytxf50","prime","5f15e3e14d733b70e097d14f","5f60e3c0a3b16e07647b2ff9","5f60ef38fc0d1f00090d454b","false","null","<div style=""align-items: center; display: flex; color: darkorange; font-size: 90px""><b>ø</b></div>","null","","","","forget_cue","","","","","","","","","","","","","","","",""
"html-keyboard-response","209","1109796","0.0-4.0-1.0-0.29","3wm6avcueytxf50","prime","5f15e3e14d733b70e097d14f","5f60e3c0a3b16e07647b2ff9","5f60ef38fc0d1f00090d454b","false","null","<span style=""color: black; font-size: 48px"">M + N</span>","null","","","","resp_prompt","","","","","","","","","","","","","","","",""
"categorize-image","210","1110354","0.0-4.0-1.0-1.29","3wm6avcueytxf50","prime","5f15e3e14d733b70e097d14f","5f60e3c0a3b16e07647b2ff9","5f60ef38fc0d1f00090d454b","true","551.7700002528727","./Stimuli/SelectedImages/LM/LM100.bmp","83","","","","test","true","M + N","83","repetition","LM","LM100.bmp","forget","","78","3","prime1","left","","","",""
"html-keyboard-response","211","1112366","0.0-4.0-1.0-3.29","3wm6avcueytxf50","prime","5f15e3e14d733b70e097d14f","5f60e3c0a3b16e07647b2ff9","5f60ef38fc0d1f00090d454b","false","null","<div style=""align-items: center; display: flex; color: darkorange; font-size: 90px""><b>ø</b></div>","null","","","","forget_cue","","","","","","","","","","","","","","","",""
"html-keyboard-response","212","1113068","0.0-4.0-1.0-0.30","3wm6avcueytxf50","prime","5f15e3e14d733b70e097d14f","5f60e3c0a3b16e07647b2ff9","5f60ef38fc0d1f00090d454b","false","null","<span style=""color: black; font-size: 48px"">N + M</span>","null","","","","resp_prompt","","","","","","","","","","","","","","","",""
"categorize-image","213","1113726","0.0-4.0-1.0-1.30","3wm6avcueytxf50","prime","5f15e3e14d733b70e097d14f","5f60e3c0a3b16e07647b2ff9","5f60ef38fc0d1f00090d454b","true","652.7950000017881","./Stimuli/SelectedImages/LM/LM51.bmp","76","","","","test","true","N + M","76","repetition","LM","LM51.bmp","remember","","79","3","prime1","right","","","",""
"html-keyboard-response","214","1115729","0.0-4.0-1.0-3.30","3wm6avcueytxf50","prime","5f15e3e14d733b70e097d14f","5f60e3c0a3b16e07647b2ff9","5f60ef38fc0d1f00090d454b","false","null","<div style=""align-items: center; display: flex; color: dodgerblue; font-size: 90px""><b>o</b></div>","null","","","","forget_cue","","","","","","","","","","","","","","","",""
"html-keyboard-response","215","1116431","0.0-4.0-1.0-0.31","3wm6avcueytxf50","prime","5f15e3e14d733b70e097d14f","5f60e3c0a3b16e07647b2ff9","5f60ef38fc0d1f00090d454b","false","null","<span style=""color: black; font-size: 48px"">N + M</span>","null","","","","resp_prompt","","","","","","","","","","","","","","","",""
"categorize-image","216","1117371","0.0-4.0-1.0-1.31","3wm6avcueytxf50","prime","5f15e3e14d733b70e097d14f","5f60e3c0a3b16e07647b2ff9","5f60ef38fc0d1f00090d454b","true","934.2600000090897","./Stimuli/SelectedImages/SM/SM213.bmp","76","","","","test","true","N + M","76","repetition","SM","SM213.bmp","forget","","80","3","prime1","right","","","",""
"html-keyboard-response","217","1119383","0.0-4.0-1.0-3.31","3wm6avcueytxf50","prime","5f15e3e14d733b70e097d14f","5f60e3c0a3b16e07647b2ff9","5f60ef38fc0d1f00090d454b","false","null","<div style=""align-items: center; display: flex; color: darkorange; font-size: 90px""><b>ø</b></div>","null","","","","forget_cue","","","","","","","","","","","","","","","",""
"html-keyboard-response","218","1120094","0.0-4.0-1.0-0.32","3wm6avcueytxf50","prime","5f15e3e14d733b70e097d14f","5f60e3c0a3b16e07647b2ff9","5f60ef38fc0d1f00090d454b","false","null","<span style=""color: black; font-size: 48px"">M + N</span>","null","","","","resp_prompt","","","","","","","","","","","","","","","",""
"categorize-image","219","1121175","0.0-4.0-1.0-1.32","3wm6avcueytxf50","prime","5f15e3e14d733b70e097d14f","5f60e3c0a3b16e07647b2ff9","5f60ef38fc0d1f00090d454b","true","1075.3549998626113","./Stimuli/SelectedImages/SM/SM128.bmp","76","","","","test","false","M + N","83","switch","SM","SM128.bmp","remember","","81","3","prime1","right","","","",""
"html-keyboard-response","220","1121691","0.0-4.0-1.0-2.32-0.32","3wm6avcueytxf50","prime","5f15e3e14d733b70e097d14f","5f60e3c0a3b16e07647b2ff9","5f60ef38fc0d1f00090d454b","false","null","<span style=""color: red; font-size: 48px"">Error!</span>","null","","","","feedback","","","","","","","","","","","","","","","",""
"html-keyboard-response","221","1123695","0.0-4.0-1.0-3.32","3wm6avcueytxf50","prime","5f15e3e14d733b70e097d14f","5f60e3c0a3b16e07647b2ff9","5f60ef38fc0d1f00090d454b","false","null","<div style=""align-items: center; display: flex; color: dodgerblue; font-size: 90px""><b>o</b></div>","null","","","","forget_cue","","","","","","","","","","","","","","","",""
"html-keyboard-response","222","1124397","0.0-4.0-1.0-0.33","3wm6avcueytxf50","prime","5f15e3e14d733b70e097d14f","5f60e3c0a3b16e07647b2ff9","5f60ef38fc0d1f00090d454b","false","null","<span style=""color: black; font-size: 48px"">N + M</span>","null","","","","resp_prompt","","","","","","","","","","","","","","","",""
"categorize-image","223","1125144","0.0-4.0-1.0-1.33","3wm6avcueytxf50","prime","5f15e3e14d733b70e097d14f","5f60e3c0a3b16e07647b2ff9","5f60ef38fc0d1f00090d454b","true","741.2750003859401","./Stimuli/SelectedImages/LM/LM58.bmp","76","","","","test","true","N + M","76","switch","LM","LM58.bmp","remember","","82","3","prime1","right","","","",""
"html-keyboard-response","224","1127147","0.0-4.0-1.0-3.33","3wm6avcueytxf50","prime","5f15e3e14d733b70e097d14f","5f60e3c0a3b16e07647b2ff9","5f60ef38fc0d1f00090d454b","false","null","<div style=""align-items: center; display: flex; color: dodgerblue; font-size: 90px""><b>o</b></div>","null","","","","forget_cue","","","","","","","","","","","","","","","",""
"html-keyboard-response","225","1127854","0.0-4.0-1.0-0.34","3wm6avcueytxf50","prime","5f15e3e14d733b70e097d14f","5f60e3c0a3b16e07647b2ff9","5f60ef38fc0d1f00090d454b","false","null","<span style=""color: black; font-size: 48px"">N + M</span>","null","","","","resp_prompt","","","","","","","","","","","","","","","",""
"categorize-image","226","1128533","0.0-4.0-1.0-1.34","3wm6avcueytxf50","prime","5f15e3e14d733b70e097d14f","5f60e3c0a3b16e07647b2ff9","5f60ef38fc0d1f00090d454b","true","672.9850000701845","./Stimuli/SelectedImages/LN/LN166.bmp","83","","","","test","true","N + M","83","repetition","LN","LN166.bmp","remember","","83","3","prime1","left","","","",""
"html-keyboard-response","227","1130541","0.0-4.0-1.0-3.34","3wm6avcueytxf50","prime","5f15e3e14d733b70e097d14f","5f60e3c0a3b16e07647b2ff9","5f60ef38fc0d1f00090d454b","false","null","<div style=""align-items: center; display: flex; color: dodgerblue; font-size: 90px""><b>o</b></div>","null","","","","forget_cue","","","","","","","","","","","","","","","",""
"html-keyboard-response","228","1131243","0.0-4.0-1.0-0.35","3wm6avcueytxf50","prime","5f15e3e14d733b70e097d14f","5f60e3c0a3b16e07647b2ff9","5f60ef38fc0d1f00090d454b","false","null","<span style=""color: black; font-size: 48px"">M + N</span>","null","","","","resp_prompt","","","","","","","","","","","","","","","",""
"categorize-image","229","1132157","0.0-4.0-1.0-1.35","3wm6avcueytxf50","prime","5f15e3e14d733b70e097d14f","5f60e3c0a3b16e07647b2ff9","5f60ef38fc0d1f00090d454b","true","906.4650000073016","./Stimuli/SelectedImages/LM/LM209.bmp","83","","","","test","true","M + N","83","repetition","LM","LM209.bmp","remember","","84","3","prime1","left","","","",""
"html-keyboard-response","230","1134176","0.0-4.0-1.0-3.35","3wm6avcueytxf50","prime","5f15e3e14d733b70e097d14f","5f60e3c0a3b16e07647b2ff9","5f60ef38fc0d1f00090d454b","false","null","<div style=""align-items: center; display: flex; color: dodgerblue; font-size: 90px""><b>o</b></div>","null","","","","forget_cue","","","","","","","","","","","","","","","",""
"html-keyboard-response","231","1134881","0.0-4.0-1.0-0.36","3wm6avcueytxf50","prime","5f15e3e14d733b70e097d14f","5f60e3c0a3b16e07647b2ff9","5f60ef38fc0d1f00090d454b","false","null","<span style=""color: black; font-size: 48px"">M + N</span>","null","","","","resp_prompt","","","","","","","","","","","","","","","",""
"categorize-image","232","1136381","0.0-4.0-1.0-1.36","3wm6avcueytxf50","prime","5f15e3e14d733b70e097d14f","5f60e3c0a3b16e07647b2ff9","5f60ef38fc0d1f00090d454b","true","1492.9599999450147","./Stimuli/SelectedImages/SN/SN64.bmp","76","","","","test","true","M + N","76","repetition","SN","SN64.bmp","remember","","85","3","prime1","right","","","",""
"html-keyboard-response","233","1138391","0.0-4.0-1.0-3.36","3wm6avcueytxf50","prime","5f15e3e14d733b70e097d14f","5f60e3c0a3b16e07647b2ff9","5f60ef38fc0d1f00090d454b","false","null","<div style=""align-items: center; display: flex; color: dodgerblue; font-size: 90px""><b>o</b></div>","null","","","","forget_cue","","","","","","","","","","","","","","","",""
"html-keyboard-response","234","1139098","0.0-4.0-1.0-0.37","3wm6avcueytxf50","prime","5f15e3e14d733b70e097d14f","5f60e3c0a3b16e07647b2ff9","5f60ef38fc0d1f00090d454b","false","null","<span style=""color: black; font-size: 48px"">M + N</span>","null","","","","resp_prompt","","","","","","","","","","","","","","","",""
"categorize-image","235","1139786","0.0-4.0-1.0-1.37","3wm6avcueytxf50","prime","5f15e3e14d733b70e097d14f","5f60e3c0a3b16e07647b2ff9","5f60ef38fc0d1f00090d454b","true","682.4149996973574","./Stimuli/SelectedImages/LN/LN13.bmp","76","","","","test","true","M + N","76","repetition","LN","LN13.bmp","forget","","86","3","prime1","right","","","",""
"html-keyboard-response","236","1141794","0.0-4.0-1.0-3.37","3wm6avcueytxf50","prime","5f15e3e14d733b70e097d14f","5f60e3c0a3b16e07647b2ff9","5f60ef38fc0d1f00090d454b","false","null","<div style=""align-items: center; display: flex; color: darkorange; font-size: 90px""><b>ø</b></div>","null","","","","forget_cue","","","","","","","","","","","","","","","",""
"html-keyboard-response","237","1142497","0.0-4.0-1.0-0.38","3wm6avcueytxf50","prime","5f15e3e14d733b70e097d14f","5f60e3c0a3b16e07647b2ff9","5f60ef38fc0d1f00090d454b","false","null","<span style=""color: black; font-size: 48px"">N + M</span>","null","","","","resp_prompt","","","","","","","","","","","","","","","",""
"categorize-image","238","1143110","0.0-4.0-1.0-1.38","3wm6avcueytxf50","prime","5f15e3e14d733b70e097d14f","5f60e3c0a3b16e07647b2ff9","5f60ef38fc0d1f00090d454b","true","609.2099999077618","./Stimuli/SelectedImages/LM/LM216.bmp","76","","","","test","true","N + M","76","repetition","LM","LM216.bmp","forget","","87","3","prime1","right","","","",""
"html-keyboard-response","239","1145113","0.0-4.0-1.0-3.38","3wm6avcueytxf50","prime","5f15e3e14d733b70e097d14f","5f60e3c0a3b16e07647b2ff9","5f60ef38fc0d1f00090d454b","false","null","<div style=""align-items: center; display: flex; color: darkorange; font-size: 90px""><b>ø</b></div>","null","","","","forget_cue","","","","","","","","","","","","","","","",""
"html-keyboard-response","240","1145829","0.0-4.0-1.0-0.39","3wm6avcueytxf50","prime","5f15e3e14d733b70e097d14f","5f60e3c0a3b16e07647b2ff9","5f60ef38fc0d1f00090d454b","false","null","<span style=""color: black; font-size: 48px"">N + M</span>","null","","","","resp_prompt","","","","","","","","","","","","","","","",""
"categorize-image","241","1146419","0.0-4.0-1.0-1.39","3wm6avcueytxf50","prime","5f15e3e14d733b70e097d14f","5f60e3c0a3b16e07647b2ff9","5f60ef38fc0d1f00090d454b","true","587.3450003564358","./Stimuli/SelectedImages/LM/LM179.bmp","76","","","","test","true","N + M","76","switch","LM","LM179.bmp","remember","","88","3","prime1","right","","","",""
"html-keyboard-response","242","1148436","0.0-4.0-1.0-3.39","3wm6avcueytxf50","prime","5f15e3e14d733b70e097d14f","5f60e3c0a3b16e07647b2ff9","5f60ef38fc0d1f00090d454b","false","null","<div style=""align-items: center; display: flex; color: dodgerblue; font-size: 90px""><b>o</b></div>","null","","","","forget_cue","","","","","","","","","","","","","","","",""
"html-keyboard-response","243","1149153","0.0-4.0-1.0-0.40","3wm6avcueytxf50","prime","5f15e3e14d733b70e097d14f","5f60e3c0a3b16e07647b2ff9","5f60ef38fc0d1f00090d454b","false","null","<span style=""color: black; font-size: 48px"">N + M</span>","null","","","","resp_prompt","","","","","","","","","","","","","","","",""
"categorize-image","244","1149694","0.0-4.0-1.0-1.40","3wm6avcueytxf50","prime","5f15e3e14d733b70e097d14f","5f60e3c0a3b16e07647b2ff9","5f60ef38fc0d1f00090d454b","true","537.0899997651577","./Stimuli/SelectedImages/LM/LM129.bmp","76","","","","test","true","N + M","76","repetition","LM","LM129.bmp","forget","","89","3","prime1","right","","","",""
"html-keyboard-response","245","1151696","0.0-4.0-1.0-3.40","3wm6avcueytxf50","prime","5f15e3e14d733b70e097d14f","5f60e3c0a3b16e07647b2ff9","5f60ef38fc0d1f00090d454b","false","null","<div style=""align-items: center; display: flex; color: darkorange; font-size: 90px""><b>ø</b></div>","null","","","","forget_cue","","","","","","","","","","","","","","","",""
"html-keyboard-response","246","1152402","0.0-4.0-1.0-0.41","3wm6avcueytxf50","prime","5f15e3e14d733b70e097d14f","5f60e3c0a3b16e07647b2ff9","5f60ef38fc0d1f00090d454b","false","null","<span style=""color: black; font-size: 48px"">M + N</span>","null","","","","resp_prompt","","","","","","","","","","","","","","","",""
"categorize-image","247","1153076","0.0-4.0-1.0-1.41","3wm6avcueytxf50","prime","5f15e3e14d733b70e097d14f","5f60e3c0a3b16e07647b2ff9","5f60ef38fc0d1f00090d454b","true","670.1550004072487","./Stimuli/SelectedImages/SM/SM17.bmp","83","","","","test","true","M + N","83","repetition","SM","SM17.bmp","remember","","90","3","prime1","left","","","",""
"html-keyboard-response","248","1155084","0.0-4.0-1.0-3.41","3wm6avcueytxf50","prime","5f15e3e14d733b70e097d14f","5f60e3c0a3b16e07647b2ff9","5f60ef38fc0d1f00090d454b","false","null","<div style=""align-items: center; display: flex; color: dodgerblue; font-size: 90px""><b>o</b></div>","null","","","","forget_cue","","","","","","","","","","","","","","","",""
"html-keyboard-response","249","1155792","0.0-4.0-1.0-0.42","3wm6avcueytxf50","prime","5f15e3e14d733b70e097d14f","5f60e3c0a3b16e07647b2ff9","5f60ef38fc0d1f00090d454b","false","null","<span style=""color: black; font-size: 48px"">M + N</span>","null","","","","resp_prompt","","","","","","","","","","","","","","","",""
"categorize-image","250","1156421","0.0-4.0-1.0-1.42","3wm6avcueytxf50","prime","5f15e3e14d733b70e097d14f","5f60e3c0a3b16e07647b2ff9","5f60ef38fc0d1f00090d454b","true","625.4250002093613","./Stimuli/SelectedImages/LM/LM48.bmp","83","","","","test","true","M + N","83","repetition","LM","LM48.bmp","remember","","91","3","prime1","left","","","",""
"html-keyboard-response","251","1158440","0.0-4.0-1.0-3.42","3wm6avcueytxf50","prime","5f15e3e14d733b70e097d14f","5f60e3c0a3b16e07647b2ff9","5f60ef38fc0d1f00090d454b","false","null","<div style=""align-items: center; display: flex; color: dodgerblue; font-size: 90px""><b>o</b></div>","null","","","","forget_cue","","","","","","","","","","","","","","","",""
"html-keyboard-response","252","1159144","0.0-4.0-1.0-0.43","3wm6avcueytxf50","prime","5f15e3e14d733b70e097d14f","5f60e3c0a3b16e07647b2ff9","5f60ef38fc0d1f00090d454b","false","null","<span style=""color: black; font-size: 48px"">N + M</span>","null","","","","resp_prompt","","","","","","","","","","","","","","","",""
