"trial_type","trial_index","time_elapsed","internal_node_id","subject","exp_part","prolific_PID","study_ID","session_ID","use","rt","stimulus","key_press","button_pressed","responses","question_order","trial_part","correct","resp_map","correct_resp","probe_condition","category","image","forget_condition","list","trial_num","block_num","block","response","test_part","n_span","sequence","num_spaces"
"pavlovia","0","26","0.0-0.0","a3rbm0y7nyttnys","","5dbb0562b1df1b110ead5bba","5f60e3c0a3b16e07647b2ff9","5f61dbf7a77726198aec5896","false","","","","","","","","","","","","","","","","","","","","","","",""
"html-keyboard-response","1","45796","0.0-1.0-0.0-0.0","a3rbm0y7nyttnys","welcome","5dbb0562b1df1b110ead5bba","5f60e3c0a3b16e07647b2ff9","5f61dbf7a77726198aec5896","false","45765.46499999995","<div align=left>Dear participant, <br> thank you for participating in an online study of the Cognition, Action, and Sustainability Unit of the University of Freiburg! <br> <br>The aim of this study is to examine our ability to remember previously learned information. <br>Our goal is to find out, whether our memory improves, when we only remember information that is relevant to us. <br>The experiment will take about 35 minutes to complete. <br> <br>Please, note that you can only participate in this study if you are using a device with a keyboard (PC, Laptop etc.) <br>and not if you are using a mobile device such as a tablet or smartphone.<br> <br>Press 'SPACE' to proceed to the experiment. </div>","32","","","","","","","","","","","","","","","","","","","",""
"html-keyboard-response","2","56710","0.0-1.0-0.0-1.0","a3rbm0y7nyttnys","welcome","5dbb0562b1df1b110ead5bba","5f60e3c0a3b16e07647b2ff9","5f61dbf7a77726198aec5896","false","10909.130000000005","<div align=left><strong> Time Course of this experiment: </strong> <br><br> <strong> 1.</strong>  First, please fill in some information regarding your demographic data. <br><br> <strong> 2.</strong>  Next, your task will be to classify everyday objects. <br>In addition, you will be asked to remember certain objects and recall them later. <br>Working on these tasks requires your undivided attention and concentration.<br>It is therefore essential that you eliminate any sources of distraction in your  <br>environment and ensure that you will not be disturbed. <br><br><strong> 3.</strong>  At the end of the experiment, you will be asked to answer a few additional questions. <br> <br><strong> Important:</strong> After finishing the experiment, only close the browser window <br> by clicking on the 'end the experiment'-button when you are asked to do so. <br>Closing the browser window prematurely will make the allocation of your participation credit impossible. <br><br> Press 'SPACE' to start the experiment. </div>","32","","","","","","","","","","","","","","","","","","","",""
"html-button-response","3","68324","0.0-1.0-0.0-2.0","a3rbm0y7nyttnys","welcome","5dbb0562b1df1b110ead5bba","5f60e3c0a3b16e07647b2ff9","5f61dbf7a77726198aec5896","true","11609.239999999772","<div align=left><strong> Informed consent </strong>  <br>The aim of our research is to better understand human behavior and mental processes. <br>In the following study your behavior (e.g. choices, reaction times) will be studied. <br> <br><strong> Voluntariness and Anonymity </strong> <br>Your participation in this study is  <strong> voluntary</strong>.<br>You may withdraw your consent to participate at any time without providing a reason for doing so and without fear of prejudice. <br><br>As no personal data will be collected, <strong>your data and your person cannot be connected after data collection</strong> – the data-set is anonymous. <br>Respectively, deletion of your data will not be possible after data collection has been completed, as we cannot retrace your data-set.<br>The results and anonymized data collected in this study will be published as a scientific publication. <br>This will happen in an <strong>anonymized format</strong>, so that no data can be traced back to a specific person. <br> <br>The anonymized data of this study will be made available to other researchers and/or in a data archive on the Internet as a means of transparency and to enable subsequent re-use. By doing so, this study follows the recommendations of the Deutsche Forschungsgemeinschaft (DFG, German Research Foundation) and Deutsche Gesellschaft für Psychologie (DGPS, German Psychological Society) regarding quality assurance in research.<br>If you have any questions now or after the experiment, please contact our team (experiments@cs.uni-freiburg.de).<br><br><br>I hereby declare, that I understand the above described conditions of participation and I agree to participate under these conditions. <br><br> </div>","","0","","","","","","","","","","","","","","","","","","",""
"html-keyboard-response","4","93931","0.0-1.0-0.0-3.0","a3rbm0y7nyttnys","welcome","5dbb0562b1df1b110ead5bba","5f60e3c0a3b16e07647b2ff9","5f61dbf7a77726198aec5896","false","25603.29999999977","<div align=left><strong> General information concerning the experiment </strong>  <br> <br>Please follow the instructions:<ol> <li><strong> Do not leave this tab (your browser window) during the experiment and do not reload this tab! </strong>  <br>If you do switch tabs/windows during the experiment (to check your mail or visit another website, for example), <br>the experiment will end automatically and you will <strong>not receive credit</strong> for your participation. <br>Repeated participation or resumption of the experiment is impossible.</li> <br><li>Please close all other programs for the duration of your participation. </li> <br><li>Please mute or turn off your phone and put it out of your reach. </li> <br><li>Please also take off any disturbing accessories (such as wristwatches, bracelets, etc.). </li> <br><li>If you have music playing in the background, please turn it off now. </li> <br></ol>Thank you! <br>Press 'SPACE' to continue. </div>","32","","","","","","","","","","","","","","","","","","","",""
"survey-text","5","97575","0.0-1.0-1.0-0.0","a3rbm0y7nyttnys","demographics","5dbb0562b1df1b110ead5bba","5f60e3c0a3b16e07647b2ff9","5f61dbf7a77726198aec5896","true","3629.899999999907","","","","{""age"":""33""}","","","","","","","","","","","","","","","","","",""
"survey-multi-choice","6","114364","0.0-1.0-1.0-1.0","a3rbm0y7nyttnys","demographics","5dbb0562b1df1b110ead5bba","5f60e3c0a3b16e07647b2ff9","5f61dbf7a77726198aec5896","true","16783.05999999975","","","","{""gender"":""female"",""school"":""middle school/secondary school/ graduation from polytechnic high school"",""education"":""High school graduate, diploma or equivalent""}","[0,1,2]","","","","","","","","","","","","","","","","",""
"html-keyboard-response","7","128676","0.0-1.0-2.0","a3rbm0y7nyttnys","instructions","5dbb0562b1df1b110ead5bba","5f60e3c0a3b16e07647b2ff9","5f61dbf7a77726198aec5896","false","14305.645000000368","<div align=left> The experiment is now about to start: <br> <br>In the following part, you will be presented pictures of everyday objects. <br>Your first task is to <strong>classify these objects. </strong> <br> <br> You will classify them either as mechanical or non-mechanical objects. <br> <br>Objects that include any kind of technical mechanism (for example, wheels, switches, levers, <br> electronic components) fall under the category of <strong>mechanical</strong> objects. <br>Only objects without any kind of technical mechanism should be classified as <strong>non-mechanical</strong>. <br><br>Press 'SPACE' to continue. </div>","32","","","","","","","","","","","","","","","","","","","",""
"html-keyboard-response","8","208728","0.0-2.0-0.0","a3rbm0y7nyttnys","instructions","5dbb0562b1df1b110ead5bba","5f60e3c0a3b16e07647b2ff9","5f61dbf7a77726198aec5896","false","80046.04500000004","<div align=justify>You will classify the objects using the <strong>'S'</strong> and the <strong>'L'</strong> keys on your keyboard.<br>For doing so, please place your <strong>left index finger</strong> on the <strong>'S'</strong> key and place your <strong>right index finger</strong> on the <strong>'L'</strong> key. <br><br> Each trial starts with an instruction, indicating which key ('S'/'L') you need to press to classify <br>the object as mechanical (letter M) or non-mechanical (letter N).<br>The instruction <strong>M + N</strong> indicates that, in the current trial, by pressing the left key ('S') you classify the displayed object as mechanical (M) <br> and by pressing the right key ('L') you classify the object as non-mechanical (N). <br>The instruction <strong>N + M</strong> on the other hand indicates that by pressing the left key ('S') you classify the displayed object as non-mechanical (N) <br> and by pressing the right key ('L') you classify the object as mechanical (M). <br><br>Please press the key corresponding to the correct classification as fast as possible as soon as the object is displayed and try to avoid making mistakes.<br>If you do not respond within a 2 second window, a corresponding feedback will be displayed and the next trial will start.<br> The experiment is divided into multiple blocks to give you the opportunity to take a break after each block. <br>First, you can now practice this task. <br><br>Please place your <strong>LEFT INDEX FINGER</strong> on the 'S' key and your <strong>RIGHT INDEX FINGER</strong> on the 'L' key now. <br><br>Press SPACE to continue.</div>","32","","","","","","","","","","","","","","","","","","","",""
"html-keyboard-response","9","213250","0.0-2.0-1.0","a3rbm0y7nyttnys","instructions","5dbb0562b1df1b110ead5bba","5f60e3c0a3b16e07647b2ff9","5f61dbf7a77726198aec5896","false","4517.5849999996135","<div align=left> You will now have time to practice this task.<br><br>Remember: <br> <br><li>Please place your index fingers on the <strong>'S'</strong> and <strong>'L'</strong> keys <br>to respond as fast and accurately as possible.</li><li>Every picture can be classified as either mechanical or non-mechanical.</li><li>If you do not respond in time or commit an error, you will receive a corresponding feedback. </li><li> Please try to respond as <strong> fast </strong> and as <strong> accurately as possible </strong> .<br><li>To ensure optimal results, please minimize distractions and stay focused. </li><br><br>Press SPACE to continue.</div>","32","","","","","","","","","","","","","","","","","","","",""
"html-keyboard-response","10","213957","0.0-2.0-2.0-0.0","a3rbm0y7nyttnys","practice_no_cue","5dbb0562b1df1b110ead5bba","5f60e3c0a3b16e07647b2ff9","5f61dbf7a77726198aec5896","false","null","<span style=""color: black; font-size: 48px"">N + M</span>","null","","","","resp_prompt","","","","","","","","","","","","","","","",""
"categorize-image","11","216463","0.0-2.0-2.0-1.0","a3rbm0y7nyttnys","practice_no_cue","5dbb0562b1df1b110ead5bba","5f60e3c0a3b16e07647b2ff9","5f61dbf7a77726198aec5896","true","null","./Stimuli/ImagesPractice/SN76.jpg","null","","","","test","false","N + M","83","","SN","SN76.jpg","forget","old","1","1","start","too_slow","","","",""
"html-keyboard-response","12","217166","0.0-2.0-2.0-0.1","a3rbm0y7nyttnys","practice_no_cue","5dbb0562b1df1b110ead5bba","5f60e3c0a3b16e07647b2ff9","5f61dbf7a77726198aec5896","false","null","<span style=""color: black; font-size: 48px"">M + N</span>","null","","","","resp_prompt","","","","","","","","","","","","","","","",""
"categorize-image","13","219180","0.0-2.0-2.0-1.1","a3rbm0y7nyttnys","practice_no_cue","5dbb0562b1df1b110ead5bba","5f60e3c0a3b16e07647b2ff9","5f61dbf7a77726198aec5896","true","1510.1050000003015","./Stimuli/ImagesPractice/LM143.jpg","76","","","","test","false","M + N","83","","LM","LM143.jpg","remember","old","2","1","start","right","","","",""
"html-keyboard-response","14","219882","0.0-2.0-2.0-0.2","a3rbm0y7nyttnys","practice_no_cue","5dbb0562b1df1b110ead5bba","5f60e3c0a3b16e07647b2ff9","5f61dbf7a77726198aec5896","false","null","<span style=""color: black; font-size: 48px"">M + N</span>","null","","","","resp_prompt","","","","","","","","","","","","","","","",""
"categorize-image","15","222205","0.0-2.0-2.0-1.2","a3rbm0y7nyttnys","practice_no_cue","5dbb0562b1df1b110ead5bba","5f60e3c0a3b16e07647b2ff9","5f61dbf7a77726198aec5896","true","1819.484999999986","./Stimuli/ImagesPractice/LN15.jpg","76","","","","test","true","M + N","76","","LN","LN15.jpg","forget","old","3","1","start","right","","","",""
"html-keyboard-response","16","222907","0.0-2.0-2.0-0.3","a3rbm0y7nyttnys","practice_no_cue","5dbb0562b1df1b110ead5bba","5f60e3c0a3b16e07647b2ff9","5f61dbf7a77726198aec5896","false","null","<span style=""color: black; font-size: 48px"">N + M</span>","null","","","","resp_prompt","","","","","","","","","","","","","","","",""
"categorize-image","17","224753","0.0-2.0-2.0-1.3","a3rbm0y7nyttnys","practice_no_cue","5dbb0562b1df1b110ead5bba","5f60e3c0a3b16e07647b2ff9","5f61dbf7a77726198aec5896","true","1342.2000000000698","./Stimuli/ImagesPractice/LN72.jpg","83","","","","test","true","N + M","83","","LN","LN72.jpg","remember","old","4","1","start","left","","","",""
"html-keyboard-response","18","225455","0.0-2.0-2.0-0.4","a3rbm0y7nyttnys","practice_no_cue","5dbb0562b1df1b110ead5bba","5f60e3c0a3b16e07647b2ff9","5f61dbf7a77726198aec5896","false","null","<span style=""color: black; font-size: 48px"">N + M</span>","null","","","","resp_prompt","","","","","","","","","","","","","","","",""
"categorize-image","19","227194","0.0-2.0-2.0-1.4","a3rbm0y7nyttnys","practice_no_cue","5dbb0562b1df1b110ead5bba","5f60e3c0a3b16e07647b2ff9","5f61dbf7a77726198aec5896","true","1236.0550000003132","./Stimuli/ImagesPractice/SM35.jpg","76","","","","test","true","N + M","76","","SM","SM35.jpg","remember","old","5","1","start","right","","","",""
"html-keyboard-response","20","227899","0.0-2.0-2.0-0.5","a3rbm0y7nyttnys","practice_no_cue","5dbb0562b1df1b110ead5bba","5f60e3c0a3b16e07647b2ff9","5f61dbf7a77726198aec5896","false","null","<span style=""color: black; font-size: 48px"">M + N</span>","null","","","","resp_prompt","","","","","","","","","","","","","","","",""
"categorize-image","21","229444","0.0-2.0-2.0-1.5","a3rbm0y7nyttnys","practice_no_cue","5dbb0562b1df1b110ead5bba","5f60e3c0a3b16e07647b2ff9","5f61dbf7a77726198aec5896","true","1041.5500000008033","./Stimuli/ImagesPractice/SN220.jpg","76","","","","test","true","M + N","76","","SN","SN220.jpg","forget","old","6","1","start","right","","","",""
"html-keyboard-response","22","230146","0.0-2.0-2.0-0.6","a3rbm0y7nyttnys","practice_no_cue","5dbb0562b1df1b110ead5bba","5f60e3c0a3b16e07647b2ff9","5f61dbf7a77726198aec5896","false","null","<span style=""color: black; font-size: 48px"">M + N</span>","null","","","","resp_prompt","","","","","","","","","","","","","","","",""
"categorize-image","23","231540","0.0-2.0-2.0-1.6","a3rbm0y7nyttnys","practice_no_cue","5dbb0562b1df1b110ead5bba","5f60e3c0a3b16e07647b2ff9","5f61dbf7a77726198aec5896","true","890.1200000000536","./Stimuli/ImagesPractice/LM224.jpg","83","","","","test","true","M + N","83","","LM","LM224.jpg","forget","old","7","1","start","left","","","",""
"html-keyboard-response","24","232242","0.0-2.0-2.0-0.7","a3rbm0y7nyttnys","practice_no_cue","5dbb0562b1df1b110ead5bba","5f60e3c0a3b16e07647b2ff9","5f61dbf7a77726198aec5896","false","null","<span style=""color: black; font-size: 48px"">M + N</span>","null","","","","resp_prompt","","","","","","","","","","","","","","","",""
"categorize-image","25","233758","0.0-2.0-2.0-1.7","a3rbm0y7nyttnys","practice_no_cue","5dbb0562b1df1b110ead5bba","5f60e3c0a3b16e07647b2ff9","5f61dbf7a77726198aec5896","true","1012.4999999998254","./Stimuli/ImagesPractice/SM98.jpg","83","","","","test","true","M + N","83","","SM","SM98.jpg","forget","old","8","1","start","left","","","",""
"html-keyboard-response","26","234460","0.0-2.0-2.0-0.8","a3rbm0y7nyttnys","practice_no_cue","5dbb0562b1df1b110ead5bba","5f60e3c0a3b16e07647b2ff9","5f61dbf7a77726198aec5896","false","null","<span style=""color: black; font-size: 48px"">N + M</span>","null","","","","resp_prompt","","","","","","","","","","","","","","","",""
"categorize-image","27","236210","0.0-2.0-2.0-1.8","a3rbm0y7nyttnys","practice_no_cue","5dbb0562b1df1b110ead5bba","5f60e3c0a3b16e07647b2ff9","5f61dbf7a77726198aec5896","true","1246.4000000000233","./Stimuli/ImagesPractice/LN109.jpg","83","","","","test","true","N + M","83","","LN","LN109.jpg","forget","old","9","1","start","left","","","",""
"html-keyboard-response","28","236912","0.0-2.0-2.0-0.9","a3rbm0y7nyttnys","practice_no_cue","5dbb0562b1df1b110ead5bba","5f60e3c0a3b16e07647b2ff9","5f61dbf7a77726198aec5896","false","null","<span style=""color: black; font-size: 48px"">M + N</span>","null","","","","resp_prompt","","","","","","","","","","","","","","","",""
"categorize-image","29","238553","0.0-2.0-2.0-1.9","a3rbm0y7nyttnys","practice_no_cue","5dbb0562b1df1b110ead5bba","5f60e3c0a3b16e07647b2ff9","5f61dbf7a77726198aec5896","true","1137.265000000305","./Stimuli/ImagesPractice/SM62.jpg","76","","","","test","false","M + N","83","","SM","SM62.jpg","remember","old","10","1","start","right","","","",""
"html-keyboard-response","30","239255","0.0-2.0-2.0-0.10","a3rbm0y7nyttnys","practice_no_cue","5dbb0562b1df1b110ead5bba","5f60e3c0a3b16e07647b2ff9","5f61dbf7a77726198aec5896","false","null","<span style=""color: black; font-size: 48px"">N + M</span>","null","","","","resp_prompt","","","","","","","","","","","","","","","",""
"categorize-image","31","240758","0.0-2.0-2.0-1.10","a3rbm0y7nyttnys","practice_no_cue","5dbb0562b1df1b110ead5bba","5f60e3c0a3b16e07647b2ff9","5f61dbf7a77726198aec5896","true","988.5049999993353","./Stimuli/ImagesPractice/LM55.jpg","76","","","","test","true","N + M","76","","LM","LM55.jpg","remember","old","11","1","start","right","","","",""
"html-keyboard-response","32","241460","0.0-2.0-2.0-0.11","a3rbm0y7nyttnys","practice_no_cue","5dbb0562b1df1b110ead5bba","5f60e3c0a3b16e07647b2ff9","5f61dbf7a77726198aec5896","false","null","<span style=""color: black; font-size: 48px"">M + N</span>","null","","","","resp_prompt","","","","","","","","","","","","","","","",""
"categorize-image","33","242858","0.0-2.0-2.0-1.11","a3rbm0y7nyttnys","practice_no_cue","5dbb0562b1df1b110ead5bba","5f60e3c0a3b16e07647b2ff9","5f61dbf7a77726198aec5896","true","895.2749999998778","./Stimuli/ImagesPractice/LN4.jpg","76","","","","test","true","M + N","76","","LN","LN4.jpg","remember","old","12","1","start","right","","","",""
"html-keyboard-response","34","243560","0.0-2.0-2.0-0.12","a3rbm0y7nyttnys","practice_no_cue","5dbb0562b1df1b110ead5bba","5f60e3c0a3b16e07647b2ff9","5f61dbf7a77726198aec5896","false","null","<span style=""color: black; font-size: 48px"">N + M</span>","null","","","","resp_prompt","","","","","","","","","","","","","","","",""
"categorize-image","35","245215","0.0-2.0-2.0-1.12","a3rbm0y7nyttnys","practice_no_cue","5dbb0562b1df1b110ead5bba","5f60e3c0a3b16e07647b2ff9","5f61dbf7a77726198aec5896","true","1152.195000000589","./Stimuli/ImagesPractice/SN222.jpg","83","","","","test","true","N + M","83","","SN","SN222.jpg","forget","old","13","1","start","left","","","",""
"html-keyboard-response","36","245917","0.0-2.0-2.0-0.13","a3rbm0y7nyttnys","practice_no_cue","5dbb0562b1df1b110ead5bba","5f60e3c0a3b16e07647b2ff9","5f61dbf7a77726198aec5896","false","null","<span style=""color: black; font-size: 48px"">M + N</span>","null","","","","resp_prompt","","","","","","","","","","","","","","","",""
"categorize-image","37","247427","0.0-2.0-2.0-1.13","a3rbm0y7nyttnys","practice_no_cue","5dbb0562b1df1b110ead5bba","5f60e3c0a3b16e07647b2ff9","5f61dbf7a77726198aec5896","true","1006.2999999999884","./Stimuli/ImagesPractice/SN75.jpg","76","","","","test","true","M + N","76","","SN","SN75.jpg","remember","old","14","1","start","right","","","",""
"html-keyboard-response","38","248129","0.0-2.0-2.0-0.14","a3rbm0y7nyttnys","practice_no_cue","5dbb0562b1df1b110ead5bba","5f60e3c0a3b16e07647b2ff9","5f61dbf7a77726198aec5896","false","null","<span style=""color: black; font-size: 48px"">N + M</span>","null","","","","resp_prompt","","","","","","","","","","","","","","","",""
"categorize-image","39","249597","0.0-2.0-2.0-1.14","a3rbm0y7nyttnys","practice_no_cue","5dbb0562b1df1b110ead5bba","5f60e3c0a3b16e07647b2ff9","5f61dbf7a77726198aec5896","true","964.6050000001269","./Stimuli/ImagesPractice/LN17.jpg","83","","","","test","true","N + M","83","","LN","LN17.jpg","forget","old","15","1","start","left","","","",""
"html-keyboard-response","40","250299","0.0-2.0-2.0-0.15","a3rbm0y7nyttnys","practice_no_cue","5dbb0562b1df1b110ead5bba","5f60e3c0a3b16e07647b2ff9","5f61dbf7a77726198aec5896","false","null","<span style=""color: black; font-size: 48px"">N + M</span>","null","","","","resp_prompt","","","","","","","","","","","","","","","",""
"categorize-image","41","251668","0.0-2.0-2.0-1.15","a3rbm0y7nyttnys","practice_no_cue","5dbb0562b1df1b110ead5bba","5f60e3c0a3b16e07647b2ff9","5f61dbf7a77726198aec5896","true","865.8999999997905","./Stimuli/ImagesPractice/SN205.jpg","83","","","","test","true","N + M","83","","SN","SN205.jpg","remember","old","16","1","start","left","","","",""
"html-keyboard-response","42","255257","0.0-2.0-3.0","a3rbm0y7nyttnys","break","5dbb0562b1df1b110ead5bba","5f60e3c0a3b16e07647b2ff9","5f61dbf7a77726198aec5896","false","3583.909999999363","<p style='font-size: 32px;'>Break</><br><br><br><br><br><p style='font-size: 24px;'>In the last block, you committed 2 errors and did not respond in time on 1 trials.
</p><p style='font-size: 24px;'>Try to respond as fast and accurately as possible in the next block as well! </p><p style='font-size: 24px;'>Press SPACE to continue.</p>","32","","","","","","","","","","","","","","","","","","","",""
"html-keyboard-response","43","258363","0.0-2.0-4.0","a3rbm0y7nyttnys","instructions","5dbb0562b1df1b110ead5bba","5f60e3c0a3b16e07647b2ff9","5f61dbf7a77726198aec5896","false","3102.5500000005413","<div align=left> Great!<br><br>Are you ready to continue?<br><br>If you want to reread the instructions and redo the practice trials, <br>please press „Z“. <br><br>Press SPACE to CONTINUE with the experiment when you are ready. </div>","32","","","","","","","","","","","","","","","","","","","",""
"html-keyboard-response","44","284372","0.0-3.0-0.0","a3rbm0y7nyttnys","instructions","5dbb0562b1df1b110ead5bba","5f60e3c0a3b16e07647b2ff9","5f61dbf7a77726198aec5896","false","26005.100000000268","<div align=left>Great!<br> <strong>Attention</strong>! You will now receive a second, additional task! <br><br>To this point it was you <strong>first task</strong> to correctly <strong>classify objects</strong>. <br><br>As mentioned in the beginning, we aim to examine how well humans can remember previously learned information.<br>We would like to find out whether our memory improves if we only remember information that is relevant to us. <br><br>Therefore, your <strong>second task</strong> will be to <strong>remember</strong> the pictures you are to categorize. <br> After the learning phase, there will be a memory test phase, in which you will be asked to indicate whether you have seen a picture before or not. <br>Some, but not all pictures shown in the learning phase will appear in the memory test phase.<br>After classifying a picture, you will be told whether you should remember it for the memory test phase or not. <br>Thus, some pictures can be forgotten, whereas others have to be remembered. <br><br>Note: From now on, feedback will only be displayed if you responded incorrectly or not in time.<br><br>Press SPACE to continue.</div>","32","","","","","","","","","","","","","","","","","","","",""
"html-keyboard-response","45","300638","0.0-3.0-1.0","a3rbm0y7nyttnys","instructions","5dbb0562b1df1b110ead5bba","5f60e3c0a3b16e07647b2ff9","5f61dbf7a77726198aec5896","false","16262.494999999937","<div align=left>In the following part, you will thus have to remember only some pictures. <br>Immediately after seeing and classifying the picture, a symbol will be displayed, indicating whether you should remember or forget the previous picture. <br><br>A <span style='color: dodgerblue; font-size: 28px'>O</span> indicates REMEMBER. That means, you have to remember this picture, because it will be tested later. <br><br>A <span style='color: darkorange; font-size:28px'>Ø</span> indicates FORGET. You do not have to remember this picture. <br><br> As you will have to remember a lot of pictures, it will be hard for you to remember all of them. <br>It will put you at an advantage if you instantly forget the pictures you are not asked to remember. <br> This will make it easier for you to remember the pictures that will be tested afterwards. <br><br>Press SPACE to continue.</div>","32","","","","","","","","","","","","","","","","","","","",""
"html-keyboard-response","46","313167","0.0-3.0-2.0","a3rbm0y7nyttnys","instructions","5dbb0562b1df1b110ead5bba","5f60e3c0a3b16e07647b2ff9","5f61dbf7a77726198aec5896","false","12526.16500000027","<div align=left> Now you have the chance to practice both tasks together.<br><br>Remember: <br> <br><li>Please place your index fingers on the <strong>'S'</strong> and <strong>'L'</strong> keys <br>to respond as fast and accurately as possible.</li><li>Every picture can be classified as either mechanical or non-mechanical.</li><li>If you do not respond in time or commit an error, you will receive a corresponding feedback. <br>Please try to respond as <strong> fast </strong> and as <strong> accurately as possible </strong>.</li><li> Please remember only the to-be-remembered <span style='color: dodgerblue; font-size: 28px'>O</span> pictures. <br></li><li> Please minimize distractions and stay focused. </li><br><br>Press SPACE to START</div>","32","","","","","","","","","","","","","","","","","","","",""
"html-keyboard-response","47","313871","0.0-3.0-3.0-0.0","a3rbm0y7nyttnys","practice_cue","5dbb0562b1df1b110ead5bba","5f60e3c0a3b16e07647b2ff9","5f61dbf7a77726198aec5896","false","null","<span style=""color: black; font-size: 48px"">N + M</span>","null","","","","resp_prompt","","","","","","","","","","","","","","","",""
"categorize-image","48","314627","0.0-3.0-3.0-1.0","a3rbm0y7nyttnys","practice_cue","5dbb0562b1df1b110ead5bba","5f60e3c0a3b16e07647b2ff9","5f61dbf7a77726198aec5896","true","747.7700000008335","./Stimuli/ImagesPractice/SN205.jpg","83","","","","test","true","N + M","83","","SN","SN205.jpg","remember","old","17","2","practice_forget","left","","","",""
"html-keyboard-response","49","316630","0.0-3.0-3.0-3.0","a3rbm0y7nyttnys","practice_cue","5dbb0562b1df1b110ead5bba","5f60e3c0a3b16e07647b2ff9","5f61dbf7a77726198aec5896","false","null","<div style=""align-items: center; display: flex; color: dodgerblue; font-size: 90px""><b>o</b></div>","null","","","","forget_cue","","","","","","","","","","","","","","","",""
"html-keyboard-response","50","317332","0.0-3.0-3.0-0.1","a3rbm0y7nyttnys","practice_cue","5dbb0562b1df1b110ead5bba","5f60e3c0a3b16e07647b2ff9","5f61dbf7a77726198aec5896","false","null","<span style=""color: black; font-size: 48px"">N + M</span>","null","","","","resp_prompt","","","","","","","","","","","","","","","",""
"categorize-image","51","318172","0.0-3.0-3.0-1.1","a3rbm0y7nyttnys","practice_cue","5dbb0562b1df1b110ead5bba","5f60e3c0a3b16e07647b2ff9","5f61dbf7a77726198aec5896","true","833.050000000163","./Stimuli/ImagesPractice/LN72.jpg","83","","","","test","true","N + M","83","","LN","LN72.jpg","remember","old","18","2","practice_forget","left","","","",""
"html-keyboard-response","52","320175","0.0-3.0-3.0-3.1","a3rbm0y7nyttnys","practice_cue","5dbb0562b1df1b110ead5bba","5f60e3c0a3b16e07647b2ff9","5f61dbf7a77726198aec5896","false","null","<div style=""align-items: center; display: flex; color: dodgerblue; font-size: 90px""><b>o</b></div>","null","","","","forget_cue","","","","","","","","","","","","","","","",""
"html-keyboard-response","53","320877","0.0-3.0-3.0-0.2","a3rbm0y7nyttnys","practice_cue","5dbb0562b1df1b110ead5bba","5f60e3c0a3b16e07647b2ff9","5f61dbf7a77726198aec5896","false","null","<span style=""color: black; font-size: 48px"">N + M</span>","null","","","","resp_prompt","","","","","","","","","","","","","","","",""
"categorize-image","54","321970","0.0-3.0-3.0-1.2","a3rbm0y7nyttnys","practice_cue","5dbb0562b1df1b110ead5bba","5f60e3c0a3b16e07647b2ff9","5f61dbf7a77726198aec5896","true","1087.8199999997742","./Stimuli/ImagesPractice/SN76.jpg","83","","","","test","true","N + M","83","","SN","SN76.jpg","forget","old","19","2","practice_forget","left","","","",""
"html-keyboard-response","55","323973","0.0-3.0-3.0-3.2","a3rbm0y7nyttnys","practice_cue","5dbb0562b1df1b110ead5bba","5f60e3c0a3b16e07647b2ff9","5f61dbf7a77726198aec5896","false","null","<div style=""align-items: center; display: flex; color: darkorange; font-size: 90px""><b>ø</b></div>","null","","","","forget_cue","","","","","","","","","","","","","","","",""
"html-keyboard-response","56","324675","0.0-3.0-3.0-0.3","a3rbm0y7nyttnys","practice_cue","5dbb0562b1df1b110ead5bba","5f60e3c0a3b16e07647b2ff9","5f61dbf7a77726198aec5896","false","null","<span style=""color: black; font-size: 48px"">N + M</span>","null","","","","resp_prompt","","","","","","","","","","","","","","","",""
"categorize-image","57","325506","0.0-3.0-3.0-1.3","a3rbm0y7nyttnys","practice_cue","5dbb0562b1df1b110ead5bba","5f60e3c0a3b16e07647b2ff9","5f61dbf7a77726198aec5896","true","822.3550000002724","./Stimuli/ImagesPractice/LN109.jpg","83","","","","test","true","N + M","83","","LN","LN109.jpg","forget","old","20","2","practice_forget","left","","","",""
"html-keyboard-response","58","327508","0.0-3.0-3.0-3.3","a3rbm0y7nyttnys","practice_cue","5dbb0562b1df1b110ead5bba","5f60e3c0a3b16e07647b2ff9","5f61dbf7a77726198aec5896","false","null","<div style=""align-items: center; display: flex; color: darkorange; font-size: 90px""><b>ø</b></div>","null","","","","forget_cue","","","","","","","","","","","","","","","",""
"html-keyboard-response","59","328211","0.0-3.0-3.0-0.4","a3rbm0y7nyttnys","practice_cue","5dbb0562b1df1b110ead5bba","5f60e3c0a3b16e07647b2ff9","5f61dbf7a77726198aec5896","false","null","<span style=""color: black; font-size: 48px"">M + N</span>","null","","","","resp_prompt","","","","","","","","","","","","","","","",""
"categorize-image","60","329129","0.0-3.0-3.0-1.4","a3rbm0y7nyttnys","practice_cue","5dbb0562b1df1b110ead5bba","5f60e3c0a3b16e07647b2ff9","5f61dbf7a77726198aec5896","true","910.5099999997183","./Stimuli/ImagesPractice/LM224.jpg","83","","","","test","true","M + N","83","","LM","LM224.jpg","forget","old","21","2","practice_forget","left","","","",""
"html-keyboard-response","61","331131","0.0-3.0-3.0-3.4","a3rbm0y7nyttnys","practice_cue","5dbb0562b1df1b110ead5bba","5f60e3c0a3b16e07647b2ff9","5f61dbf7a77726198aec5896","false","null","<div style=""align-items: center; display: flex; color: darkorange; font-size: 90px""><b>ø</b></div>","null","","","","forget_cue","","","","","","","","","","","","","","","",""
"html-keyboard-response","62","331834","0.0-3.0-3.0-0.5","a3rbm0y7nyttnys","practice_cue","5dbb0562b1df1b110ead5bba","5f60e3c0a3b16e07647b2ff9","5f61dbf7a77726198aec5896","false","null","<span style=""color: black; font-size: 48px"">M + N</span>","null","","","","resp_prompt","","","","","","","","","","","","","","","",""
"categorize-image","63","332835","0.0-3.0-3.0-1.5","a3rbm0y7nyttnys","practice_cue","5dbb0562b1df1b110ead5bba","5f60e3c0a3b16e07647b2ff9","5f61dbf7a77726198aec5896","true","993.7900000004447","./Stimuli/ImagesPractice/LM143.jpg","83","","","","test","true","M + N","83","","LM","LM143.jpg","remember","old","22","2","practice_forget","left","","","",""
"html-keyboard-response","64","334838","0.0-3.0-3.0-3.5","a3rbm0y7nyttnys","practice_cue","5dbb0562b1df1b110ead5bba","5f60e3c0a3b16e07647b2ff9","5f61dbf7a77726198aec5896","false","null","<div style=""align-items: center; display: flex; color: dodgerblue; font-size: 90px""><b>o</b></div>","null","","","","forget_cue","","","","","","","","","","","","","","","",""
"html-keyboard-response","65","335539","0.0-3.0-3.0-0.6","a3rbm0y7nyttnys","practice_cue","5dbb0562b1df1b110ead5bba","5f60e3c0a3b16e07647b2ff9","5f61dbf7a77726198aec5896","false","null","<span style=""color: black; font-size: 48px"">M + N</span>","null","","","","resp_prompt","","","","","","","","","","","","","","","",""
"categorize-image","66","336424","0.0-3.0-3.0-1.6","a3rbm0y7nyttnys","practice_cue","5dbb0562b1df1b110ead5bba","5f60e3c0a3b16e07647b2ff9","5f61dbf7a77726198aec5896","true","878.1099999996368","./Stimuli/ImagesPractice/SN220.jpg","76","","","","test","true","M + N","76","","SN","SN220.jpg","forget","old","23","2","practice_forget","right","","","",""
"html-keyboard-response","67","338427","0.0-3.0-3.0-3.6","a3rbm0y7nyttnys","practice_cue","5dbb0562b1df1b110ead5bba","5f60e3c0a3b16e07647b2ff9","5f61dbf7a77726198aec5896","false","null","<div style=""align-items: center; display: flex; color: darkorange; font-size: 90px""><b>ø</b></div>","null","","","","forget_cue","","","","","","","","","","","","","","","",""
"html-keyboard-response","68","339130","0.0-3.0-3.0-0.7","a3rbm0y7nyttnys","practice_cue","5dbb0562b1df1b110ead5bba","5f60e3c0a3b16e07647b2ff9","5f61dbf7a77726198aec5896","false","null","<span style=""color: black; font-size: 48px"">M + N</span>","null","","","","resp_prompt","","","","","","","","","","","","","","","",""
"categorize-image","69","340007","0.0-3.0-3.0-1.7","a3rbm0y7nyttnys","practice_cue","5dbb0562b1df1b110ead5bba","5f60e3c0a3b16e07647b2ff9","5f61dbf7a77726198aec5896","true","871.2450000002864","./Stimuli/ImagesPractice/SM98.jpg","83","","","","test","true","M + N","83","","SM","SM98.jpg","forget","old","24","2","practice_forget","left","","","",""
"html-keyboard-response","70","342009","0.0-3.0-3.0-3.7","a3rbm0y7nyttnys","practice_cue","5dbb0562b1df1b110ead5bba","5f60e3c0a3b16e07647b2ff9","5f61dbf7a77726198aec5896","false","null","<div style=""align-items: center; display: flex; color: darkorange; font-size: 90px""><b>ø</b></div>","null","","","","forget_cue","","","","","","","","","","","","","","","",""
"html-keyboard-response","71","342711","0.0-3.0-3.0-0.8","a3rbm0y7nyttnys","practice_cue","5dbb0562b1df1b110ead5bba","5f60e3c0a3b16e07647b2ff9","5f61dbf7a77726198aec5896","false","null","<span style=""color: black; font-size: 48px"">M + N</span>","null","","","","resp_prompt","","","","","","","","","","","","","","","",""
"categorize-image","72","343457","0.0-3.0-3.0-1.8","a3rbm0y7nyttnys","practice_cue","5dbb0562b1df1b110ead5bba","5f60e3c0a3b16e07647b2ff9","5f61dbf7a77726198aec5896","true","739.2749999999069","./Stimuli/ImagesPractice/LN4.jpg","76","","","","test","true","M + N","76","","LN","LN4.jpg","remember","old","25","2","practice_forget","right","","","",""
"html-keyboard-response","73","345461","0.0-3.0-3.0-3.8","a3rbm0y7nyttnys","practice_cue","5dbb0562b1df1b110ead5bba","5f60e3c0a3b16e07647b2ff9","5f61dbf7a77726198aec5896","false","null","<div style=""align-items: center; display: flex; color: dodgerblue; font-size: 90px""><b>o</b></div>","null","","","","forget_cue","","","","","","","","","","","","","","","",""
"html-keyboard-response","74","346163","0.0-3.0-3.0-0.9","a3rbm0y7nyttnys","practice_cue","5dbb0562b1df1b110ead5bba","5f60e3c0a3b16e07647b2ff9","5f61dbf7a77726198aec5896","false","null","<span style=""color: black; font-size: 48px"">M + N</span>","null","","","","resp_prompt","","","","","","","","","","","","","","","",""
"categorize-image","75","347208","0.0-3.0-3.0-1.9","a3rbm0y7nyttnys","practice_cue","5dbb0562b1df1b110ead5bba","5f60e3c0a3b16e07647b2ff9","5f61dbf7a77726198aec5896","true","1037.8700000001118","./Stimuli/ImagesPractice/SM62.jpg","83","","","","test","true","M + N","83","","SM","SM62.jpg","remember","old","26","2","practice_forget","left","","","",""
"html-keyboard-response","76","349210","0.0-3.0-3.0-3.9","a3rbm0y7nyttnys","practice_cue","5dbb0562b1df1b110ead5bba","5f60e3c0a3b16e07647b2ff9","5f61dbf7a77726198aec5896","false","null","<div style=""align-items: center; display: flex; color: dodgerblue; font-size: 90px""><b>o</b></div>","null","","","","forget_cue","","","","","","","","","","","","","","","",""
"html-keyboard-response","77","349912","0.0-3.0-3.0-0.10","a3rbm0y7nyttnys","practice_cue","5dbb0562b1df1b110ead5bba","5f60e3c0a3b16e07647b2ff9","5f61dbf7a77726198aec5896","false","null","<span style=""color: black; font-size: 48px"">M + N</span>","null","","","","resp_prompt","","","","","","","","","","","","","","","",""
"categorize-image","78","350907","0.0-3.0-3.0-1.10","a3rbm0y7nyttnys","practice_cue","5dbb0562b1df1b110ead5bba","5f60e3c0a3b16e07647b2ff9","5f61dbf7a77726198aec5896","true","983.4899999995832","./Stimuli/ImagesPractice/LN15.jpg","76","","","","test","true","M + N","76","","LN","LN15.jpg","forget","old","27","2","practice_forget","right","","","",""
"html-keyboard-response","79","352910","0.0-3.0-3.0-3.10","a3rbm0y7nyttnys","practice_cue","5dbb0562b1df1b110ead5bba","5f60e3c0a3b16e07647b2ff9","5f61dbf7a77726198aec5896","false","null","<div style=""align-items: center; display: flex; color: darkorange; font-size: 90px""><b>ø</b></div>","null","","","","forget_cue","","","","","","","","","","","","","","","",""
"html-keyboard-response","80","353612","0.0-3.0-3.0-0.11","a3rbm0y7nyttnys","practice_cue","5dbb0562b1df1b110ead5bba","5f60e3c0a3b16e07647b2ff9","5f61dbf7a77726198aec5896","false","null","<span style=""color: black; font-size: 48px"">N + M</span>","null","","","","resp_prompt","","","","","","","","","","","","","","","",""
"categorize-image","81","354512","0.0-3.0-3.0-1.11","a3rbm0y7nyttnys","practice_cue","5dbb0562b1df1b110ead5bba","5f60e3c0a3b16e07647b2ff9","5f61dbf7a77726198aec5896","true","891.9650000007241","./Stimuli/ImagesPractice/SM35.jpg","76","","","","test","true","N + M","76","","SM","SM35.jpg","remember","old","28","2","practice_forget","right","","","",""
"html-keyboard-response","82","356523","0.0-3.0-3.0-3.11","a3rbm0y7nyttnys","practice_cue","5dbb0562b1df1b110ead5bba","5f60e3c0a3b16e07647b2ff9","5f61dbf7a77726198aec5896","false","null","<div style=""align-items: center; display: flex; color: dodgerblue; font-size: 90px""><b>o</b></div>","null","","","","forget_cue","","","","","","","","","","","","","","","",""
"html-keyboard-response","83","357224","0.0-3.0-3.0-0.12","a3rbm0y7nyttnys","practice_cue","5dbb0562b1df1b110ead5bba","5f60e3c0a3b16e07647b2ff9","5f61dbf7a77726198aec5896","false","null","<span style=""color: black; font-size: 48px"">N + M</span>","null","","","","resp_prompt","","","","","","","","","","","","","","","",""
"categorize-image","84","358033","0.0-3.0-3.0-1.12","a3rbm0y7nyttnys","practice_cue","5dbb0562b1df1b110ead5bba","5f60e3c0a3b16e07647b2ff9","5f61dbf7a77726198aec5896","true","801.170000000624","./Stimuli/ImagesPractice/SN222.jpg","83","","","","test","true","N + M","83","","SN","SN222.jpg","forget","old","29","2","practice_forget","left","","","",""
"html-keyboard-response","85","360036","0.0-3.0-3.0-3.12","a3rbm0y7nyttnys","practice_cue","5dbb0562b1df1b110ead5bba","5f60e3c0a3b16e07647b2ff9","5f61dbf7a77726198aec5896","false","null","<div style=""align-items: center; display: flex; color: darkorange; font-size: 90px""><b>ø</b></div>","null","","","","forget_cue","","","","","","","","","","","","","","","",""
"html-keyboard-response","86","360738","0.0-3.0-3.0-0.13","a3rbm0y7nyttnys","practice_cue","5dbb0562b1df1b110ead5bba","5f60e3c0a3b16e07647b2ff9","5f61dbf7a77726198aec5896","false","null","<span style=""color: black; font-size: 48px"">M + N</span>","null","","","","resp_prompt","","","","","","","","","","","","","","","",""
"categorize-image","87","361495","0.0-3.0-3.0-1.13","a3rbm0y7nyttnys","practice_cue","5dbb0562b1df1b110ead5bba","5f60e3c0a3b16e07647b2ff9","5f61dbf7a77726198aec5896","true","751.6249999998836","./Stimuli/ImagesPractice/SN75.jpg","76","","","","test","true","M + N","76","","SN","SN75.jpg","remember","old","30","2","practice_forget","right","","","",""
"html-keyboard-response","88","363497","0.0-3.0-3.0-3.13","a3rbm0y7nyttnys","practice_cue","5dbb0562b1df1b110ead5bba","5f60e3c0a3b16e07647b2ff9","5f61dbf7a77726198aec5896","false","null","<div style=""align-items: center; display: flex; color: dodgerblue; font-size: 90px""><b>o</b></div>","null","","","","forget_cue","","","","","","","","","","","","","","","",""
"html-keyboard-response","89","364199","0.0-3.0-3.0-0.14","a3rbm0y7nyttnys","practice_cue","5dbb0562b1df1b110ead5bba","5f60e3c0a3b16e07647b2ff9","5f61dbf7a77726198aec5896","false","null","<span style=""color: black; font-size: 48px"">N + M</span>","null","","","","resp_prompt","","","","","","","","","","","","","","","",""
"categorize-image","90","365224","0.0-3.0-3.0-1.14","a3rbm0y7nyttnys","practice_cue","5dbb0562b1df1b110ead5bba","5f60e3c0a3b16e07647b2ff9","5f61dbf7a77726198aec5896","true","1017.7100000000792","./Stimuli/ImagesPractice/LM55.jpg","76","","","","test","true","N + M","76","","LM","LM55.jpg","remember","old","31","2","practice_forget","right","","","",""
"html-keyboard-response","91","367226","0.0-3.0-3.0-3.14","a3rbm0y7nyttnys","practice_cue","5dbb0562b1df1b110ead5bba","5f60e3c0a3b16e07647b2ff9","5f61dbf7a77726198aec5896","false","null","<div style=""align-items: center; display: flex; color: dodgerblue; font-size: 90px""><b>o</b></div>","null","","","","forget_cue","","","","","","","","","","","","","","","",""
"html-keyboard-response","92","367928","0.0-3.0-3.0-0.15","a3rbm0y7nyttnys","practice_cue","5dbb0562b1df1b110ead5bba","5f60e3c0a3b16e07647b2ff9","5f61dbf7a77726198aec5896","false","null","<span style=""color: black; font-size: 48px"">N + M</span>","null","","","","resp_prompt","","","","","","","","","","","","","","","",""
"categorize-image","93","368777","0.0-3.0-3.0-1.15","a3rbm0y7nyttnys","practice_cue","5dbb0562b1df1b110ead5bba","5f60e3c0a3b16e07647b2ff9","5f61dbf7a77726198aec5896","true","841.3399999999092","./Stimuli/ImagesPractice/LN17.jpg","83","","","","test","true","N + M","83","","LN","LN17.jpg","forget","old","32","2","practice_forget","left","","","",""
"html-keyboard-response","94","370780","0.0-3.0-3.0-3.15","a3rbm0y7nyttnys","practice_cue","5dbb0562b1df1b110ead5bba","5f60e3c0a3b16e07647b2ff9","5f61dbf7a77726198aec5896","false","null","<div style=""align-items: center; display: flex; color: darkorange; font-size: 90px""><b>ø</b></div>","null","","","","forget_cue","","","","","","","","","","","","","","","",""
"html-keyboard-response","95","374375","0.0-3.0-4.0","a3rbm0y7nyttnys","break","5dbb0562b1df1b110ead5bba","5f60e3c0a3b16e07647b2ff9","5f61dbf7a77726198aec5896","false","3590.7899999992806","<p style='font-size: 32px;'>Break</><br><br><br><br><br><p style='font-size: 24px;'>In the last block, you committed 0 errors and did not respond in time on 0 trials.
</p><p style='font-size: 24px;'>Try to respond as fast and accurately as possible in the next block as well! </p><p style='font-size: 24px;'>Press SPACE to continue.</p>","32","","","","","","","","","","","","","","","","","","","",""
"html-keyboard-response","96","383789","0.0-3.0-5.0","a3rbm0y7nyttnys","instructions","5dbb0562b1df1b110ead5bba","5f60e3c0a3b16e07647b2ff9","5f61dbf7a77726198aec5896","false","9411.844999999681","<div align=left> Now, to practice, we kindly ask you to remember as many of the to-be-remembered pictures<br>of the previous learning phase as possible.<br><br>The pictures you were instructed to remember were the pictures followed by a <span style='color: dodgerblue; font-size: 28px'>O</span>.<br><br>In this memory test phase, you will also see some new pictures.<br>It is your task to remember whether you were presented with this specific picture in this study so far or not.<br>If you recognize an object (you have already seen it in this study), it is an OLD object. <br>If you do not recognize an object (you have NOT seen it in this study), it is a NEW object. <br><strong> Attention</strong>: As already mentioned, <span style='color: darkorange; font-size:28px'>Ø</span>-pictures will <strong>never</strong> appear in this memory test (neither as new objects). <br><br>Press SPACE to continue. </div>","32","","","","","","","","","","","","","","","","","","","",""
"html-keyboard-response","97","405198","0.0-3.0-6.0","a3rbm0y7nyttnys","instructions","5dbb0562b1df1b110ead5bba","5f60e3c0a3b16e07647b2ff9","5f61dbf7a77726198aec5896","false","21405.42499999993","<div align=left> M and N no longer will appear on the left/right of the fixation cross. <br>Instead there will be a note at the bottom of the left or right side  <br>indicating which key you should press for an old or new object:  <br> <br>Press the <strong>right</strong> key to classify an object as <strong>old</strong> and press the <strong>left</strong>, to classify an object as <strong>new</strong>.<br>Please classify the objects as new/old by again placing your index finger on the 'S' and 'L' keys <br>and press them accordingly.<br><br><strong>Old:</strong> This object has been presented before. <br><strong>New:</strong> This object has <strong>not</strong> been presented.<br><br>Now please put your right and left index fingers on the 'S' and 'L' keys of your keyboard. <br>Please respond as fast and as accurately as possible!<br><br>Press SPACE to continue. </div>","32","","","","","","","","","","","","","","","","","","","",""
"categorize-image","98","408377","0.0-3.0-7.0-0.0","a3rbm0y7nyttnys","practice_recog","5dbb0562b1df1b110ead5bba","5f60e3c0a3b16e07647b2ff9","5f61dbf7a77726198aec5896","true","2670.204999999434","./Stimuli/ImagesPractice/SM62.jpg","83","","","","test","true","","83","","SM","SM62.jpg","","old","33","3","practice_recog","left","","","",""
"categorize-image","99","409830","0.0-3.0-7.0-0.1","a3rbm0y7nyttnys","practice_recog","5dbb0562b1df1b110ead5bba","5f60e3c0a3b16e07647b2ff9","5f61dbf7a77726198aec5896","true","947.7200000001467","./Stimuli/ImagesPractice/SM35.jpg","83","","","","test","true","","83","","SM","SM35.jpg","","old","34","3","practice_recog","left","","","",""
"categorize-image","100","411059","0.0-3.0-7.0-0.2","a3rbm0y7nyttnys","practice_recog","5dbb0562b1df1b110ead5bba","5f60e3c0a3b16e07647b2ff9","5f61dbf7a77726198aec5896","true","724.5100000000093","./Stimuli/ImagesPractice/LM55.jpg","83","","","","test","true","","83","","LM","LM55.jpg","","old","35","3","practice_recog","left","","","",""
"categorize-image","101","412542","0.0-3.0-7.0-0.3","a3rbm0y7nyttnys","practice_recog","5dbb0562b1df1b110ead5bba","5f60e3c0a3b16e07647b2ff9","5f61dbf7a77726198aec5896","true","979.1099999992875","./Stimuli/ImagesPractice/LM143.jpg","83","","","","test","true","","83","","LM","LM143.jpg","","old","36","3","practice_recog","left","","","",""
"categorize-image","102","413982","0.0-3.0-7.0-0.4","a3rbm0y7nyttnys","practice_recog","5dbb0562b1df1b110ead5bba","5f60e3c0a3b16e07647b2ff9","5f61dbf7a77726198aec5896","true","936.114999999525","./Stimuli/ImagesPractice/SM37.jpg","76","","","","test","true","","76","","SM","SM37.jpg","","new","37","3","practice_recog","right","","","",""
"categorize-image","103","415406","0.0-3.0-7.0-0.5","a3rbm0y7nyttnys","practice_recog","5dbb0562b1df1b110ead5bba","5f60e3c0a3b16e07647b2ff9","5f61dbf7a77726198aec5896","true","920.8500000003842","./Stimuli/ImagesPractice/LM230.jpg","76","","","","test","true","","76","","LM","LM230.jpg","","new","38","3","practice_recog","right","","","",""
"categorize-image","104","416746","0.0-3.0-7.0-0.6","a3rbm0y7nyttnys","practice_recog","5dbb0562b1df1b110ead5bba","5f60e3c0a3b16e07647b2ff9","5f61dbf7a77726198aec5896","true","836.3299999991432","./Stimuli/ImagesPractice/LN72.jpg","83","","","","test","true","","83","","LN","LN72.jpg","","old","39","3","practice_recog","left","","","",""
"categorize-image","105","418083","0.0-3.0-7.0-0.7","a3rbm0y7nyttnys","practice_recog","5dbb0562b1df1b110ead5bba","5f60e3c0a3b16e07647b2ff9","5f61dbf7a77726198aec5896","true","833.2850000006147","./Stimuli/ImagesPractice/LN2.jpg","76","","","","test","true","","76","","LN","LN2.jpg","","new","40","3","practice_recog","right","","","",""
"categorize-image","106","419518","0.0-3.0-7.0-0.8","a3rbm0y7nyttnys","practice_recog","5dbb0562b1df1b110ead5bba","5f60e3c0a3b16e07647b2ff9","5f61dbf7a77726198aec5896","true","930.1150000001071","./Stimuli/ImagesPractice/SN205.jpg","83","","","","test","true","","83","","SN","SN205.jpg","","old","41","3","practice_recog","left","","","",""
"categorize-image","107","420980","0.0-3.0-7.0-0.9","a3rbm0y7nyttnys","practice_recog","5dbb0562b1df1b110ead5bba","5f60e3c0a3b16e07647b2ff9","5f61dbf7a77726198aec5896","true","956.0250000004307","./Stimuli/ImagesPractice/SM97.jpg","76","","","","test","true","","76","","SM","SM97.jpg","","new","42","3","practice_recog","right","","","",""
"categorize-image","108","422417","0.0-3.0-7.0-0.10","a3rbm0y7nyttnys","practice_recog","5dbb0562b1df1b110ead5bba","5f60e3c0a3b16e07647b2ff9","5f61dbf7a77726198aec5896","true","933.5050000000047","./Stimuli/ImagesPractice/LN4.jpg","83","","","","test","true","","83","","LN","LN4.jpg","","old","43","3","practice_recog","left","","","",""
"categorize-image","109","423793","0.0-3.0-7.0-0.11","a3rbm0y7nyttnys","practice_recog","5dbb0562b1df1b110ead5bba","5f60e3c0a3b16e07647b2ff9","5f61dbf7a77726198aec5896","true","872.9100000000326","./Stimuli/ImagesPractice/LM147.jpg","76","","","","test","true","","76","","LM","LM147.jpg","","new","44","3","practice_recog","right","","","",""
"categorize-image","110","425072","0.0-3.0-7.0-0.12","a3rbm0y7nyttnys","practice_recog","5dbb0562b1df1b110ead5bba","5f60e3c0a3b16e07647b2ff9","5f61dbf7a77726198aec5896","true","774.2900000002701","./Stimuli/ImagesPractice/SN221.jpg","76","","","","test","true","","76","","SN","SN221.jpg","","new","45","3","practice_recog","right","","","",""
"categorize-image","111","426522","0.0-3.0-7.0-0.13","a3rbm0y7nyttnys","practice_recog","5dbb0562b1df1b110ead5bba","5f60e3c0a3b16e07647b2ff9","5f61dbf7a77726198aec5896","true","945.4800000003306","./Stimuli/ImagesPractice/SM61.jpg","76","","","","test","true","","76","","SM","SM61.jpg","","new","46","3","practice_recog","right","","","",""
"categorize-image","112","428147","0.0-3.0-7.0-0.14","a3rbm0y7nyttnys","practice_recog","5dbb0562b1df1b110ead5bba","5f60e3c0a3b16e07647b2ff9","5f61dbf7a77726198aec5896","true","1119.645000000659","./Stimuli/ImagesPractice/SN75.jpg","83","","","","test","true","","83","","SN","SN75.jpg","","old","47","3","practice_recog","left","","","",""
"categorize-image","113","429480","0.0-3.0-7.0-0.15","a3rbm0y7nyttnys","practice_recog","5dbb0562b1df1b110ead5bba","5f60e3c0a3b16e07647b2ff9","5f61dbf7a77726198aec5896","true","829.7800000000279","./Stimuli/ImagesPractice/LM239.jpg","76","","","","test","true","","76","","LM","LM239.jpg","","new","48","3","practice_recog","right","","","",""
"html-keyboard-response","114","436781","0.0-3.0-8.0","a3rbm0y7nyttnys","instructions","5dbb0562b1df1b110ead5bba","5f60e3c0a3b16e07647b2ff9","5f61dbf7a77726198aec5896","false","7298.329999999667","<div align=left> Great!<br><br>Are you ready to continue?<br>If you want to reread the instructions and redo the practice trials, please <br>press „Z“.<br><br>You can proceed when you are ready.<br><br>After the presentation of each object, you will receive an instruction whether to <br>remember or to forget the object.<br>We will test your memory of the following pictures only at the very end of <br>the experiment after all learning blocks are completed. <br><br>Press SPACE to CONTINUE when you are ready. </div>","32","","","","","","","","","","","","","","","","","","","",""
"html-keyboard-response","115","444482","0.0-4.0-0.0","a3rbm0y7nyttnys","instructions","5dbb0562b1df1b110ead5bba","5f60e3c0a3b16e07647b2ff9","5f61dbf7a77726198aec5896","false","7698.489999999816","<div align=left> The actual experiment is about to start.<br>The practice trials are over!<br><br>Please always respond both fast and accurately!<br><br>Remember: <br> <br><li> Please place your index fingers on the <strong>'S'</strong> and <strong>'L'</strong> keys <br>to respond as fast and accurately as possible.</li><li> Every picture can be classified as either mechanical or non-mechanical.</li><li> If you do not respond in time or commit an error, you will receive a corresponding feedback.<br> Please try to respond as <strong> fast </strong> and as <strong> accurately as possible </strong>.</li><li> Remember the <span style='color: dodgerblue; font-size: 28px'>O</span> pictures. <br></li><li> Please minimize distractions and stay focused. </li><br><br>Press SPACE to START.</div>","32","","","","","","","","","","","","","","","","","","","",""
"html-keyboard-response","116","445185","0.0-4.0-1.0-0.0","a3rbm0y7nyttnys","prime","5dbb0562b1df1b110ead5bba","5f60e3c0a3b16e07647b2ff9","5f61dbf7a77726198aec5896","false","null","<span style=""color: black; font-size: 48px"">N + M</span>","null","","","","resp_prompt","","","","","","","","","","","","","","","",""
"categorize-image","117","446290","0.0-4.0-1.0-1.0","a3rbm0y7nyttnys","prime","5dbb0562b1df1b110ead5bba","5f60e3c0a3b16e07647b2ff9","5f61dbf7a77726198aec5896","true","1097.514999999432","./Stimuli/SelectedImages/LM/LM167.bmp","76","","","","test","true","N + M","76","switch","LM","LM167.bmp","forget","","49","3","prime1","right","","","",""
"html-keyboard-response","118","448293","0.0-4.0-1.0-3.0","a3rbm0y7nyttnys","prime","5dbb0562b1df1b110ead5bba","5f60e3c0a3b16e07647b2ff9","5f61dbf7a77726198aec5896","false","null","<div style=""align-items: center; display: flex; color: darkorange; font-size: 90px""><b>ø</b></div>","null","","","","forget_cue","","","","","","","","","","","","","","","",""
"html-keyboard-response","119","448995","0.0-4.0-1.0-0.1","a3rbm0y7nyttnys","prime","5dbb0562b1df1b110ead5bba","5f60e3c0a3b16e07647b2ff9","5f61dbf7a77726198aec5896","false","null","<span style=""color: black; font-size: 48px"">M + N</span>","null","","","","resp_prompt","","","","","","","","","","","","","","","",""
"categorize-image","120","449905","0.0-4.0-1.0-1.1","a3rbm0y7nyttnys","prime","5dbb0562b1df1b110ead5bba","5f60e3c0a3b16e07647b2ff9","5f61dbf7a77726198aec5896","true","902.9399999999441","./Stimuli/SelectedImages/LM/LM100.bmp","83","","","","test","true","M + N","83","repetition","LM","LM100.bmp","forget","","50","3","prime1","left","","","",""
"html-keyboard-response","121","451907","0.0-4.0-1.0-3.1","a3rbm0y7nyttnys","prime","5dbb0562b1df1b110ead5bba","5f60e3c0a3b16e07647b2ff9","5f61dbf7a77726198aec5896","false","null","<div style=""align-items: center; display: flex; color: darkorange; font-size: 90px""><b>ø</b></div>","null","","","","forget_cue","","","","","","","","","","","","","","","",""
"html-keyboard-response","122","452609","0.0-4.0-1.0-0.2","a3rbm0y7nyttnys","prime","5dbb0562b1df1b110ead5bba","5f60e3c0a3b16e07647b2ff9","5f61dbf7a77726198aec5896","false","null","<span style=""color: black; font-size: 48px"">M + N</span>","null","","","","resp_prompt","","","","","","","","","","","","","","","",""
"categorize-image","123","453815","0.0-4.0-1.0-1.2","a3rbm0y7nyttnys","prime","5dbb0562b1df1b110ead5bba","5f60e3c0a3b16e07647b2ff9","5f61dbf7a77726198aec5896","true","1199.7499999997672","./Stimuli/SelectedImages/LM/LM103.bmp","83","","","","test","true","M + N","83","switch","LM","LM103.bmp","remember","","51","3","prime1","left","","","",""
"html-keyboard-response","124","455818","0.0-4.0-1.0-3.2","a3rbm0y7nyttnys","prime","5dbb0562b1df1b110ead5bba","5f60e3c0a3b16e07647b2ff9","5f61dbf7a77726198aec5896","false","null","<div style=""align-items: center; display: flex; color: dodgerblue; font-size: 90px""><b>o</b></div>","null","","","","forget_cue","","","","","","","","","","","","","","","",""
"html-keyboard-response","125","456523","0.0-4.0-1.0-0.3","a3rbm0y7nyttnys","prime","5dbb0562b1df1b110ead5bba","5f60e3c0a3b16e07647b2ff9","5f61dbf7a77726198aec5896","false","null","<span style=""color: black; font-size: 48px"">N + M</span>","null","","","","resp_prompt","","","","","","","","","","","","","","","",""
"categorize-image","126","457315","0.0-4.0-1.0-1.3","a3rbm0y7nyttnys","prime","5dbb0562b1df1b110ead5bba","5f60e3c0a3b16e07647b2ff9","5f61dbf7a77726198aec5896","true","785.2599999996601","./Stimuli/SelectedImages/LM/LM179.bmp","76","","","","test","true","N + M","76","repetition","LM","LM179.bmp","forget","","52","3","prime1","right","","","",""
"html-keyboard-response","127","459318","0.0-4.0-1.0-3.3","a3rbm0y7nyttnys","prime","5dbb0562b1df1b110ead5bba","5f60e3c0a3b16e07647b2ff9","5f61dbf7a77726198aec5896","false","null","<div style=""align-items: center; display: flex; color: darkorange; font-size: 90px""><b>ø</b></div>","null","","","","forget_cue","","","","","","","","","","","","","","","",""
"html-keyboard-response","128","460020","0.0-4.0-1.0-0.4","a3rbm0y7nyttnys","prime","5dbb0562b1df1b110ead5bba","5f60e3c0a3b16e07647b2ff9","5f61dbf7a77726198aec5896","false","null","<span style=""color: black; font-size: 48px"">M + N</span>","null","","","","resp_prompt","","","","","","","","","","","","","","","",""
"categorize-image","129","460889","0.0-4.0-1.0-1.4","a3rbm0y7nyttnys","prime","5dbb0562b1df1b110ead5bba","5f60e3c0a3b16e07647b2ff9","5f61dbf7a77726198aec5896","true","863.065000000468","./Stimuli/SelectedImages/SN/SN140.bmp","76","","","","test","true","M + N","76","switch","SN","SN140.bmp","forget","","53","3","prime1","right","","","",""
"html-keyboard-response","130","462891","0.0-4.0-1.0-3.4","a3rbm0y7nyttnys","prime","5dbb0562b1df1b110ead5bba","5f60e3c0a3b16e07647b2ff9","5f61dbf7a77726198aec5896","false","null","<div style=""align-items: center; display: flex; color: darkorange; font-size: 90px""><b>ø</b></div>","null","","","","forget_cue","","","","","","","","","","","","","","","",""
"html-keyboard-response","131","463593","0.0-4.0-1.0-0.5","a3rbm0y7nyttnys","prime","5dbb0562b1df1b110ead5bba","5f60e3c0a3b16e07647b2ff9","5f61dbf7a77726198aec5896","false","null","<span style=""color: black; font-size: 48px"">N + M</span>","null","","","","resp_prompt","","","","","","","","","","","","","","","",""
"categorize-image","132","464372","0.0-4.0-1.0-1.5","a3rbm0y7nyttnys","prime","5dbb0562b1df1b110ead5bba","5f60e3c0a3b16e07647b2ff9","5f61dbf7a77726198aec5896","true","771.2549999996554","./Stimuli/SelectedImages/LN/LN128.bmp","83","","","","test","true","N + M","83","repetition","LN","LN128.bmp","remember","","54","3","prime1","left","","","",""
"html-keyboard-response","133","466374","0.0-4.0-1.0-3.5","a3rbm0y7nyttnys","prime","5dbb0562b1df1b110ead5bba","5f60e3c0a3b16e07647b2ff9","5f61dbf7a77726198aec5896","false","null","<div style=""align-items: center; display: flex; color: dodgerblue; font-size: 90px""><b>o</b></div>","null","","","","forget_cue","","","","","","","","","","","","","","","",""
"html-keyboard-response","134","467076","0.0-4.0-1.0-0.6","a3rbm0y7nyttnys","prime","5dbb0562b1df1b110ead5bba","5f60e3c0a3b16e07647b2ff9","5f61dbf7a77726198aec5896","false","null","<span style=""color: black; font-size: 48px"">N + M</span>","null","","","","resp_prompt","","","","","","","","","","","","","","","",""
"categorize-image","135","467909","0.0-4.0-1.0-1.6","a3rbm0y7nyttnys","prime","5dbb0562b1df1b110ead5bba","5f60e3c0a3b16e07647b2ff9","5f61dbf7a77726198aec5896","true","823.7950000002165","./Stimuli/SelectedImages/LM/LM235.bmp","76","","","","test","true","N + M","76","switch","LM","LM235.bmp","remember","","55","3","prime1","right","","","",""
"html-keyboard-response","136","469911","0.0-4.0-1.0-3.6","a3rbm0y7nyttnys","prime","5dbb0562b1df1b110ead5bba","5f60e3c0a3b16e07647b2ff9","5f61dbf7a77726198aec5896","false","null","<div style=""align-items: center; display: flex; color: dodgerblue; font-size: 90px""><b>o</b></div>","null","","","","forget_cue","","","","","","","","","","","","","","","",""
"html-keyboard-response","137","470613","0.0-4.0-1.0-0.7","a3rbm0y7nyttnys","prime","5dbb0562b1df1b110ead5bba","5f60e3c0a3b16e07647b2ff9","5f61dbf7a77726198aec5896","false","null","<span style=""color: black; font-size: 48px"">N + M</span>","null","","","","resp_prompt","","","","","","","","","","","","","","","",""
"categorize-image","138","471365","0.0-4.0-1.0-1.7","a3rbm0y7nyttnys","prime","5dbb0562b1df1b110ead5bba","5f60e3c0a3b16e07647b2ff9","5f61dbf7a77726198aec5896","true","745.8800000004121","./Stimuli/SelectedImages/LN/LN28.bmp","83","","","","test","true","N + M","83","repetition","LN","LN28.bmp","forget","","56","3","prime1","left","","","",""
"html-keyboard-response","139","473367","0.0-4.0-1.0-3.7","a3rbm0y7nyttnys","prime","5dbb0562b1df1b110ead5bba","5f60e3c0a3b16e07647b2ff9","5f61dbf7a77726198aec5896","false","null","<div style=""align-items: center; display: flex; color: darkorange; font-size: 90px""><b>ø</b></div>","null","","","","forget_cue","","","","","","","","","","","","","","","",""
"html-keyboard-response","140","474070","0.0-4.0-1.0-0.8","a3rbm0y7nyttnys","prime","5dbb0562b1df1b110ead5bba","5f60e3c0a3b16e07647b2ff9","5f61dbf7a77726198aec5896","false","null","<span style=""color: black; font-size: 48px"">M + N</span>","null","","","","resp_prompt","","","","","","","","","","","","","","","",""
"categorize-image","141","474818","0.0-4.0-1.0-1.8","a3rbm0y7nyttnys","prime","5dbb0562b1df1b110ead5bba","5f60e3c0a3b16e07647b2ff9","5f61dbf7a77726198aec5896","true","742.5250000005472","./Stimuli/SelectedImages/LN/LN111.bmp","76","","","","test","true","M + N","76","repetition","LN","LN111.bmp","remember","","57","3","prime1","right","","","",""
"html-keyboard-response","142","476821","0.0-4.0-1.0-3.8","a3rbm0y7nyttnys","prime","5dbb0562b1df1b110ead5bba","5f60e3c0a3b16e07647b2ff9","5f61dbf7a77726198aec5896","false","null","<div style=""align-items: center; display: flex; color: dodgerblue; font-size: 90px""><b>o</b></div>","null","","","","forget_cue","","","","","","","","","","","","","","","",""
"html-keyboard-response","143","477522","0.0-4.0-1.0-0.9","a3rbm0y7nyttnys","prime","5dbb0562b1df1b110ead5bba","5f60e3c0a3b16e07647b2ff9","5f61dbf7a77726198aec5896","false","null","<span style=""color: black; font-size: 48px"">M + N</span>","null","","","","resp_prompt","","","","","","","","","","","","","","","",""
"categorize-image","144","478525","0.0-4.0-1.0-1.9","a3rbm0y7nyttnys","prime","5dbb0562b1df1b110ead5bba","5f60e3c0a3b16e07647b2ff9","5f61dbf7a77726198aec5896","true","995.8400000004913","./Stimuli/SelectedImages/SM/SM106.bmp","76","","","","test","false","M + N","83","switch","SM","SM106.bmp","forget","","58","3","prime1","right","","","",""
"html-keyboard-response","145","479026","0.0-4.0-1.0-2.9-0.9","a3rbm0y7nyttnys","prime","5dbb0562b1df1b110ead5bba","5f60e3c0a3b16e07647b2ff9","5f61dbf7a77726198aec5896","false","null","<span style=""color: red; font-size: 48px"">Error!</span>","null","","","","feedback","","","","","","","","","","","","","","","",""
"html-keyboard-response","146","481028","0.0-4.0-1.0-3.9","a3rbm0y7nyttnys","prime","5dbb0562b1df1b110ead5bba","5f60e3c0a3b16e07647b2ff9","5f61dbf7a77726198aec5896","false","null","<div style=""align-items: center; display: flex; color: darkorange; font-size: 90px""><b>ø</b></div>","null","","","","forget_cue","","","","","","","","","","","","","","","",""
"html-keyboard-response","147","481730","0.0-4.0-1.0-0.10","a3rbm0y7nyttnys","prime","5dbb0562b1df1b110ead5bba","5f60e3c0a3b16e07647b2ff9","5f61dbf7a77726198aec5896","false","null","<span style=""color: black; font-size: 48px"">M + N</span>","null","","","","resp_prompt","","","","","","","","","","","","","","","",""
"categorize-image","148","482718","0.0-4.0-1.0-1.10","a3rbm0y7nyttnys","prime","5dbb0562b1df1b110ead5bba","5f60e3c0a3b16e07647b2ff9","5f61dbf7a77726198aec5896","true","980.324999999546","./Stimuli/SelectedImages/LM/LM75.bmp","83","","","","test","true","M + N","83","switch","LM","LM75.bmp","forget","","59","3","prime1","left","","","",""
"html-keyboard-response","149","484720","0.0-4.0-1.0-3.10","a3rbm0y7nyttnys","prime","5dbb0562b1df1b110ead5bba","5f60e3c0a3b16e07647b2ff9","5f61dbf7a77726198aec5896","false","null","<div style=""align-items: center; display: flex; color: darkorange; font-size: 90px""><b>ø</b></div>","null","","","","forget_cue","","","","","","","","","","","","","","","",""
"html-keyboard-response","150","485423","0.0-4.0-1.0-0.11","a3rbm0y7nyttnys","prime","5dbb0562b1df1b110ead5bba","5f60e3c0a3b16e07647b2ff9","5f61dbf7a77726198aec5896","false","null","<span style=""color: black; font-size: 48px"">N + M</span>","null","","","","resp_prompt","","","","","","","","","","","","","","","",""
"categorize-image","151","486697","0.0-4.0-1.0-1.11","a3rbm0y7nyttnys","prime","5dbb0562b1df1b110ead5bba","5f60e3c0a3b16e07647b2ff9","5f61dbf7a77726198aec5896","true","1267.3799999993062","./Stimuli/SelectedImages/LM/LM209.bmp","76","","","","test","true","N + M","76","repetition","LM","LM209.bmp","forget","","60","3","prime1","right","","","",""
"html-keyboard-response","152","488700","0.0-4.0-1.0-3.11","a3rbm0y7nyttnys","prime","5dbb0562b1df1b110ead5bba","5f60e3c0a3b16e07647b2ff9","5f61dbf7a77726198aec5896","false","null","<div style=""align-items: center; display: flex; color: darkorange; font-size: 90px""><b>ø</b></div>","null","","","","forget_cue","","","","","","","","","","","","","","","",""
"html-keyboard-response","153","489402","0.0-4.0-1.0-0.12","a3rbm0y7nyttnys","prime","5dbb0562b1df1b110ead5bba","5f60e3c0a3b16e07647b2ff9","5f61dbf7a77726198aec5896","false","null","<span style=""color: black; font-size: 48px"">M + N</span>","null","","","","resp_prompt","","","","","","","","","","","","","","","",""
"categorize-image","154","490316","0.0-4.0-1.0-1.12","a3rbm0y7nyttnys","prime","5dbb0562b1df1b110ead5bba","5f60e3c0a3b16e07647b2ff9","5f61dbf7a77726198aec5896","true","907.4350000001141","./Stimuli/SelectedImages/LN/LN101.bmp","76","","","","test","true","M + N","76","switch","LN","LN101.bmp","forget","","61","3","prime1","right","","","",""
"html-keyboard-response","155","492318","0.0-4.0-1.0-3.12","a3rbm0y7nyttnys","prime","5dbb0562b1df1b110ead5bba","5f60e3c0a3b16e07647b2ff9","5f61dbf7a77726198aec5896","false","null","<div style=""align-items: center; display: flex; color: darkorange; font-size: 90px""><b>ø</b></div>","null","","","","forget_cue","","","","","","","","","","","","","","","",""
"html-keyboard-response","156","493020","0.0-4.0-1.0-0.13","a3rbm0y7nyttnys","prime","5dbb0562b1df1b110ead5bba","5f60e3c0a3b16e07647b2ff9","5f61dbf7a77726198aec5896","false","null","<span style=""color: black; font-size: 48px"">M + N</span>","null","","","","resp_prompt","","","","","","","","","","","","","","","",""
"categorize-image","157","493659","0.0-4.0-1.0-1.13","a3rbm0y7nyttnys","prime","5dbb0562b1df1b110ead5bba","5f60e3c0a3b16e07647b2ff9","5f61dbf7a77726198aec5896","true","631.7950000002747","./Stimuli/SelectedImages/SN/SN27.bmp","76","","","","test","true","M + N","76","repetition","SN","SN27.bmp","forget","","62","3","prime1","right","","","",""
"html-keyboard-response","158","495661","0.0-4.0-1.0-3.13","a3rbm0y7nyttnys","prime","5dbb0562b1df1b110ead5bba","5f60e3c0a3b16e07647b2ff9","5f61dbf7a77726198aec5896","false","null","<div style=""align-items: center; display: flex; color: darkorange; font-size: 90px""><b>ø</b></div>","null","","","","forget_cue","","","","","","","","","","","","","","","",""
"html-keyboard-response","159","496363","0.0-4.0-1.0-0.14","a3rbm0y7nyttnys","prime","5dbb0562b1df1b110ead5bba","5f60e3c0a3b16e07647b2ff9","5f61dbf7a77726198aec5896","false","null","<span style=""color: black; font-size: 48px"">N + M</span>","null","","","","resp_prompt","","","","","","","","","","","","","","","",""
"categorize-image","160","497203","0.0-4.0-1.0-1.14","a3rbm0y7nyttnys","prime","5dbb0562b1df1b110ead5bba","5f60e3c0a3b16e07647b2ff9","5f61dbf7a77726198aec5896","true","833.854999999865","./Stimuli/SelectedImages/SN/SN240.bmp","83","","","","test","true","N + M","83","repetition","SN","SN240.bmp","forget","","63","3","prime1","left","","","",""
"html-keyboard-response","161","499205","0.0-4.0-1.0-3.14","a3rbm0y7nyttnys","prime","5dbb0562b1df1b110ead5bba","5f60e3c0a3b16e07647b2ff9","5f61dbf7a77726198aec5896","false","null","<div style=""align-items: center; display: flex; color: darkorange; font-size: 90px""><b>ø</b></div>","null","","","","forget_cue","","","","","","","","","","","","","","","",""
"html-keyboard-response","162","499907","0.0-4.0-1.0-0.15","a3rbm0y7nyttnys","prime","5dbb0562b1df1b110ead5bba","5f60e3c0a3b16e07647b2ff9","5f61dbf7a77726198aec5896","false","null","<span style=""color: black; font-size: 48px"">N + M</span>","null","","","","resp_prompt","","","","","","","","","","","","","","","",""
"categorize-image","163","500995","0.0-4.0-1.0-1.15","a3rbm0y7nyttnys","prime","5dbb0562b1df1b110ead5bba","5f60e3c0a3b16e07647b2ff9","5f61dbf7a77726198aec5896","true","1078.1400000005378","./Stimuli/SelectedImages/SM/SM17.bmp","76","","","","test","true","N + M","76","repetition","SM","SM17.bmp","forget","","64","3","prime1","right","","","",""
"html-keyboard-response","164","502997","0.0-4.0-1.0-3.15","a3rbm0y7nyttnys","prime","5dbb0562b1df1b110ead5bba","5f60e3c0a3b16e07647b2ff9","5f61dbf7a77726198aec5896","false","null","<div style=""align-items: center; display: flex; color: darkorange; font-size: 90px""><b>ø</b></div>","null","","","","forget_cue","","","","","","","","","","","","","","","",""
"html-keyboard-response","165","503699","0.0-4.0-1.0-0.16","a3rbm0y7nyttnys","prime","5dbb0562b1df1b110ead5bba","5f60e3c0a3b16e07647b2ff9","5f61dbf7a77726198aec5896","false","null","<span style=""color: black; font-size: 48px"">N + M</span>","null","","","","resp_prompt","","","","","","","","","","","","","","","",""
"categorize-image","166","504615","0.0-4.0-1.0-1.16","a3rbm0y7nyttnys","prime","5dbb0562b1df1b110ead5bba","5f60e3c0a3b16e07647b2ff9","5f61dbf7a77726198aec5896","true","908.8349999992643","./Stimuli/SelectedImages/SN/SN52.bmp","83","","","","test","true","N + M","83","switch","SN","SN52.bmp","forget","","65","3","prime1","left","","","",""
"html-keyboard-response","167","506617","0.0-4.0-1.0-3.16","a3rbm0y7nyttnys","prime","5dbb0562b1df1b110ead5bba","5f60e3c0a3b16e07647b2ff9","5f61dbf7a77726198aec5896","false","null","<div style=""align-items: center; display: flex; color: darkorange; font-size: 90px""><b>ø</b></div>","null","","","","forget_cue","","","","","","","","","","","","","","","",""
"html-keyboard-response","168","507319","0.0-4.0-1.0-0.17","a3rbm0y7nyttnys","prime","5dbb0562b1df1b110ead5bba","5f60e3c0a3b16e07647b2ff9","5f61dbf7a77726198aec5896","false","null","<span style=""color: black; font-size: 48px"">N + M</span>","null","","","","resp_prompt","","","","","","","","","","","","","","","",""
"categorize-image","169","508003","0.0-4.0-1.0-1.17","a3rbm0y7nyttnys","prime","5dbb0562b1df1b110ead5bba","5f60e3c0a3b16e07647b2ff9","5f61dbf7a77726198aec5896","true","676.4000000003143","./Stimuli/SelectedImages/SN/SN182.bmp","83","","","","test","true","N + M","83","switch","SN","SN182.bmp","remember","","66","3","prime1","left","","","",""
"html-keyboard-response","170","510006","0.0-4.0-1.0-3.17","a3rbm0y7nyttnys","prime","5dbb0562b1df1b110ead5bba","5f60e3c0a3b16e07647b2ff9","5f61dbf7a77726198aec5896","false","null","<div style=""align-items: center; display: flex; color: dodgerblue; font-size: 90px""><b>o</b></div>","null","","","","forget_cue","","","","","","","","","","","","","","","",""
"html-keyboard-response","171","510708","0.0-4.0-1.0-0.18","a3rbm0y7nyttnys","prime","5dbb0562b1df1b110ead5bba","5f60e3c0a3b16e07647b2ff9","5f61dbf7a77726198aec5896","false","null","<span style=""color: black; font-size: 48px"">N + M</span>","null","","","","resp_prompt","","","","","","","","","","","","","","","",""
"categorize-image","172","511568","0.0-4.0-1.0-1.18","a3rbm0y7nyttnys","prime","5dbb0562b1df1b110ead5bba","5f60e3c0a3b16e07647b2ff9","5f61dbf7a77726198aec5896","true","852.8450000003213","./Stimuli/SelectedImages/SN/SN18.bmp","83","","","","test","true","N + M","83","switch","SN","SN18.bmp","forget","","67","3","prime1","left","","","",""
"html-keyboard-response","173","513571","0.0-4.0-1.0-3.18","a3rbm0y7nyttnys","prime","5dbb0562b1df1b110ead5bba","5f60e3c0a3b16e07647b2ff9","5f61dbf7a77726198aec5896","false","null","<div style=""align-items: center; display: flex; color: darkorange; font-size: 90px""><b>ø</b></div>","null","","","","forget_cue","","","","","","","","","","","","","","","",""
"html-keyboard-response","174","514272","0.0-4.0-1.0-0.19","a3rbm0y7nyttnys","prime","5dbb0562b1df1b110ead5bba","5f60e3c0a3b16e07647b2ff9","5f61dbf7a77726198aec5896","false","null","<span style=""color: black; font-size: 48px"">M + N</span>","null","","","","resp_prompt","","","","","","","","","","","","","","","",""
"categorize-image","175","515002","0.0-4.0-1.0-1.19","a3rbm0y7nyttnys","prime","5dbb0562b1df1b110ead5bba","5f60e3c0a3b16e07647b2ff9","5f61dbf7a77726198aec5896","true","724.3399999997346","./Stimuli/SelectedImages/LN/LN177.bmp","76","","","","test","true","M + N","76","switch","LN","LN177.bmp","remember","","68","3","prime1","right","","","",""
"html-keyboard-response","176","517004","0.0-4.0-1.0-3.19","a3rbm0y7nyttnys","prime","5dbb0562b1df1b110ead5bba","5f60e3c0a3b16e07647b2ff9","5f61dbf7a77726198aec5896","false","null","<div style=""align-items: center; display: flex; color: dodgerblue; font-size: 90px""><b>o</b></div>","null","","","","forget_cue","","","","","","","","","","","","","","","",""
"html-keyboard-response","177","517706","0.0-4.0-1.0-0.20","a3rbm0y7nyttnys","prime","5dbb0562b1df1b110ead5bba","5f60e3c0a3b16e07647b2ff9","5f61dbf7a77726198aec5896","false","null","<span style=""color: black; font-size: 48px"">N + M</span>","null","","","","resp_prompt","","","","","","","","","","","","","","","",""
"categorize-image","178","518754","0.0-4.0-1.0-1.20","a3rbm0y7nyttnys","prime","5dbb0562b1df1b110ead5bba","5f60e3c0a3b16e07647b2ff9","5f61dbf7a77726198aec5896","true","1040.3450000003213","./Stimuli/SelectedImages/LN/LN150.bmp","83","","","","test","true","N + M","83","switch","LN","LN150.bmp","forget","","69","3","prime1","left","","","",""
"html-keyboard-response","179","520757","0.0-4.0-1.0-3.20","a3rbm0y7nyttnys","prime","5dbb0562b1df1b110ead5bba","5f60e3c0a3b16e07647b2ff9","5f61dbf7a77726198aec5896","false","null","<div style=""align-items: center; display: flex; color: darkorange; font-size: 90px""><b>ø</b></div>","null","","","","forget_cue","","","","","","","","","","","","","","","",""
"html-keyboard-response","180","521460","0.0-4.0-1.0-0.21","a3rbm0y7nyttnys","prime","5dbb0562b1df1b110ead5bba","5f60e3c0a3b16e07647b2ff9","5f61dbf7a77726198aec5896","false","null","<span style=""color: black; font-size: 48px"">M + N</span>","null","","","","resp_prompt","","","","","","","","","","","","","","","",""
"categorize-image","181","522245","0.0-4.0-1.0-1.21","a3rbm0y7nyttnys","prime","5dbb0562b1df1b110ead5bba","5f60e3c0a3b16e07647b2ff9","5f61dbf7a77726198aec5896","true","777.8000000007451","./Stimuli/SelectedImages/SM/SM205.bmp","83","","","","test","true","M + N","83","repetition","SM","SM205.bmp","remember","","70","3","prime1","left","","","",""
"html-keyboard-response","182","524248","0.0-4.0-1.0-3.21","a3rbm0y7nyttnys","prime","5dbb0562b1df1b110ead5bba","5f60e3c0a3b16e07647b2ff9","5f61dbf7a77726198aec5896","false","null","<div style=""align-items: center; display: flex; color: dodgerblue; font-size: 90px""><b>o</b></div>","null","","","","forget_cue","","","","","","","","","","","","","","","",""
"html-keyboard-response","183","524950","0.0-4.0-1.0-0.22","a3rbm0y7nyttnys","prime","5dbb0562b1df1b110ead5bba","5f60e3c0a3b16e07647b2ff9","5f61dbf7a77726198aec5896","false","null","<span style=""color: black; font-size: 48px"">N + M</span>","null","","","","resp_prompt","","","","","","","","","","","","","","","",""
"categorize-image","184","525976","0.0-4.0-1.0-1.22","a3rbm0y7nyttnys","prime","5dbb0562b1df1b110ead5bba","5f60e3c0a3b16e07647b2ff9","5f61dbf7a77726198aec5896","true","1019.099999999511","./Stimuli/SelectedImages/SN/SN60.bmp","83","","","","test","true","N + M","83","repetition","SN","SN60.bmp","remember","","71","3","prime1","left","","","",""
"html-keyboard-response","185","527979","0.0-4.0-1.0-3.22","a3rbm0y7nyttnys","prime","5dbb0562b1df1b110ead5bba","5f60e3c0a3b16e07647b2ff9","5f61dbf7a77726198aec5896","false","null","<div style=""align-items: center; display: flex; color: dodgerblue; font-size: 90px""><b>o</b></div>","null","","","","forget_cue","","","","","","","","","","","","","","","",""
"html-keyboard-response","186","528681","0.0-4.0-1.0-0.23","a3rbm0y7nyttnys","prime","5dbb0562b1df1b110ead5bba","5f60e3c0a3b16e07647b2ff9","5f61dbf7a77726198aec5896","false","null","<span style=""color: black; font-size: 48px"">M + N</span>","null","","","","resp_prompt","","","","","","","","","","","","","","","",""
"categorize-image","187","529579","0.0-4.0-1.0-1.23","a3rbm0y7nyttnys","prime","5dbb0562b1df1b110ead5bba","5f60e3c0a3b16e07647b2ff9","5f61dbf7a77726198aec5896","true","891.7849999997998","./Stimuli/SelectedImages/LN/LN82.bmp","76","","","","test","true","M + N","76","switch","LN","LN82.bmp","forget","","72","3","prime1","right","","","",""
"html-keyboard-response","188","531582","0.0-4.0-1.0-3.23","a3rbm0y7nyttnys","prime","5dbb0562b1df1b110ead5bba","5f60e3c0a3b16e07647b2ff9","5f61dbf7a77726198aec5896","false","null","<div style=""align-items: center; display: flex; color: darkorange; font-size: 90px""><b>ø</b></div>","null","","","","forget_cue","","","","","","","","","","","","","","","",""
"html-keyboard-response","189","532283","0.0-4.0-1.0-0.24","a3rbm0y7nyttnys","prime","5dbb0562b1df1b110ead5bba","5f60e3c0a3b16e07647b2ff9","5f61dbf7a77726198aec5896","false","null","<span style=""color: black; font-size: 48px"">M + N</span>","null","","","","resp_prompt","","","","","","","","","","","","","","","",""
"categorize-image","190","533136","0.0-4.0-1.0-1.24","a3rbm0y7nyttnys","prime","5dbb0562b1df1b110ead5bba","5f60e3c0a3b16e07647b2ff9","5f61dbf7a77726198aec5896","true","846.725000000326","./Stimuli/SelectedImages/SM/SM24.bmp","83","","","","test","true","M + N","83","repetition","SM","SM24.bmp","remember","","73","3","prime1","left","","","",""
"html-keyboard-response","191","535139","0.0-4.0-1.0-3.24","a3rbm0y7nyttnys","prime","5dbb0562b1df1b110ead5bba","5f60e3c0a3b16e07647b2ff9","5f61dbf7a77726198aec5896","false","null","<div style=""align-items: center; display: flex; color: dodgerblue; font-size: 90px""><b>o</b></div>","null","","","","forget_cue","","","","","","","","","","","","","","","",""
"html-keyboard-response","192","535841","0.0-4.0-1.0-0.25","a3rbm0y7nyttnys","prime","5dbb0562b1df1b110ead5bba","5f60e3c0a3b16e07647b2ff9","5f61dbf7a77726198aec5896","false","null","<span style=""color: black; font-size: 48px"">M + N</span>","null","","","","resp_prompt","","","","","","","","","","","","","","","",""
"categorize-image","193","536688","0.0-4.0-1.0-1.25","a3rbm0y7nyttnys","prime","5dbb0562b1df1b110ead5bba","5f60e3c0a3b16e07647b2ff9","5f61dbf7a77726198aec5896","true","839.4900000002235","./Stimuli/SelectedImages/SN/SN155.bmp","76","","","","test","true","M + N","76","switch","SN","SN155.bmp","forget","","74","3","prime1","right","","","",""
"html-keyboard-response","194","538690","0.0-4.0-1.0-3.25","a3rbm0y7nyttnys","prime","5dbb0562b1df1b110ead5bba","5f60e3c0a3b16e07647b2ff9","5f61dbf7a77726198aec5896","false","null","<div style=""align-items: center; display: flex; color: darkorange; font-size: 90px""><b>ø</b></div>","null","","","","forget_cue","","","","","","","","","","","","","","","",""
"html-keyboard-response","195","539392","0.0-4.0-1.0-0.26","a3rbm0y7nyttnys","prime","5dbb0562b1df1b110ead5bba","5f60e3c0a3b16e07647b2ff9","5f61dbf7a77726198aec5896","false","null","<span style=""color: black; font-size: 48px"">N + M</span>","null","","","","resp_prompt","","","","","","","","","","","","","","","",""
"categorize-image","196","540350","0.0-4.0-1.0-1.26","a3rbm0y7nyttnys","prime","5dbb0562b1df1b110ead5bba","5f60e3c0a3b16e07647b2ff9","5f61dbf7a77726198aec5896","true","950.354999999865","./Stimuli/SelectedImages/LM/LM129.bmp","76","","","","test","true","N + M","76","repetition","LM","LM129.bmp","remember","","75","3","prime1","right","","","",""
"html-keyboard-response","197","542353","0.0-4.0-1.0-3.26","a3rbm0y7nyttnys","prime","5dbb0562b1df1b110ead5bba","5f60e3c0a3b16e07647b2ff9","5f61dbf7a77726198aec5896","false","null","<div style=""align-items: center; display: flex; color: dodgerblue; font-size: 90px""><b>o</b></div>","null","","","","forget_cue","","","","","","","","","","","","","","","",""
"html-keyboard-response","198","543055","0.0-4.0-1.0-0.27","a3rbm0y7nyttnys","prime","5dbb0562b1df1b110ead5bba","5f60e3c0a3b16e07647b2ff9","5f61dbf7a77726198aec5896","false","null","<span style=""color: black; font-size: 48px"">N + M</span>","null","","","","resp_prompt","","","","","","","","","","","","","","","",""
"categorize-image","199","544004","0.0-4.0-1.0-1.27","a3rbm0y7nyttnys","prime","5dbb0562b1df1b110ead5bba","5f60e3c0a3b16e07647b2ff9","5f61dbf7a77726198aec5896","true","942.425000000163","./Stimuli/SelectedImages/SM/SM108.bmp","76","","","","test","true","N + M","76","switch","SM","SM108.bmp","forget","","76","3","prime1","right","","","",""
"html-keyboard-response","200","546007","0.0-4.0-1.0-3.27","a3rbm0y7nyttnys","prime","5dbb0562b1df1b110ead5bba","5f60e3c0a3b16e07647b2ff9","5f61dbf7a77726198aec5896","false","null","<div style=""align-items: center; display: flex; color: darkorange; font-size: 90px""><b>ø</b></div>","null","","","","forget_cue","","","","","","","","","","","","","","","",""
"html-keyboard-response","201","546709","0.0-4.0-1.0-0.28","a3rbm0y7nyttnys","prime","5dbb0562b1df1b110ead5bba","5f60e3c0a3b16e07647b2ff9","5f61dbf7a77726198aec5896","false","null","<span style=""color: black; font-size: 48px"">M + N</span>","null","","","","resp_prompt","","","","","","","","","","","","","","","",""
"categorize-image","202","547585","0.0-4.0-1.0-1.28","a3rbm0y7nyttnys","prime","5dbb0562b1df1b110ead5bba","5f60e3c0a3b16e07647b2ff9","5f61dbf7a77726198aec5896","true","868.8499999998603","./Stimuli/SelectedImages/SM/SM76.bmp","83","","","","test","true","M + N","83","repetition","SM","SM76.bmp","forget","","77","3","prime1","left","","","",""
"html-keyboard-response","203","549587","0.0-4.0-1.0-3.28","a3rbm0y7nyttnys","prime","5dbb0562b1df1b110ead5bba","5f60e3c0a3b16e07647b2ff9","5f61dbf7a77726198aec5896","false","null","<div style=""align-items: center; display: flex; color: darkorange; font-size: 90px""><b>ø</b></div>","null","","","","forget_cue","","","","","","","","","","","","","","","",""
"html-keyboard-response","204","550288","0.0-4.0-1.0-0.29","a3rbm0y7nyttnys","prime","5dbb0562b1df1b110ead5bba","5f60e3c0a3b16e07647b2ff9","5f61dbf7a77726198aec5896","false","null","<span style=""color: black; font-size: 48px"">N + M</span>","null","","","","resp_prompt","","","","","","","","","","","","","","","",""
"categorize-image","205","551351","0.0-4.0-1.0-1.29","a3rbm0y7nyttnys","prime","5dbb0562b1df1b110ead5bba","5f60e3c0a3b16e07647b2ff9","5f61dbf7a77726198aec5896","true","1056.3499999997439","./Stimuli/SelectedImages/SM/SM213.bmp","76","","","","test","true","N + M","76","switch","SM","SM213.bmp","remember","","78","3","prime1","right","","","",""
"html-keyboard-response","206","553353","0.0-4.0-1.0-3.29","a3rbm0y7nyttnys","prime","5dbb0562b1df1b110ead5bba","5f60e3c0a3b16e07647b2ff9","5f61dbf7a77726198aec5896","false","null","<div style=""align-items: center; display: flex; color: dodgerblue; font-size: 90px""><b>o</b></div>","null","","","","forget_cue","","","","","","","","","","","","","","","",""
"html-keyboard-response","207","554055","0.0-4.0-1.0-0.30","a3rbm0y7nyttnys","prime","5dbb0562b1df1b110ead5bba","5f60e3c0a3b16e07647b2ff9","5f61dbf7a77726198aec5896","false","null","<span style=""color: black; font-size: 48px"">M + N</span>","null","","","","resp_prompt","","","","","","","","","","","","","","","",""
"categorize-image","208","555014","0.0-4.0-1.0-1.30","a3rbm0y7nyttnys","prime","5dbb0562b1df1b110ead5bba","5f60e3c0a3b16e07647b2ff9","5f61dbf7a77726198aec5896","true","951.8699999998789","./Stimuli/SelectedImages/LN/LN59.bmp","76","","","","test","true","M + N","76","repetition","LN","LN59.bmp","forget","","79","3","prime1","right","","","",""
"html-keyboard-response","209","557016","0.0-4.0-1.0-3.30","a3rbm0y7nyttnys","prime","5dbb0562b1df1b110ead5bba","5f60e3c0a3b16e07647b2ff9","5f61dbf7a77726198aec5896","false","null","<div style=""align-items: center; display: flex; color: darkorange; font-size: 90px""><b>ø</b></div>","null","","","","forget_cue","","","","","","","","","","","","","","","",""
"html-keyboard-response","210","557718","0.0-4.0-1.0-0.31","a3rbm0y7nyttnys","prime","5dbb0562b1df1b110ead5bba","5f60e3c0a3b16e07647b2ff9","5f61dbf7a77726198aec5896","false","null","<span style=""color: black; font-size: 48px"">N + M</span>","null","","","","resp_prompt","","","","","","","","","","","","","","","",""
"categorize-image","211","558620","0.0-4.0-1.0-1.31","a3rbm0y7nyttnys","prime","5dbb0562b1df1b110ead5bba","5f60e3c0a3b16e07647b2ff9","5f61dbf7a77726198aec5896","true","895.2849999995669","./Stimuli/SelectedImages/SM/SM148.bmp","76","","","","test","true","N + M","76","repetition","SM","SM148.bmp","remember","","80","3","prime1","right","","","",""
"html-keyboard-response","212","560622","0.0-4.0-1.0-3.31","a3rbm0y7nyttnys","prime","5dbb0562b1df1b110ead5bba","5f60e3c0a3b16e07647b2ff9","5f61dbf7a77726198aec5896","false","null","<div style=""align-items: center; display: flex; color: dodgerblue; font-size: 90px""><b>o</b></div>","null","","","","forget_cue","","","","","","","","","","","","","","","",""
"html-keyboard-response","213","561324","0.0-4.0-1.0-0.32","a3rbm0y7nyttnys","prime","5dbb0562b1df1b110ead5bba","5f60e3c0a3b16e07647b2ff9","5f61dbf7a77726198aec5896","false","null","<span style=""color: black; font-size: 48px"">M + N</span>","null","","","","resp_prompt","","","","","","","","","","","","","","","",""
"categorize-image","214","562693","0.0-4.0-1.0-1.32","a3rbm0y7nyttnys","prime","5dbb0562b1df1b110ead5bba","5f60e3c0a3b16e07647b2ff9","5f61dbf7a77726198aec5896","true","1362.829999999958","./Stimuli/SelectedImages/SM/SM200.bmp","83","","","","test","true","M + N","83","repetition","SM","SM200.bmp","forget","","81","3","prime1","left","","","",""
"html-keyboard-response","215","564696","0.0-4.0-1.0-3.32","a3rbm0y7nyttnys","prime","5dbb0562b1df1b110ead5bba","5f60e3c0a3b16e07647b2ff9","5f61dbf7a77726198aec5896","false","null","<div style=""align-items: center; display: flex; color: darkorange; font-size: 90px""><b>ø</b></div>","null","","","","forget_cue","","","","","","","","","","","","","","","",""
"html-keyboard-response","216","565398","0.0-4.0-1.0-0.33","a3rbm0y7nyttnys","prime","5dbb0562b1df1b110ead5bba","5f60e3c0a3b16e07647b2ff9","5f61dbf7a77726198aec5896","false","null","<span style=""color: black; font-size: 48px"">M + N</span>","null","","","","resp_prompt","","","","","","","","","","","","","","","",""
"categorize-image","217","566435","0.0-4.0-1.0-1.33","a3rbm0y7nyttnys","prime","5dbb0562b1df1b110ead5bba","5f60e3c0a3b16e07647b2ff9","5f61dbf7a77726198aec5896","true","1029.279999999795","./Stimuli/SelectedImages/SN/SN64.bmp","76","","","","test","true","M + N","76","repetition","SN","SN64.bmp","forget","","82","3","prime1","right","","","",""
"html-keyboard-response","218","568438","0.0-4.0-1.0-3.33","a3rbm0y7nyttnys","prime","5dbb0562b1df1b110ead5bba","5f60e3c0a3b16e07647b2ff9","5f61dbf7a77726198aec5896","false","null","<div style=""align-items: center; display: flex; color: darkorange; font-size: 90px""><b>ø</b></div>","null","","","","forget_cue","","","","","","","","","","","","","","","",""
"html-keyboard-response","219","569140","0.0-4.0-1.0-0.34","a3rbm0y7nyttnys","prime","5dbb0562b1df1b110ead5bba","5f60e3c0a3b16e07647b2ff9","5f61dbf7a77726198aec5896","false","null","<span style=""color: black; font-size: 48px"">M + N</span>","null","","","","resp_prompt","","","","","","","","","","","","","","","",""
"categorize-image","220","569867","0.0-4.0-1.0-1.34","a3rbm0y7nyttnys","prime","5dbb0562b1df1b110ead5bba","5f60e3c0a3b16e07647b2ff9","5f61dbf7a77726198aec5896","true","718.6600000004983","./Stimuli/SelectedImages/LM/LM216.bmp","83","","","","test","true","M + N","83","switch","LM","LM216.bmp","remember","","83","3","prime1","left","","","",""
"html-keyboard-response","221","571869","0.0-4.0-1.0-3.34","a3rbm0y7nyttnys","prime","5dbb0562b1df1b110ead5bba","5f60e3c0a3b16e07647b2ff9","5f61dbf7a77726198aec5896","false","null","<div style=""align-items: center; display: flex; color: dodgerblue; font-size: 90px""><b>o</b></div>","null","","","","forget_cue","","","","","","","","","","","","","","","",""
"html-keyboard-response","222","572571","0.0-4.0-1.0-0.35","a3rbm0y7nyttnys","prime","5dbb0562b1df1b110ead5bba","5f60e3c0a3b16e07647b2ff9","5f61dbf7a77726198aec5896","false","null","<span style=""color: black; font-size: 48px"">M + N</span>","null","","","","resp_prompt","","","","","","","","","","","","","","","",""
"categorize-image","223","573475","0.0-4.0-1.0-1.35","a3rbm0y7nyttnys","prime","5dbb0562b1df1b110ead5bba","5f60e3c0a3b16e07647b2ff9","5f61dbf7a77726198aec5896","true","895.4900000008056","./Stimuli/SelectedImages/LM/LM157.bmp","83","","","","test","true","M + N","83","repetition","LM","LM157.bmp","remember","","84","3","prime1","left","","","",""
"html-keyboard-response","224","575478","0.0-4.0-1.0-3.35","a3rbm0y7nyttnys","prime","5dbb0562b1df1b110ead5bba","5f60e3c0a3b16e07647b2ff9","5f61dbf7a77726198aec5896","false","null","<div style=""align-items: center; display: flex; color: dodgerblue; font-size: 90px""><b>o</b></div>","null","","","","forget_cue","","","","","","","","","","","","","","","",""
"html-keyboard-response","225","576180","0.0-4.0-1.0-0.36","a3rbm0y7nyttnys","prime","5dbb0562b1df1b110ead5bba","5f60e3c0a3b16e07647b2ff9","5f61dbf7a77726198aec5896","false","null","<span style=""color: black; font-size: 48px"">M + N</span>","null","","","","resp_prompt","","","","","","","","","","","","","","","",""
"categorize-image","226","577293","0.0-4.0-1.0-1.36","a3rbm0y7nyttnys","prime","5dbb0562b1df1b110ead5bba","5f60e3c0a3b16e07647b2ff9","5f61dbf7a77726198aec5896","true","1107.0399999998044","./Stimuli/SelectedImages/SM/SM128.bmp","83","","","","test","true","M + N","83","switch","SM","SM128.bmp","remember","","85","3","prime1","left","","","",""
"html-keyboard-response","227","579296","0.0-4.0-1.0-3.36","a3rbm0y7nyttnys","prime","5dbb0562b1df1b110ead5bba","5f60e3c0a3b16e07647b2ff9","5f61dbf7a77726198aec5896","false","null","<div style=""align-items: center; display: flex; color: dodgerblue; font-size: 90px""><b>o</b></div>","null","","","","forget_cue","","","","","","","","","","","","","","","",""
"html-keyboard-response","228","579997","0.0-4.0-1.0-0.37","a3rbm0y7nyttnys","prime","5dbb0562b1df1b110ead5bba","5f60e3c0a3b16e07647b2ff9","5f61dbf7a77726198aec5896","false","null","<span style=""color: black; font-size: 48px"">M + N</span>","null","","","","resp_prompt","","","","","","","","","","","","","","","",""
"categorize-image","229","580730","0.0-4.0-1.0-1.37","a3rbm0y7nyttnys","prime","5dbb0562b1df1b110ead5bba","5f60e3c0a3b16e07647b2ff9","5f61dbf7a77726198aec5896","true","725.7549999994226","./Stimuli/SelectedImages/LM/LM51.bmp","83","","","","test","true","M + N","83","repetition","LM","LM51.bmp","remember","","86","3","prime1","left","","","",""
"html-keyboard-response","230","582732","0.0-4.0-1.0-3.37","a3rbm0y7nyttnys","prime","5dbb0562b1df1b110ead5bba","5f60e3c0a3b16e07647b2ff9","5f61dbf7a77726198aec5896","false","null","<div style=""align-items: center; display: flex; color: dodgerblue; font-size: 90px""><b>o</b></div>","null","","","","forget_cue","","","","","","","","","","","","","","","",""
"html-keyboard-response","231","583434","0.0-4.0-1.0-0.38","a3rbm0y7nyttnys","prime","5dbb0562b1df1b110ead5bba","5f60e3c0a3b16e07647b2ff9","5f61dbf7a77726198aec5896","false","null","<span style=""color: black; font-size: 48px"">N + M</span>","null","","","","resp_prompt","","","","","","","","","","","","","","","",""
"categorize-image","232","584326","0.0-4.0-1.0-1.38","a3rbm0y7nyttnys","prime","5dbb0562b1df1b110ead5bba","5f60e3c0a3b16e07647b2ff9","5f61dbf7a77726198aec5896","true","884.8299999999581","./Stimuli/SelectedImages/LM/LM59.bmp","76","","","","test","true","N + M","76","repetition","LM","LM59.bmp","remember","","87","3","prime1","right","","","",""
"html-keyboard-response","233","586329","0.0-4.0-1.0-3.38","a3rbm0y7nyttnys","prime","5dbb0562b1df1b110ead5bba","5f60e3c0a3b16e07647b2ff9","5f61dbf7a77726198aec5896","false","null","<div style=""align-items: center; display: flex; color: dodgerblue; font-size: 90px""><b>o</b></div>","null","","","","forget_cue","","","","","","","","","","","","","","","",""
"html-keyboard-response","234","587031","0.0-4.0-1.0-0.39","a3rbm0y7nyttnys","prime","5dbb0562b1df1b110ead5bba","5f60e3c0a3b16e07647b2ff9","5f61dbf7a77726198aec5896","false","null","<span style=""color: black; font-size: 48px"">N + M</span>","null","","","","resp_prompt","","","","","","","","","","","","","","","",""
"categorize-image","235","588073","0.0-4.0-1.0-1.39","a3rbm0y7nyttnys","prime","5dbb0562b1df1b110ead5bba","5f60e3c0a3b16e07647b2ff9","5f61dbf7a77726198aec5896","true","1033.6400000004796","./Stimuli/SelectedImages/LN/LN92.bmp","83","","","","test","true","N + M","83","repetition","LN","LN92.bmp","remember","","88","3","prime1","left","","","",""
"html-keyboard-response","236","590077","0.0-4.0-1.0-3.39","a3rbm0y7nyttnys","prime","5dbb0562b1df1b110ead5bba","5f60e3c0a3b16e07647b2ff9","5f61dbf7a77726198aec5896","false","null","<div style=""align-items: center; display: flex; color: dodgerblue; font-size: 90px""><b>o</b></div>","null","","","","forget_cue","","","","","","","","","","","","","","","",""
"html-keyboard-response","237","590778","0.0-4.0-1.0-0.40","a3rbm0y7nyttnys","prime","5dbb0562b1df1b110ead5bba","5f60e3c0a3b16e07647b2ff9","5f61dbf7a77726198aec5896","false","null","<span style=""color: black; font-size: 48px"">M + N</span>","null","","","","resp_prompt","","","","","","","","","","","","","","","",""
"categorize-image","238","591660","0.0-4.0-1.0-1.40","a3rbm0y7nyttnys","prime","5dbb0562b1df1b110ead5bba","5f60e3c0a3b16e07647b2ff9","5f61dbf7a77726198aec5896","true","874.104999999865","./Stimuli/SelectedImages/LN/LN12.bmp","76","","","","test","true","M + N","76","repetition","LN","LN12.bmp","forget","","89","3","prime1","right","","","",""
"html-keyboard-response","239","593663","0.0-4.0-1.0-3.40","a3rbm0y7nyttnys","prime","5dbb0562b1df1b110ead5bba","5f60e3c0a3b16e07647b2ff9","5f61dbf7a77726198aec5896","false","null","<div style=""align-items: center; display: flex; color: darkorange; font-size: 90px""><b>ø</b></div>","null","","","","forget_cue","","","","","","","","","","","","","","","",""
"html-keyboard-response","240","594365","0.0-4.0-1.0-0.41","a3rbm0y7nyttnys","prime","5dbb0562b1df1b110ead5bba","5f60e3c0a3b16e07647b2ff9","5f61dbf7a77726198aec5896","false","null","<span style=""color: black; font-size: 48px"">M + N</span>","null","","","","resp_prompt","","","","","","","","","","","","","","","",""
"categorize-image","241","595527","0.0-4.0-1.0-1.41","a3rbm0y7nyttnys","prime","5dbb0562b1df1b110ead5bba","5f60e3c0a3b16e07647b2ff9","5f61dbf7a77726198aec5896","true","1156.3749999996508","./Stimuli/SelectedImages/LM/LM57.bmp","83","","","","test","true","M + N","83","switch","LM","LM57.bmp","forget","","90","3","prime1","left","","","",""
"html-keyboard-response","242","597530","0.0-4.0-1.0-3.41","a3rbm0y7nyttnys","prime","5dbb0562b1df1b110ead5bba","5f60e3c0a3b16e07647b2ff9","5f61dbf7a77726198aec5896","false","null","<div style=""align-items: center; display: flex; color: darkorange; font-size: 90px""><b>ø</b></div>","null","","","","forget_cue","","","","","","","","","","","","","","","",""
"html-keyboard-response","243","598232","0.0-4.0-1.0-0.42","a3rbm0y7nyttnys","prime","5dbb0562b1df1b110ead5bba","5f60e3c0a3b16e07647b2ff9","5f61dbf7a77726198aec5896","false","null","<span style=""color: black; font-size: 48px"">M + N</span>","null","","","","resp_prompt","","","","","","","","","","","","","","","",""
"categorize-image","244","599091","0.0-4.0-1.0-1.42","a3rbm0y7nyttnys","prime","5dbb0562b1df1b110ead5bba","5f60e3c0a3b16e07647b2ff9","5f61dbf7a77726198aec5896","true","851.4349999995902","./Stimuli/SelectedImages/LN/LN13.bmp","76","","","","test","true","M + N","76","repetition","LN","LN13.bmp","remember","","91","3","prime1","right","","","",""
"html-keyboard-response","245","601093","0.0-4.0-1.0-3.42","a3rbm0y7nyttnys","prime","5dbb0562b1df1b110ead5bba","5f60e3c0a3b16e07647b2ff9","5f61dbf7a77726198aec5896","false","null","<div style=""align-items: center; display: flex; color: dodgerblue; font-size: 90px""><b>o</b></div>","null","","","","forget_cue","","","","","","","","","","","","","","","",""
"html-keyboard-response","246","601795","0.0-4.0-1.0-0.43","a3rbm0y7nyttnys","prime","5dbb0562b1df1b110ead5bba","5f60e3c0a3b16e07647b2ff9","5f61dbf7a77726198aec5896","false","null","<span style=""color: black; font-size: 48px"">M + N</span>","null","","","","resp_prompt","","","","","","","","","","","","","","","",""
"categorize-image","247","602726","0.0-4.0-1.0-1.43","a3rbm0y7nyttnys","prime","5dbb0562b1df1b110ead5bba","5f60e3c0a3b16e07647b2ff9","5f61dbf7a77726198aec5896","true","923.8100000002887","./Stimuli/SelectedImages/LM/LM48.bmp","83","","","","test","true","M + N","83","repetition","LM","LM48.bmp","forget","","92","3","prime1","left","","","",""
"html-keyboard-response","248","604729","0.0-4.0-1.0-3.43","a3rbm0y7nyttnys","prime","5dbb0562b1df1b110ead5bba","5f60e3c0a3b16e07647b2ff9","5f61dbf7a77726198aec5896","false","null","<div style=""align-items: center; display: flex; color: darkorange; font-size: 90px""><b>ø</b></div>","null","","","","forget_cue","","","","","","","","","","","","","","","",""
"html-keyboard-response","249","605431","0.0-4.0-1.0-0.44","a3rbm0y7nyttnys","prime","5dbb0562b1df1b110ead5bba","5f60e3c0a3b16e07647b2ff9","5f61dbf7a77726198aec5896","false","null","<span style=""color: black; font-size: 48px"">M + N</span>","null","","","","resp_prompt","","","","","","","","","","","","","","","",""
"categorize-image","250","606377","0.0-4.0-1.0-1.44","a3rbm0y7nyttnys","prime","5dbb0562b1df1b110ead5bba","5f60e3c0a3b16e07647b2ff9","5f61dbf7a77726198aec5896","true","939.1400000004796","./Stimuli/SelectedImages/SN/SN128.bmp","76","","","","test","true","M + N","76","switch","SN","SN128.bmp","remember","","93","3","prime1","right","","","",""
"html-keyboard-response","251","608380","0.0-4.0-1.0-3.44","a3rbm0y7nyttnys","prime","5dbb0562b1df1b110ead5bba","5f60e3c0a3b16e07647b2ff9","5f61dbf7a77726198aec5896","false","null","<div style=""align-items: center; display: flex; color: dodgerblue; font-size: 90px""><b>o</b></div>","null","","","","forget_cue","","","","","","","","","","","","","","","",""
"html-keyboard-response","252","609082","0.0-4.0-1.0-0.45","a3rbm0y7nyttnys","prime","5dbb0562b1df1b110ead5bba","5f60e3c0a3b16e07647b2ff9","5f61dbf7a77726198aec5896","false","null","<span style=""color: black; font-size: 48px"">N + M</span>","null","","","","resp_prompt","","","","","","","","","","","","","","","",""
