"trial_type","trial_index","time_elapsed","internal_node_id","subject","exp_part","prolific_PID","study_ID","session_ID","use","rt","stimulus","key_press","button_pressed","responses","question_order","trial_part","correct","resp_map","correct_resp","probe_condition","category","image","forget_condition","list","trial_num","block_num","block","response","test_part","n_span","sequence","num_spaces"
"pavlovia","0","3","0.0-0.0","vglugqa962s05jv","","5f0e3a84e586ab0009037c9e","5f60e3c0a3b16e07647b2ff9","5f60ee75937bc101bfc31956","false","","","","","","","","","","","","","","","","","","","","","","",""
"html-keyboard-response","1","127787","0.0-1.0-0.0-0.0","vglugqa962s05jv","welcome","5f0e3a84e586ab0009037c9e","5f60e3c0a3b16e07647b2ff9","5f60ee75937bc101bfc31956","false","127782.73000000001","<div align=left>Dear participant, <br> thank you for participating in an online study of the Cognition, Action, and Sustainability Unit of the University of Freiburg! <br> <br>The aim of this study is to examine our ability to remember previously learned information. <br>Our goal is to find out, whether our memory improves, when we only remember information that is relevant to us. <br>The experiment will take about 35 minutes to complete. <br> <br>Please, note that you can only participate in this study if you are using a device with a keyboard (PC, Laptop etc.) <br>and not if you are using a mobile device such as a tablet or smartphone.<br> <br>Press 'SPACE' to proceed to the experiment. </div>","32","","","","","","","","","","","","","","","","","","","",""
"html-keyboard-response","2","142425","0.0-1.0-0.0-1.0","vglugqa962s05jv","welcome","5f0e3a84e586ab0009037c9e","5f60e3c0a3b16e07647b2ff9","5f60ee75937bc101bfc31956","false","14637.965000000011","<div align=left><strong> Time Course of this experiment: </strong> <br><br> <strong> 1.</strong>  First, please fill in some information regarding your demographic data. <br><br> <strong> 2.</strong>  Next, your task will be to classify everyday objects. <br>In addition, you will be asked to remember certain objects and recall them later. <br>Working on these tasks requires your undivided attention and concentration.<br>It is therefore essential that you eliminate any sources of distraction in your  <br>environment and ensure that you will not be disturbed. <br><br><strong> 3.</strong>  At the end of the experiment, you will be asked to answer a few additional questions. <br> <br><strong> Important:</strong> After finishing the experiment, only close the browser window <br> by clicking on the 'end the experiment'-button when you are asked to do so. <br>Closing the browser window prematurely will make the allocation of your participation credit impossible. <br><br> Press 'SPACE' to start the experiment. </div>","32","","","","","","","","","","","","","","","","","","","",""
"html-button-response","3","146470","0.0-1.0-0.0-2.0","vglugqa962s05jv","welcome","5f0e3a84e586ab0009037c9e","5f60e3c0a3b16e07647b2ff9","5f60ee75937bc101bfc31956","true","4043.329999999987","<div align=left><strong> Informed consent </strong>  <br>The aim of our research is to better understand human behavior and mental processes. <br>In the following study your behavior (e.g. choices, reaction times) will be studied. <br> <br><strong> Voluntariness and Anonymity </strong> <br>Your participation in this study is  <strong> voluntary</strong>.<br>You may withdraw your consent to participate at any time without providing a reason for doing so and without fear of prejudice. <br><br>As no personal data will be collected, <strong>your data and your person cannot be connected after data collection</strong> – the data-set is anonymous. <br>Respectively, deletion of your data will not be possible after data collection has been completed, as we cannot retrace your data-set.<br>The results and anonymized data collected in this study will be published as a scientific publication. <br>This will happen in an <strong>anonymized format</strong>, so that no data can be traced back to a specific person. <br> <br>The anonymized data of this study will be made available to other researchers and/or in a data archive on the Internet as a means of transparency and to enable subsequent re-use. By doing so, this study follows the recommendations of the Deutsche Forschungsgemeinschaft (DFG, German Research Foundation) and Deutsche Gesellschaft für Psychologie (DGPS, German Psychological Society) regarding quality assurance in research.<br>If you have any questions now or after the experiment, please contact our team (experiments@cs.uni-freiburg.de).<br><br><br>I hereby declare, that I understand the above described conditions of participation and I agree to participate under these conditions. <br><br> </div>","","0","","","","","","","","","","","","","","","","","","",""
"html-keyboard-response","4","151649","0.0-1.0-0.0-3.0","vglugqa962s05jv","welcome","5f0e3a84e586ab0009037c9e","5f60e3c0a3b16e07647b2ff9","5f60ee75937bc101bfc31956","false","5178.044999999984","<div align=left><strong> General information concerning the experiment </strong>  <br> <br>Please follow the instructions:<ol> <li><strong> Do not leave this tab (your browser window) during the experiment and do not reload this tab! </strong>  <br>If you do switch tabs/windows during the experiment (to check your mail or visit another website, for example), <br>the experiment will end automatically and you will <strong>not receive credit</strong> for your participation. <br>Repeated participation or resumption of the experiment is impossible.</li> <br><li>Please close all other programs for the duration of your participation. </li> <br><li>Please mute or turn off your phone and put it out of your reach. </li> <br><li>Please also take off any disturbing accessories (such as wristwatches, bracelets, etc.). </li> <br><li>If you have music playing in the background, please turn it off now. </li> <br></ol>Thank you! <br>Press 'SPACE' to continue. </div>","32","","","","","","","","","","","","","","","","","","","",""
"survey-text","5","155527","0.0-1.0-1.0-0.0","vglugqa962s05jv","demographics","5f0e3a84e586ab0009037c9e","5f60e3c0a3b16e07647b2ff9","5f60ee75937bc101bfc31956","true","3874.279999999999","","","","{""age"":""25""}","","","","","","","","","","","","","","","","","",""
"survey-multi-choice","6","180077","0.0-1.0-1.0-1.0","vglugqa962s05jv","demographics","5f0e3a84e586ab0009037c9e","5f60e3c0a3b16e07647b2ff9","5f60ee75937bc101bfc31956","true","24547.400000000052","","","","{""gender"":""male"",""school"":""high school"",""education"":""High school graduate, diploma or equivalent""}","[0,1,2]","","","","","","","","","","","","","","","","",""
"html-keyboard-response","7","200717","0.0-1.0-2.0","vglugqa962s05jv","instructions","5f0e3a84e586ab0009037c9e","5f60e3c0a3b16e07647b2ff9","5f60ee75937bc101bfc31956","false","20637.695000000123","<div align=left> The experiment is now about to start: <br> <br>In the following part, you will be presented pictures of everyday objects. <br>Your first task is to <strong>classify these objects. </strong> <br> <br> You will classify them either as mechanical or non-mechanical objects. <br> <br>Objects that include any kind of technical mechanism (for example, wheels, switches, levers, <br> electronic components) fall under the category of <strong>mechanical</strong> objects. <br>Only objects without any kind of technical mechanism should be classified as <strong>non-mechanical</strong>. <br><br>Press 'SPACE' to continue. </div>","32","","","","","","","","","","","","","","","","","","","",""
"html-keyboard-response","8","254205","0.0-2.0-0.0","vglugqa962s05jv","instructions","5f0e3a84e586ab0009037c9e","5f60e3c0a3b16e07647b2ff9","5f60ee75937bc101bfc31956","false","53486.280000000086","<div align=justify>You will classify the objects using the <strong>'S'</strong> and the <strong>'L'</strong> keys on your keyboard.<br>For doing so, please place your <strong>left index finger</strong> on the <strong>'S'</strong> key and place your <strong>right index finger</strong> on the <strong>'L'</strong> key. <br><br> Each trial starts with an instruction, indicating which key ('S'/'L') you need to press to classify <br>the object as mechanical (letter M) or non-mechanical (letter N).<br>The instruction <strong>M + N</strong> indicates that, in the current trial, by pressing the left key ('S') you classify the displayed object as mechanical (M) <br> and by pressing the right key ('L') you classify the object as non-mechanical (N). <br>The instruction <strong>N + M</strong> on the other hand indicates that by pressing the left key ('S') you classify the displayed object as non-mechanical (N) <br> and by pressing the right key ('L') you classify the object as mechanical (M). <br><br>Please press the key corresponding to the correct classification as fast as possible as soon as the object is displayed and try to avoid making mistakes.<br>If you do not respond within a 2 second window, a corresponding feedback will be displayed and the next trial will start.<br> The experiment is divided into multiple blocks to give you the opportunity to take a break after each block. <br>First, you can now practice this task. <br><br>Please place your <strong>LEFT INDEX FINGER</strong> on the 'S' key and your <strong>RIGHT INDEX FINGER</strong> on the 'L' key now. <br><br>Press SPACE to continue.</div>","32","","","","","","","","","","","","","","","","","","","",""
"html-keyboard-response","9","261730","0.0-2.0-1.0","vglugqa962s05jv","instructions","5f0e3a84e586ab0009037c9e","5f60e3c0a3b16e07647b2ff9","5f60ee75937bc101bfc31956","false","7524.850000000006","<div align=left> You will now have time to practice this task.<br><br>Remember: <br> <br><li>Please place your index fingers on the <strong>'S'</strong> and <strong>'L'</strong> keys <br>to respond as fast and accurately as possible.</li><li>Every picture can be classified as either mechanical or non-mechanical.</li><li>If you do not respond in time or commit an error, you will receive a corresponding feedback. </li><li> Please try to respond as <strong> fast </strong> and as <strong> accurately as possible </strong> .<br><li>To ensure optimal results, please minimize distractions and stay focused. </li><br><br>Press SPACE to continue.</div>","32","","","","","","","","","","","","","","","","","","","",""
"html-keyboard-response","10","262434","0.0-2.0-2.0-0.0","vglugqa962s05jv","practice_no_cue","5f0e3a84e586ab0009037c9e","5f60e3c0a3b16e07647b2ff9","5f60ee75937bc101bfc31956","false","null","<span style=""color: black; font-size: 48px"">M + N</span>","null","","","","resp_prompt","","","","","","","","","","","","","","","",""
"categorize-image","11","264747","0.0-2.0-2.0-1.0","vglugqa962s05jv","practice_no_cue","5f0e3a84e586ab0009037c9e","5f60e3c0a3b16e07647b2ff9","5f60ee75937bc101bfc31956","true","1798.1450000000186","./Stimuli/ImagesPractice/LM147.jpg","83","","","","test","true","M + N","83","","LM","LM147.jpg","forget","old","1","1","start","left","","","",""
"html-keyboard-response","12","265459","0.0-2.0-2.0-0.1","vglugqa962s05jv","practice_no_cue","5f0e3a84e586ab0009037c9e","5f60e3c0a3b16e07647b2ff9","5f60ee75937bc101bfc31956","false","null","<span style=""color: black; font-size: 48px"">N + M</span>","null","","","","resp_prompt","","","","","","","","","","","","","","","",""
"categorize-image","13","267968","0.0-2.0-2.0-1.1","vglugqa962s05jv","practice_no_cue","5f0e3a84e586ab0009037c9e","5f60e3c0a3b16e07647b2ff9","5f60ee75937bc101bfc31956","true","null","./Stimuli/ImagesPractice/LM55.jpg","null","","","","test","false","N + M","76","","LM","LM55.jpg","remember","old","2","1","start","too_slow","","","",""
"html-keyboard-response","14","268683","0.0-2.0-2.0-0.2","vglugqa962s05jv","practice_no_cue","5f0e3a84e586ab0009037c9e","5f60e3c0a3b16e07647b2ff9","5f60ee75937bc101bfc31956","false","null","<span style=""color: black; font-size: 48px"">N + M</span>","null","","","","resp_prompt","","","","","","","","","","","","","","","",""
"categorize-image","15","269993","0.0-2.0-2.0-1.2","vglugqa962s05jv","practice_no_cue","5f0e3a84e586ab0009037c9e","5f60e3c0a3b16e07647b2ff9","5f60ee75937bc101bfc31956","true","794.5349999999744","./Stimuli/ImagesPractice/LM239.jpg","76","","","","test","true","N + M","76","","LM","LM239.jpg","forget","old","3","1","start","right","","","",""
"html-keyboard-response","16","270706","0.0-2.0-2.0-0.3","vglugqa962s05jv","practice_no_cue","5f0e3a84e586ab0009037c9e","5f60e3c0a3b16e07647b2ff9","5f60ee75937bc101bfc31956","false","null","<span style=""color: black; font-size: 48px"">M + N</span>","null","","","","resp_prompt","","","","","","","","","","","","","","","",""
"categorize-image","17","272179","0.0-2.0-2.0-1.3","vglugqa962s05jv","practice_no_cue","5f0e3a84e586ab0009037c9e","5f60e3c0a3b16e07647b2ff9","5f60ee75937bc101bfc31956","true","972.1099999999278","./Stimuli/ImagesPractice/SM35.jpg","83","","","","test","true","M + N","83","","SM","SM35.jpg","remember","old","4","1","start","left","","","",""
"html-keyboard-response","18","272893","0.0-2.0-2.0-0.4","vglugqa962s05jv","practice_no_cue","5f0e3a84e586ab0009037c9e","5f60e3c0a3b16e07647b2ff9","5f60ee75937bc101bfc31956","false","null","<span style=""color: black; font-size: 48px"">M + N</span>","null","","","","resp_prompt","","","","","","","","","","","","","","","",""
"categorize-image","19","274239","0.0-2.0-2.0-1.4","vglugqa962s05jv","practice_no_cue","5f0e3a84e586ab0009037c9e","5f60e3c0a3b16e07647b2ff9","5f60ee75937bc101bfc31956","true","831.9550000001327","./Stimuli/ImagesPractice/SN222.jpg","76","","","","test","true","M + N","76","","SN","SN222.jpg","remember","old","5","1","start","right","","","",""
"html-keyboard-response","20","274954","0.0-2.0-2.0-0.5","vglugqa962s05jv","practice_no_cue","5f0e3a84e586ab0009037c9e","5f60e3c0a3b16e07647b2ff9","5f60ee75937bc101bfc31956","false","null","<span style=""color: black; font-size: 48px"">N + M</span>","null","","","","resp_prompt","","","","","","","","","","","","","","","",""
"categorize-image","21","276176","0.0-2.0-2.0-1.5","vglugqa962s05jv","practice_no_cue","5f0e3a84e586ab0009037c9e","5f60e3c0a3b16e07647b2ff9","5f60ee75937bc101bfc31956","true","720.9849999999278","./Stimuli/ImagesPractice/LM224.jpg","76","","","","test","true","N + M","76","","LM","LM224.jpg","forget","old","6","1","start","right","","","",""
"html-keyboard-response","22","276886","0.0-2.0-2.0-0.6","vglugqa962s05jv","practice_no_cue","5f0e3a84e586ab0009037c9e","5f60e3c0a3b16e07647b2ff9","5f60ee75937bc101bfc31956","false","null","<span style=""color: black; font-size: 48px"">M + N</span>","null","","","","resp_prompt","","","","","","","","","","","","","","","",""
"categorize-image","23","278260","0.0-2.0-2.0-1.6","vglugqa962s05jv","practice_no_cue","5f0e3a84e586ab0009037c9e","5f60e3c0a3b16e07647b2ff9","5f60ee75937bc101bfc31956","true","860.4300000001676","./Stimuli/ImagesPractice/LN17.jpg","76","","","","test","true","M + N","76","","LN","LN17.jpg","forget","old","7","1","start","right","","","",""
"html-keyboard-response","24","278972","0.0-2.0-2.0-0.7","vglugqa962s05jv","practice_no_cue","5f0e3a84e586ab0009037c9e","5f60e3c0a3b16e07647b2ff9","5f60ee75937bc101bfc31956","false","null","<span style=""color: black; font-size: 48px"">M + N</span>","null","","","","resp_prompt","","","","","","","","","","","","","","","",""
"categorize-image","25","280523","0.0-2.0-2.0-1.7","vglugqa962s05jv","practice_no_cue","5f0e3a84e586ab0009037c9e","5f60e3c0a3b16e07647b2ff9","5f60ee75937bc101bfc31956","true","1042.5650000000023","./Stimuli/ImagesPractice/SN205.jpg","76","","","","test","true","M + N","76","","SN","SN205.jpg","remember","old","8","1","start","right","","","",""
"html-keyboard-response","26","281238","0.0-2.0-2.0-0.8","vglugqa962s05jv","practice_no_cue","5f0e3a84e586ab0009037c9e","5f60e3c0a3b16e07647b2ff9","5f60ee75937bc101bfc31956","false","null","<span style=""color: black; font-size: 48px"">N + M</span>","null","","","","resp_prompt","","","","","","","","","","","","","","","",""
"categorize-image","27","282588","0.0-2.0-2.0-1.8","vglugqa962s05jv","practice_no_cue","5f0e3a84e586ab0009037c9e","5f60e3c0a3b16e07647b2ff9","5f60ee75937bc101bfc31956","true","836.8299999999581","./Stimuli/ImagesPractice/LN15.jpg","83","","","","test","true","N + M","83","","LN","LN15.jpg","remember","old","9","1","start","left","","","",""
"html-keyboard-response","28","283301","0.0-2.0-2.0-0.9","vglugqa962s05jv","practice_no_cue","5f0e3a84e586ab0009037c9e","5f60e3c0a3b16e07647b2ff9","5f60ee75937bc101bfc31956","false","null","<span style=""color: black; font-size: 48px"">N + M</span>","null","","","","resp_prompt","","","","","","","","","","","","","","","",""
"categorize-image","29","284552","0.0-2.0-2.0-1.9","vglugqa962s05jv","practice_no_cue","5f0e3a84e586ab0009037c9e","5f60e3c0a3b16e07647b2ff9","5f60ee75937bc101bfc31956","true","749.8299999999581","./Stimuli/ImagesPractice/SN76.jpg","83","","","","test","true","N + M","83","","SN","SN76.jpg","remember","old","10","1","start","left","","","",""
"html-keyboard-response","30","285264","0.0-2.0-2.0-0.10","vglugqa962s05jv","practice_no_cue","5f0e3a84e586ab0009037c9e","5f60e3c0a3b16e07647b2ff9","5f60ee75937bc101bfc31956","false","null","<span style=""color: black; font-size: 48px"">N + M</span>","null","","","","resp_prompt","","","","","","","","","","","","","","","",""
"categorize-image","31","286514","0.0-2.0-2.0-1.10","vglugqa962s05jv","practice_no_cue","5f0e3a84e586ab0009037c9e","5f60e3c0a3b16e07647b2ff9","5f60ee75937bc101bfc31956","true","745.1599999999162","./Stimuli/ImagesPractice/SN220.jpg","83","","","","test","true","N + M","83","","SN","SN220.jpg","remember","old","11","1","start","left","","","",""
"html-keyboard-response","32","287229","0.0-2.0-2.0-0.11","vglugqa962s05jv","practice_no_cue","5f0e3a84e586ab0009037c9e","5f60e3c0a3b16e07647b2ff9","5f60ee75937bc101bfc31956","false","null","<span style=""color: black; font-size: 48px"">M + N</span>","null","","","","resp_prompt","","","","","","","","","","","","","","","",""
"categorize-image","33","288637","0.0-2.0-2.0-1.11","vglugqa962s05jv","practice_no_cue","5f0e3a84e586ab0009037c9e","5f60e3c0a3b16e07647b2ff9","5f60ee75937bc101bfc31956","true","905.3199999998324","./Stimuli/ImagesPractice/LN72.jpg","83","","","","test","false","M + N","76","","LN","LN72.jpg","forget","old","12","1","start","left","","","",""
"html-keyboard-response","34","289353","0.0-2.0-2.0-0.12","vglugqa962s05jv","practice_no_cue","5f0e3a84e586ab0009037c9e","5f60e3c0a3b16e07647b2ff9","5f60ee75937bc101bfc31956","false","null","<span style=""color: black; font-size: 48px"">M + N</span>","null","","","","resp_prompt","","","","","","","","","","","","","","","",""
"categorize-image","35","290920","0.0-2.0-2.0-1.12","vglugqa962s05jv","practice_no_cue","5f0e3a84e586ab0009037c9e","5f60e3c0a3b16e07647b2ff9","5f60ee75937bc101bfc31956","true","1052.6600000000326","./Stimuli/ImagesPractice/LN109.jpg","76","","","","test","true","M + N","76","","LN","LN109.jpg","remember","old","13","1","start","right","","","",""
"html-keyboard-response","36","291631","0.0-2.0-2.0-0.13","vglugqa962s05jv","practice_no_cue","5f0e3a84e586ab0009037c9e","5f60e3c0a3b16e07647b2ff9","5f60ee75937bc101bfc31956","false","null","<span style=""color: black; font-size: 48px"">N + M</span>","null","","","","resp_prompt","","","","","","","","","","","","","","","",""
"categorize-image","37","292979","0.0-2.0-2.0-1.13","vglugqa962s05jv","practice_no_cue","5f0e3a84e586ab0009037c9e","5f60e3c0a3b16e07647b2ff9","5f60ee75937bc101bfc31956","true","845.3449999999721","./Stimuli/ImagesPractice/LM230.jpg","76","","","","test","true","N + M","76","","LM","LM230.jpg","forget","old","14","1","start","right","","","",""
"html-keyboard-response","38","293691","0.0-2.0-2.0-0.14","vglugqa962s05jv","practice_no_cue","5f0e3a84e586ab0009037c9e","5f60e3c0a3b16e07647b2ff9","5f60ee75937bc101bfc31956","false","null","<span style=""color: black; font-size: 48px"">N + M</span>","null","","","","resp_prompt","","","","","","","","","","","","","","","",""
"categorize-image","39","294957","0.0-2.0-2.0-1.14","vglugqa962s05jv","practice_no_cue","5f0e3a84e586ab0009037c9e","5f60e3c0a3b16e07647b2ff9","5f60ee75937bc101bfc31956","true","764.8099999998813","./Stimuli/ImagesPractice/LN2.jpg","83","","","","test","true","N + M","83","","LN","LN2.jpg","forget","old","15","1","start","left","","","",""
"html-keyboard-response","40","295668","0.0-2.0-2.0-0.15","vglugqa962s05jv","practice_no_cue","5f0e3a84e586ab0009037c9e","5f60e3c0a3b16e07647b2ff9","5f60ee75937bc101bfc31956","false","null","<span style=""color: black; font-size: 48px"">M + N</span>","null","","","","resp_prompt","","","","","","","","","","","","","","","",""
"categorize-image","41","297384","0.0-2.0-2.0-1.15","vglugqa962s05jv","practice_no_cue","5f0e3a84e586ab0009037c9e","5f60e3c0a3b16e07647b2ff9","5f60ee75937bc101bfc31956","true","1212","./Stimuli/ImagesPractice/SM62.jpg","83","","","","test","true","M + N","83","","SM","SM62.jpg","forget","old","16","1","start","left","","","",""
"html-keyboard-response","42","311205","0.0-2.0-3.0","vglugqa962s05jv","break","5f0e3a84e586ab0009037c9e","5f60e3c0a3b16e07647b2ff9","5f60ee75937bc101bfc31956","false","13819.830000000133","<p style='font-size: 32px;'>Break</><br><br><br><br><br><p style='font-size: 24px;'>In the last block, you committed 1 errors and did not respond in time on 1 trials.
</p><p style='font-size: 24px;'>Try to respond as fast and accurately as possible in the next block as well! </p><p style='font-size: 24px;'>Press SPACE to continue.</p>","32","","","","","","","","","","","","","","","","","","","",""
"html-keyboard-response","43","315292","0.0-2.0-4.0","vglugqa962s05jv","instructions","5f0e3a84e586ab0009037c9e","5f60e3c0a3b16e07647b2ff9","5f60ee75937bc101bfc31956","false","4086.12000000017","<div align=left> Great!<br><br>Are you ready to continue?<br><br>If you want to reread the instructions and redo the practice trials, <br>please press „Z“. <br><br>Press SPACE to CONTINUE with the experiment when you are ready. </div>","32","","","","","","","","","","","","","","","","","","","",""
"html-keyboard-response","44","352180","0.0-3.0-0.0","vglugqa962s05jv","instructions","5f0e3a84e586ab0009037c9e","5f60e3c0a3b16e07647b2ff9","5f60ee75937bc101bfc31956","false","36887.32499999995","<div align=left>Great!<br> <strong>Attention</strong>! You will now receive a second, additional task! <br><br>To this point it was you <strong>first task</strong> to correctly <strong>classify objects</strong>. <br><br>As mentioned in the beginning, we aim to examine how well humans can remember previously learned information.<br>We would like to find out whether our memory improves if we only remember information that is relevant to us. <br><br>Therefore, your <strong>second task</strong> will be to <strong>remember</strong> the pictures you are to categorize. <br> After the learning phase, there will be a memory test phase, in which you will be asked to indicate whether you have seen a picture before or not. <br>Some, but not all pictures shown in the learning phase will appear in the memory test phase.<br>After classifying a picture, you will be told whether you should remember it for the memory test phase or not. <br>Thus, some pictures can be forgotten, whereas others have to be remembered. <br><br>Note: From now on, feedback will only be displayed if you responded incorrectly or not in time.<br><br>Press SPACE to continue.</div>","32","","","","","","","","","","","","","","","","","","","",""
"html-keyboard-response","45","376206","0.0-3.0-1.0","vglugqa962s05jv","instructions","5f0e3a84e586ab0009037c9e","5f60e3c0a3b16e07647b2ff9","5f60ee75937bc101bfc31956","false","24025.270000000077","<div align=left>In the following part, you will thus have to remember only some pictures. <br>Immediately after seeing and classifying the picture, a symbol will be displayed, indicating whether you should remember or forget the previous picture. <br><br>A <span style='color: dodgerblue; font-size: 28px'>O</span> indicates REMEMBER. That means, you have to remember this picture, because it will be tested later. <br><br>A <span style='color: darkorange; font-size:28px'>Ø</span> indicates FORGET. You do not have to remember this picture. <br><br> As you will have to remember a lot of pictures, it will be hard for you to remember all of them. <br>It will put you at an advantage if you instantly forget the pictures you are not asked to remember. <br> This will make it easier for you to remember the pictures that will be tested afterwards. <br><br>Press SPACE to continue.</div>","32","","","","","","","","","","","","","","","","","","","",""
"html-keyboard-response","46","384179","0.0-3.0-2.0","vglugqa962s05jv","instructions","5f0e3a84e586ab0009037c9e","5f60e3c0a3b16e07647b2ff9","5f60ee75937bc101bfc31956","false","7972.00499999983","<div align=left> Now you have the chance to practice both tasks together.<br><br>Remember: <br> <br><li>Please place your index fingers on the <strong>'S'</strong> and <strong>'L'</strong> keys <br>to respond as fast and accurately as possible.</li><li>Every picture can be classified as either mechanical or non-mechanical.</li><li>If you do not respond in time or commit an error, you will receive a corresponding feedback. <br>Please try to respond as <strong> fast </strong> and as <strong> accurately as possible </strong>.</li><li> Please remember only the to-be-remembered <span style='color: dodgerblue; font-size: 28px'>O</span> pictures. <br></li><li> Please minimize distractions and stay focused. </li><br><br>Press SPACE to START</div>","32","","","","","","","","","","","","","","","","","","","",""
"html-keyboard-response","47","384890","0.0-3.0-3.0-0.0","vglugqa962s05jv","practice_cue","5f0e3a84e586ab0009037c9e","5f60e3c0a3b16e07647b2ff9","5f60ee75937bc101bfc31956","false","null","<span style=""color: black; font-size: 48px"">N + M</span>","null","","","","resp_prompt","","","","","","","","","","","","","","","",""
"categorize-image","48","385531","0.0-3.0-3.0-1.0","vglugqa962s05jv","practice_cue","5f0e3a84e586ab0009037c9e","5f60e3c0a3b16e07647b2ff9","5f60ee75937bc101bfc31956","true","637.070000000007","./Stimuli/ImagesPractice/LN15.jpg","83","","","","test","true","N + M","83","","LN","LN15.jpg","remember","old","17","2","practice_forget","left","","","",""
"html-keyboard-response","49","387536","0.0-3.0-3.0-3.0","vglugqa962s05jv","practice_cue","5f0e3a84e586ab0009037c9e","5f60e3c0a3b16e07647b2ff9","5f60ee75937bc101bfc31956","false","null","<div style=""align-items: center; display: flex; color: dodgerblue; font-size: 90px""><b>o</b></div>","null","","","","forget_cue","","","","","","","","","","","","","","","",""
"html-keyboard-response","50","388237","0.0-3.0-3.0-0.1","vglugqa962s05jv","practice_cue","5f0e3a84e586ab0009037c9e","5f60e3c0a3b16e07647b2ff9","5f60ee75937bc101bfc31956","false","null","<span style=""color: black; font-size: 48px"">N + M</span>","null","","","","resp_prompt","","","","","","","","","","","","","","","",""
"categorize-image","51","388799","0.0-3.0-3.0-1.1","vglugqa962s05jv","practice_cue","5f0e3a84e586ab0009037c9e","5f60e3c0a3b16e07647b2ff9","5f60ee75937bc101bfc31956","true","559.0050000001211","./Stimuli/ImagesPractice/LM239.jpg","76","","","","test","true","N + M","76","","LM","LM239.jpg","forget","old","18","2","practice_forget","right","","","",""
"html-keyboard-response","52","390811","0.0-3.0-3.0-3.1","vglugqa962s05jv","practice_cue","5f0e3a84e586ab0009037c9e","5f60e3c0a3b16e07647b2ff9","5f60ee75937bc101bfc31956","false","null","<div style=""align-items: center; display: flex; color: darkorange; font-size: 90px""><b>ø</b></div>","null","","","","forget_cue","","","","","","","","","","","","","","","",""
"html-keyboard-response","53","391520","0.0-3.0-3.0-0.2","vglugqa962s05jv","practice_cue","5f0e3a84e586ab0009037c9e","5f60e3c0a3b16e07647b2ff9","5f60ee75937bc101bfc31956","false","null","<span style=""color: black; font-size: 48px"">M + N</span>","null","","","","resp_prompt","","","","","","","","","","","","","","","",""
"categorize-image","54","392590","0.0-3.0-3.0-1.2","vglugqa962s05jv","practice_cue","5f0e3a84e586ab0009037c9e","5f60e3c0a3b16e07647b2ff9","5f60ee75937bc101bfc31956","true","1066.8050000001676","./Stimuli/ImagesPractice/LN109.jpg","76","","","","test","true","M + N","76","","LN","LN109.jpg","remember","old","19","2","practice_forget","right","","","",""
"html-keyboard-response","55","394592","0.0-3.0-3.0-3.2","vglugqa962s05jv","practice_cue","5f0e3a84e586ab0009037c9e","5f60e3c0a3b16e07647b2ff9","5f60ee75937bc101bfc31956","false","null","<div style=""align-items: center; display: flex; color: dodgerblue; font-size: 90px""><b>o</b></div>","null","","","","forget_cue","","","","","","","","","","","","","","","",""
"html-keyboard-response","56","395293","0.0-3.0-3.0-0.3","vglugqa962s05jv","practice_cue","5f0e3a84e586ab0009037c9e","5f60e3c0a3b16e07647b2ff9","5f60ee75937bc101bfc31956","false","null","<span style=""color: black; font-size: 48px"">N + M</span>","null","","","","resp_prompt","","","","","","","","","","","","","","","",""
"categorize-image","57","396696","0.0-3.0-3.0-1.3","vglugqa962s05jv","practice_cue","5f0e3a84e586ab0009037c9e","5f60e3c0a3b16e07647b2ff9","5f60ee75937bc101bfc31956","true","1400.4099999999162","./Stimuli/ImagesPractice/SN220.jpg","83","","","","test","true","N + M","83","","SN","SN220.jpg","remember","old","20","2","practice_forget","left","","","",""
"html-keyboard-response","58","398708","0.0-3.0-3.0-3.3","vglugqa962s05jv","practice_cue","5f0e3a84e586ab0009037c9e","5f60e3c0a3b16e07647b2ff9","5f60ee75937bc101bfc31956","false","null","<div style=""align-items: center; display: flex; color: dodgerblue; font-size: 90px""><b>o</b></div>","null","","","","forget_cue","","","","","","","","","","","","","","","",""
"html-keyboard-response","59","399410","0.0-3.0-3.0-0.4","vglugqa962s05jv","practice_cue","5f0e3a84e586ab0009037c9e","5f60e3c0a3b16e07647b2ff9","5f60ee75937bc101bfc31956","false","null","<span style=""color: black; font-size: 48px"">M + N</span>","null","","","","resp_prompt","","","","","","","","","","","","","","","",""
"categorize-image","60","400211","0.0-3.0-3.0-1.4","vglugqa962s05jv","practice_cue","5f0e3a84e586ab0009037c9e","5f60e3c0a3b16e07647b2ff9","5f60ee75937bc101bfc31956","true","796.7200000000303","./Stimuli/ImagesPractice/SM62.jpg","83","","","","test","true","M + N","83","","SM","SM62.jpg","forget","old","21","2","practice_forget","left","","","",""
"html-keyboard-response","61","402217","0.0-3.0-3.0-3.4","vglugqa962s05jv","practice_cue","5f0e3a84e586ab0009037c9e","5f60e3c0a3b16e07647b2ff9","5f60ee75937bc101bfc31956","false","null","<div style=""align-items: center; display: flex; color: darkorange; font-size: 90px""><b>ø</b></div>","null","","","","forget_cue","","","","","","","","","","","","","","","",""
"html-keyboard-response","62","402931","0.0-3.0-3.0-0.5","vglugqa962s05jv","practice_cue","5f0e3a84e586ab0009037c9e","5f60e3c0a3b16e07647b2ff9","5f60ee75937bc101bfc31956","false","null","<span style=""color: black; font-size: 48px"">N + M</span>","null","","","","resp_prompt","","","","","","","","","","","","","","","",""
"categorize-image","63","404230","0.0-3.0-3.0-1.5","vglugqa962s05jv","practice_cue","5f0e3a84e586ab0009037c9e","5f60e3c0a3b16e07647b2ff9","5f60ee75937bc101bfc31956","true","1296.0699999998906","./Stimuli/ImagesPractice/SN76.jpg","83","","","","test","true","N + M","83","","SN","SN76.jpg","remember","old","22","2","practice_forget","left","","","",""
"html-keyboard-response","64","406235","0.0-3.0-3.0-3.5","vglugqa962s05jv","practice_cue","5f0e3a84e586ab0009037c9e","5f60e3c0a3b16e07647b2ff9","5f60ee75937bc101bfc31956","false","null","<div style=""align-items: center; display: flex; color: dodgerblue; font-size: 90px""><b>o</b></div>","null","","","","forget_cue","","","","","","","","","","","","","","","",""
"html-keyboard-response","65","406948","0.0-3.0-3.0-0.6","vglugqa962s05jv","practice_cue","5f0e3a84e586ab0009037c9e","5f60e3c0a3b16e07647b2ff9","5f60ee75937bc101bfc31956","false","null","<span style=""color: black; font-size: 48px"">N + M</span>","null","","","","resp_prompt","","","","","","","","","","","","","","","",""
"categorize-image","66","408076","0.0-3.0-3.0-1.6","vglugqa962s05jv","practice_cue","5f0e3a84e586ab0009037c9e","5f60e3c0a3b16e07647b2ff9","5f60ee75937bc101bfc31956","true","1124.2799999999697","./Stimuli/ImagesPractice/LM224.jpg","76","","","","test","true","N + M","76","","LM","LM224.jpg","forget","old","23","2","practice_forget","right","","","",""
"html-keyboard-response","67","410082","0.0-3.0-3.0-3.6","vglugqa962s05jv","practice_cue","5f0e3a84e586ab0009037c9e","5f60e3c0a3b16e07647b2ff9","5f60ee75937bc101bfc31956","false","null","<div style=""align-items: center; display: flex; color: darkorange; font-size: 90px""><b>ø</b></div>","null","","","","forget_cue","","","","","","","","","","","","","","","",""
"html-keyboard-response","68","410794","0.0-3.0-3.0-0.7","vglugqa962s05jv","practice_cue","5f0e3a84e586ab0009037c9e","5f60e3c0a3b16e07647b2ff9","5f60ee75937bc101bfc31956","false","null","<span style=""color: black; font-size: 48px"">M + N</span>","null","","","","resp_prompt","","","","","","","","","","","","","","","",""
"categorize-image","69","412507","0.0-3.0-3.0-1.7","vglugqa962s05jv","practice_cue","5f0e3a84e586ab0009037c9e","5f60e3c0a3b16e07647b2ff9","5f60ee75937bc101bfc31956","true","1709.869999999879","./Stimuli/ImagesPractice/SN205.jpg","76","","","","test","true","M + N","76","","SN","SN205.jpg","remember","old","24","2","practice_forget","right","","","",""
"html-keyboard-response","70","414519","0.0-3.0-3.0-3.7","vglugqa962s05jv","practice_cue","5f0e3a84e586ab0009037c9e","5f60e3c0a3b16e07647b2ff9","5f60ee75937bc101bfc31956","false","null","<div style=""align-items: center; display: flex; color: dodgerblue; font-size: 90px""><b>o</b></div>","null","","","","forget_cue","","","","","","","","","","","","","","","",""
"html-keyboard-response","71","415232","0.0-3.0-3.0-0.8","vglugqa962s05jv","practice_cue","5f0e3a84e586ab0009037c9e","5f60e3c0a3b16e07647b2ff9","5f60ee75937bc101bfc31956","false","null","<span style=""color: black; font-size: 48px"">N + M</span>","null","","","","resp_prompt","","","","","","","","","","","","","","","",""
"categorize-image","72","416429","0.0-3.0-3.0-1.8","vglugqa962s05jv","practice_cue","5f0e3a84e586ab0009037c9e","5f60e3c0a3b16e07647b2ff9","5f60ee75937bc101bfc31956","true","1193.2850000000326","./Stimuli/ImagesPractice/LN2.jpg","83","","","","test","true","N + M","83","","LN","LN2.jpg","forget","old","25","2","practice_forget","left","","","",""
"html-keyboard-response","73","418433","0.0-3.0-3.0-3.8","vglugqa962s05jv","practice_cue","5f0e3a84e586ab0009037c9e","5f60e3c0a3b16e07647b2ff9","5f60ee75937bc101bfc31956","false","null","<div style=""align-items: center; display: flex; color: darkorange; font-size: 90px""><b>ø</b></div>","null","","","","forget_cue","","","","","","","","","","","","","","","",""
"html-keyboard-response","74","419134","0.0-3.0-3.0-0.9","vglugqa962s05jv","practice_cue","5f0e3a84e586ab0009037c9e","5f60e3c0a3b16e07647b2ff9","5f60ee75937bc101bfc31956","false","null","<span style=""color: black; font-size: 48px"">M + N</span>","null","","","","resp_prompt","","","","","","","","","","","","","","","",""
"categorize-image","75","419849","0.0-3.0-3.0-1.9","vglugqa962s05jv","practice_cue","5f0e3a84e586ab0009037c9e","5f60e3c0a3b16e07647b2ff9","5f60ee75937bc101bfc31956","true","711.3400000000838","./Stimuli/ImagesPractice/LN17.jpg","76","","","","test","true","M + N","76","","LN","LN17.jpg","forget","old","26","2","practice_forget","right","","","",""
"html-keyboard-response","76","421853","0.0-3.0-3.0-3.9","vglugqa962s05jv","practice_cue","5f0e3a84e586ab0009037c9e","5f60e3c0a3b16e07647b2ff9","5f60ee75937bc101bfc31956","false","null","<div style=""align-items: center; display: flex; color: darkorange; font-size: 90px""><b>ø</b></div>","null","","","","forget_cue","","","","","","","","","","","","","","","",""
"html-keyboard-response","77","422567","0.0-3.0-3.0-0.10","vglugqa962s05jv","practice_cue","5f0e3a84e586ab0009037c9e","5f60e3c0a3b16e07647b2ff9","5f60ee75937bc101bfc31956","false","null","<span style=""color: black; font-size: 48px"">M + N</span>","null","","","","resp_prompt","","","","","","","","","","","","","","","",""
"categorize-image","78","423339","0.0-3.0-3.0-1.10","vglugqa962s05jv","practice_cue","5f0e3a84e586ab0009037c9e","5f60e3c0a3b16e07647b2ff9","5f60ee75937bc101bfc31956","true","767.3600000001024","./Stimuli/ImagesPractice/SM35.jpg","83","","","","test","true","M + N","83","","SM","SM35.jpg","remember","old","27","2","practice_forget","left","","","",""
"html-keyboard-response","79","425353","0.0-3.0-3.0-3.10","vglugqa962s05jv","practice_cue","5f0e3a84e586ab0009037c9e","5f60e3c0a3b16e07647b2ff9","5f60ee75937bc101bfc31956","false","null","<div style=""align-items: center; display: flex; color: dodgerblue; font-size: 90px""><b>o</b></div>","null","","","","forget_cue","","","","","","","","","","","","","","","",""
"html-keyboard-response","80","426054","0.0-3.0-3.0-0.11","vglugqa962s05jv","practice_cue","5f0e3a84e586ab0009037c9e","5f60e3c0a3b16e07647b2ff9","5f60ee75937bc101bfc31956","false","null","<span style=""color: black; font-size: 48px"">M + N</span>","null","","","","resp_prompt","","","","","","","","","","","","","","","",""
"categorize-image","81","426793","0.0-3.0-3.0-1.11","vglugqa962s05jv","practice_cue","5f0e3a84e586ab0009037c9e","5f60e3c0a3b16e07647b2ff9","5f60ee75937bc101bfc31956","true","736.3000000000466","./Stimuli/ImagesPractice/LM147.jpg","83","","","","test","true","M + N","83","","LM","LM147.jpg","forget","old","28","2","practice_forget","left","","","",""
"html-keyboard-response","82","428803","0.0-3.0-3.0-3.11","vglugqa962s05jv","practice_cue","5f0e3a84e586ab0009037c9e","5f60e3c0a3b16e07647b2ff9","5f60ee75937bc101bfc31956","false","null","<div style=""align-items: center; display: flex; color: darkorange; font-size: 90px""><b>ø</b></div>","null","","","","forget_cue","","","","","","","","","","","","","","","",""
"html-keyboard-response","83","429518","0.0-3.0-3.0-0.12","vglugqa962s05jv","practice_cue","5f0e3a84e586ab0009037c9e","5f60e3c0a3b16e07647b2ff9","5f60ee75937bc101bfc31956","false","null","<span style=""color: black; font-size: 48px"">N + M</span>","null","","","","resp_prompt","","","","","","","","","","","","","","","",""
"categorize-image","84","430233","0.0-3.0-3.0-1.12","vglugqa962s05jv","practice_cue","5f0e3a84e586ab0009037c9e","5f60e3c0a3b16e07647b2ff9","5f60ee75937bc101bfc31956","true","711.3649999998743","./Stimuli/ImagesPractice/LM55.jpg","76","","","","test","true","N + M","76","","LM","LM55.jpg","remember","old","29","2","practice_forget","right","","","",""
"html-keyboard-response","85","432238","0.0-3.0-3.0-3.12","vglugqa962s05jv","practice_cue","5f0e3a84e586ab0009037c9e","5f60e3c0a3b16e07647b2ff9","5f60ee75937bc101bfc31956","false","null","<div style=""align-items: center; display: flex; color: dodgerblue; font-size: 90px""><b>o</b></div>","null","","","","forget_cue","","","","","","","","","","","","","","","",""
"html-keyboard-response","86","432949","0.0-3.0-3.0-0.13","vglugqa962s05jv","practice_cue","5f0e3a84e586ab0009037c9e","5f60e3c0a3b16e07647b2ff9","5f60ee75937bc101bfc31956","false","null","<span style=""color: black; font-size: 48px"">M + N</span>","null","","","","resp_prompt","","","","","","","","","","","","","","","",""
"categorize-image","87","433830","0.0-3.0-3.0-1.13","vglugqa962s05jv","practice_cue","5f0e3a84e586ab0009037c9e","5f60e3c0a3b16e07647b2ff9","5f60ee75937bc101bfc31956","true","877.5899999997928","./Stimuli/ImagesPractice/LN72.jpg","76","","","","test","true","M + N","76","","LN","LN72.jpg","forget","old","30","2","practice_forget","right","","","",""
"html-keyboard-response","88","435846","0.0-3.0-3.0-3.13","vglugqa962s05jv","practice_cue","5f0e3a84e586ab0009037c9e","5f60e3c0a3b16e07647b2ff9","5f60ee75937bc101bfc31956","false","null","<div style=""align-items: center; display: flex; color: darkorange; font-size: 90px""><b>ø</b></div>","null","","","","forget_cue","","","","","","","","","","","","","","","",""
"html-keyboard-response","89","436557","0.0-3.0-3.0-0.14","vglugqa962s05jv","practice_cue","5f0e3a84e586ab0009037c9e","5f60e3c0a3b16e07647b2ff9","5f60ee75937bc101bfc31956","false","null","<span style=""color: black; font-size: 48px"">M + N</span>","null","","","","resp_prompt","","","","","","","","","","","","","","","",""
"categorize-image","90","437198","0.0-3.0-3.0-1.14","vglugqa962s05jv","practice_cue","5f0e3a84e586ab0009037c9e","5f60e3c0a3b16e07647b2ff9","5f60ee75937bc101bfc31956","true","639.0799999999581","./Stimuli/ImagesPractice/SN222.jpg","76","","","","test","true","M + N","76","","SN","SN222.jpg","remember","old","31","2","practice_forget","right","","","",""
"html-keyboard-response","91","439208","0.0-3.0-3.0-3.14","vglugqa962s05jv","practice_cue","5f0e3a84e586ab0009037c9e","5f60e3c0a3b16e07647b2ff9","5f60ee75937bc101bfc31956","false","null","<div style=""align-items: center; display: flex; color: dodgerblue; font-size: 90px""><b>o</b></div>","null","","","","forget_cue","","","","","","","","","","","","","","","",""
"html-keyboard-response","92","439908","0.0-3.0-3.0-0.15","vglugqa962s05jv","practice_cue","5f0e3a84e586ab0009037c9e","5f60e3c0a3b16e07647b2ff9","5f60ee75937bc101bfc31956","false","null","<span style=""color: black; font-size: 48px"">N + M</span>","null","","","","resp_prompt","","","","","","","","","","","","","","","",""
"categorize-image","93","440518","0.0-3.0-3.0-1.15","vglugqa962s05jv","practice_cue","5f0e3a84e586ab0009037c9e","5f60e3c0a3b16e07647b2ff9","5f60ee75937bc101bfc31956","true","606.1150000000489","./Stimuli/ImagesPractice/LM230.jpg","76","","","","test","true","N + M","76","","LM","LM230.jpg","forget","old","32","2","practice_forget","right","","","",""
"html-keyboard-response","94","442520","0.0-3.0-3.0-3.15","vglugqa962s05jv","practice_cue","5f0e3a84e586ab0009037c9e","5f60e3c0a3b16e07647b2ff9","5f60ee75937bc101bfc31956","false","null","<div style=""align-items: center; display: flex; color: darkorange; font-size: 90px""><b>ø</b></div>","null","","","","forget_cue","","","","","","","","","","","","","","","",""
"html-keyboard-response","95","446843","0.0-3.0-4.0","vglugqa962s05jv","break","5f0e3a84e586ab0009037c9e","5f60e3c0a3b16e07647b2ff9","5f60ee75937bc101bfc31956","false","4322.614999999816","<p style='font-size: 32px;'>Break</><br><br><br><br><br><p style='font-size: 24px;'>In the last block, you committed 0 errors and did not respond in time on 0 trials.
</p><p style='font-size: 24px;'>Try to respond as fast and accurately as possible in the next block as well! </p><p style='font-size: 24px;'>Press SPACE to continue.</p>","32","","","","","","","","","","","","","","","","","","","",""
"html-keyboard-response","96","449590","0.0-3.0-5.0","vglugqa962s05jv","instructions","5f0e3a84e586ab0009037c9e","5f60e3c0a3b16e07647b2ff9","5f60ee75937bc101bfc31956","false","2746.0449999998673","<div align=left> Now, to practice, we kindly ask you to remember as many of the to-be-remembered pictures<br>of the previous learning phase as possible.<br><br>The pictures you were instructed to remember were the pictures followed by a <span style='color: dodgerblue; font-size: 28px'>O</span>.<br><br>In this memory test phase, you will also see some new pictures.<br>It is your task to remember whether you were presented with this specific picture in this study so far or not.<br>If you recognize an object (you have already seen it in this study), it is an OLD object. <br>If you do not recognize an object (you have NOT seen it in this study), it is a NEW object. <br><strong> Attention</strong>: As already mentioned, <span style='color: darkorange; font-size:28px'>Ø</span>-pictures will <strong>never</strong> appear in this memory test (neither as new objects). <br><br>Press SPACE to continue. </div>","32","","","","","","","","","","","","","","","","","","","",""
"html-keyboard-response","97","491276","0.0-3.0-6.0","vglugqa962s05jv","instructions","5f0e3a84e586ab0009037c9e","5f60e3c0a3b16e07647b2ff9","5f60ee75937bc101bfc31956","false","41685.82500000001","<div align=left> M and N no longer will appear on the left/right of the fixation cross. <br>Instead there will be a note at the bottom of the left or right side  <br>indicating which key you should press for an old or new object:  <br> <br>Press the <strong>right</strong> key to classify an object as <strong>old</strong> and press the <strong>left</strong>, to classify an object as <strong>new</strong>.<br>Please classify the objects as new/old by again placing your index finger on the 'S' and 'L' keys <br>and press them accordingly.<br><br><strong>Old:</strong> This object has been presented before. <br><strong>New:</strong> This object has <strong>not</strong> been presented.<br><br>Now please put your right and left index fingers on the 'S' and 'L' keys of your keyboard. <br>Please respond as fast and as accurately as possible!<br><br>Press SPACE to continue. </div>","32","","","","","","","","","","","","","","","","","","","",""
"categorize-image","98","492993","0.0-3.0-7.0-0.0","vglugqa962s05jv","practice_recog","5f0e3a84e586ab0009037c9e","5f60e3c0a3b16e07647b2ff9","5f60ee75937bc101bfc31956","true","1204.0549999998766","./Stimuli/ImagesPractice/SM97.jpg","76","","","","test","true","","76","","SM","SM97.jpg","","new","33","3","practice_recog","right","","","",""
"categorize-image","99","494354","0.0-3.0-7.0-0.1","vglugqa962s05jv","practice_recog","5f0e3a84e586ab0009037c9e","5f60e3c0a3b16e07647b2ff9","5f60ee75937bc101bfc31956","true","851.4750000001513","./Stimuli/ImagesPractice/LN15.jpg","83","","","","test","true","","83","","LN","LN15.jpg","","old","34","3","practice_recog","left","","","",""
"categorize-image","100","496252","0.0-3.0-7.0-0.2","vglugqa962s05jv","practice_recog","5f0e3a84e586ab0009037c9e","5f60e3c0a3b16e07647b2ff9","5f60ee75937bc101bfc31956","true","1390.9550000000745","./Stimuli/ImagesPractice/SN221.jpg","76","","","","test","true","","76","","SN","SN221.jpg","","new","35","3","practice_recog","right","","","",""
"categorize-image","101","497474","0.0-3.0-7.0-0.3","vglugqa962s05jv","practice_recog","5f0e3a84e586ab0009037c9e","5f60e3c0a3b16e07647b2ff9","5f60ee75937bc101bfc31956","true","713.6100000000442","./Stimuli/ImagesPractice/SN75.jpg","76","","","","test","true","","76","","SN","SN75.jpg","","new","36","3","practice_recog","right","","","",""
"categorize-image","102","498693","0.0-3.0-7.0-0.4","vglugqa962s05jv","practice_recog","5f0e3a84e586ab0009037c9e","5f60e3c0a3b16e07647b2ff9","5f60ee75937bc101bfc31956","true","710.3799999999464","./Stimuli/ImagesPractice/LM55.jpg","83","","","","test","true","","83","","LM","LM55.jpg","","old","37","3","practice_recog","left","","","",""
"categorize-image","103","499913","0.0-3.0-7.0-0.5","vglugqa962s05jv","practice_recog","5f0e3a84e586ab0009037c9e","5f60e3c0a3b16e07647b2ff9","5f60ee75937bc101bfc31956","true","708.3250000000698","./Stimuli/ImagesPractice/SM35.jpg","83","","","","test","true","","83","","SM","SM35.jpg","","old","38","3","practice_recog","left","","","",""
"categorize-image","104","501235","0.0-3.0-7.0-0.6","vglugqa962s05jv","practice_recog","5f0e3a84e586ab0009037c9e","5f60e3c0a3b16e07647b2ff9","5f60ee75937bc101bfc31956","true","810.8850000000675","./Stimuli/ImagesPractice/SN220.jpg","83","","","","test","true","","83","","SN","SN220.jpg","","old","39","3","practice_recog","left","","","",""
"categorize-image","105","503053","0.0-3.0-7.0-0.7","vglugqa962s05jv","practice_recog","5f0e3a84e586ab0009037c9e","5f60e3c0a3b16e07647b2ff9","5f60ee75937bc101bfc31956","true","1310.5200000000186","./Stimuli/ImagesPractice/SM98.jpg","76","","","","test","true","","76","","SM","SM98.jpg","","new","40","3","practice_recog","right","","","",""
"categorize-image","106","504405","0.0-3.0-7.0-0.8","vglugqa962s05jv","practice_recog","5f0e3a84e586ab0009037c9e","5f60e3c0a3b16e07647b2ff9","5f60ee75937bc101bfc31956","true","838.714999999851","./Stimuli/ImagesPractice/SM37.jpg","76","","","","test","true","","76","","SM","SM37.jpg","","new","41","3","practice_recog","right","","","",""
"categorize-image","107","505589","0.0-3.0-7.0-0.9","vglugqa962s05jv","practice_recog","5f0e3a84e586ab0009037c9e","5f60e3c0a3b16e07647b2ff9","5f60ee75937bc101bfc31956","true","682.3349999999627","./Stimuli/ImagesPractice/SN76.jpg","83","","","","test","true","","83","","SN","SN76.jpg","","old","42","3","practice_recog","left","","","",""
"categorize-image","108","506886","0.0-3.0-7.0-0.10","vglugqa962s05jv","practice_recog","5f0e3a84e586ab0009037c9e","5f60e3c0a3b16e07647b2ff9","5f60ee75937bc101bfc31956","true","786.0200000000186","./Stimuli/ImagesPractice/SN205.jpg","83","","","","test","true","","83","","SN","SN205.jpg","","old","43","3","practice_recog","left","","","",""
"categorize-image","109","508244","0.0-3.0-7.0-0.11","vglugqa962s05jv","practice_recog","5f0e3a84e586ab0009037c9e","5f60e3c0a3b16e07647b2ff9","5f60ee75937bc101bfc31956","true","854.9399999999441","./Stimuli/ImagesPractice/SM61.jpg","76","","","","test","true","","76","","SM","SM61.jpg","","new","44","3","practice_recog","right","","","",""
"categorize-image","110","509603","0.0-3.0-7.0-0.12","vglugqa962s05jv","practice_recog","5f0e3a84e586ab0009037c9e","5f60e3c0a3b16e07647b2ff9","5f60ee75937bc101bfc31956","true","849.2199999998556","./Stimuli/ImagesPractice/LN4.jpg","76","","","","test","true","","76","","LN","LN4.jpg","","new","45","3","practice_recog","right","","","",""
"categorize-image","111","510905","0.0-3.0-7.0-0.13","vglugqa962s05jv","practice_recog","5f0e3a84e586ab0009037c9e","5f60e3c0a3b16e07647b2ff9","5f60ee75937bc101bfc31956","true","790.5000000000582","./Stimuli/ImagesPractice/LN109.jpg","83","","","","test","true","","83","","LN","LN109.jpg","","old","46","3","practice_recog","left","","","",""
"categorize-image","112","512031","0.0-3.0-7.0-0.14","vglugqa962s05jv","practice_recog","5f0e3a84e586ab0009037c9e","5f60e3c0a3b16e07647b2ff9","5f60ee75937bc101bfc31956","true","622.5349999999744","./Stimuli/ImagesPractice/SN222.jpg","83","","","","test","true","","83","","SN","SN222.jpg","","old","47","3","practice_recog","left","","","",""
"categorize-image","113","513265","0.0-3.0-7.0-0.15","vglugqa962s05jv","practice_recog","5f0e3a84e586ab0009037c9e","5f60e3c0a3b16e07647b2ff9","5f60ee75937bc101bfc31956","true","717.6099999999278","./Stimuli/ImagesPractice/LM143.jpg","76","","","","test","true","","76","","LM","LM143.jpg","","new","48","3","practice_recog","right","","","",""
"html-keyboard-response","114","519281","0.0-3.0-8.0","vglugqa962s05jv","instructions","5f0e3a84e586ab0009037c9e","5f60e3c0a3b16e07647b2ff9","5f60ee75937bc101bfc31956","false","6015.094999999972","<div align=left> Great!<br><br>Are you ready to continue?<br>If you want to reread the instructions and redo the practice trials, please <br>press „Z“.<br><br>You can proceed when you are ready.<br><br>After the presentation of each object, you will receive an instruction whether to <br>remember or to forget the object.<br>We will test your memory of the following pictures only at the very end of <br>the experiment after all learning blocks are completed. <br><br>Press SPACE to CONTINUE when you are ready. </div>","32","","","","","","","","","","","","","","","","","","","",""
"html-keyboard-response","115","521115","0.0-4.0-0.0","vglugqa962s05jv","instructions","5f0e3a84e586ab0009037c9e","5f60e3c0a3b16e07647b2ff9","5f60ee75937bc101bfc31956","false","1833.265000000014","<div align=left> The actual experiment is about to start.<br>The practice trials are over!<br><br>Please always respond both fast and accurately!<br><br>Remember: <br> <br><li> Please place your index fingers on the <strong>'S'</strong> and <strong>'L'</strong> keys <br>to respond as fast and accurately as possible.</li><li> Every picture can be classified as either mechanical or non-mechanical.</li><li> If you do not respond in time or commit an error, you will receive a corresponding feedback.<br> Please try to respond as <strong> fast </strong> and as <strong> accurately as possible </strong>.</li><li> Remember the <span style='color: dodgerblue; font-size: 28px'>O</span> pictures. <br></li><li> Please minimize distractions and stay focused. </li><br><br>Press SPACE to START.</div>","32","","","","","","","","","","","","","","","","","","","",""
"html-keyboard-response","116","521819","0.0-4.0-1.0-0.0","vglugqa962s05jv","prime","5f0e3a84e586ab0009037c9e","5f60e3c0a3b16e07647b2ff9","5f60ee75937bc101bfc31956","false","null","<span style=""color: black; font-size: 48px"">N + M</span>","null","","","","resp_prompt","","","","","","","","","","","","","","","",""
"categorize-image","117","522615","0.0-4.0-1.0-1.0","vglugqa962s05jv","prime","5f0e3a84e586ab0009037c9e","5f60e3c0a3b16e07647b2ff9","5f60ee75937bc101bfc31956","true","791.5799999997835","./Stimuli/SelectedImages/LM/LM58.bmp","76","","","","test","true","N + M","76","switch","LM","LM58.bmp","forget","","49","3","prime1","right","","","",""
"html-keyboard-response","118","524625","0.0-4.0-1.0-3.0","vglugqa962s05jv","prime","5f0e3a84e586ab0009037c9e","5f60e3c0a3b16e07647b2ff9","5f60ee75937bc101bfc31956","false","null","<div style=""align-items: center; display: flex; color: darkorange; font-size: 90px""><b>ø</b></div>","null","","","","forget_cue","","","","","","","","","","","","","","","",""
"html-keyboard-response","119","525336","0.0-4.0-1.0-0.1","vglugqa962s05jv","prime","5f0e3a84e586ab0009037c9e","5f60e3c0a3b16e07647b2ff9","5f60ee75937bc101bfc31956","false","null","<span style=""color: black; font-size: 48px"">N + M</span>","null","","","","resp_prompt","","","","","","","","","","","","","","","",""
"categorize-image","120","526117","0.0-4.0-1.0-1.1","vglugqa962s05jv","prime","5f0e3a84e586ab0009037c9e","5f60e3c0a3b16e07647b2ff9","5f60ee75937bc101bfc31956","true","777.7950000002747","./Stimuli/SelectedImages/SM/SM195.bmp","76","","","","test","true","N + M","76","repetition","SM","SM195.bmp","forget","","50","3","prime1","right","","","",""
"html-keyboard-response","121","528122","0.0-4.0-1.0-3.1","vglugqa962s05jv","prime","5f0e3a84e586ab0009037c9e","5f60e3c0a3b16e07647b2ff9","5f60ee75937bc101bfc31956","false","null","<div style=""align-items: center; display: flex; color: darkorange; font-size: 90px""><b>ø</b></div>","null","","","","forget_cue","","","","","","","","","","","","","","","",""
"html-keyboard-response","122","528836","0.0-4.0-1.0-0.2","vglugqa962s05jv","prime","5f0e3a84e586ab0009037c9e","5f60e3c0a3b16e07647b2ff9","5f60ee75937bc101bfc31956","false","null","<span style=""color: black; font-size: 48px"">M + N</span>","null","","","","resp_prompt","","","","","","","","","","","","","","","",""
"categorize-image","123","530597","0.0-4.0-1.0-1.2","vglugqa962s05jv","prime","5f0e3a84e586ab0009037c9e","5f60e3c0a3b16e07647b2ff9","5f60ee75937bc101bfc31956","true","1757.160000000149","./Stimuli/SelectedImages/SM/SM17.bmp","83","","","","test","true","M + N","83","repetition","SM","SM17.bmp","forget","","51","3","prime1","left","","","",""
"html-keyboard-response","124","532613","0.0-4.0-1.0-3.2","vglugqa962s05jv","prime","5f0e3a84e586ab0009037c9e","5f60e3c0a3b16e07647b2ff9","5f60ee75937bc101bfc31956","false","null","<div style=""align-items: center; display: flex; color: darkorange; font-size: 90px""><b>ø</b></div>","null","","","","forget_cue","","","","","","","","","","","","","","","",""
"html-keyboard-response","125","533327","0.0-4.0-1.0-0.3","vglugqa962s05jv","prime","5f0e3a84e586ab0009037c9e","5f60e3c0a3b16e07647b2ff9","5f60ee75937bc101bfc31956","false","null","<span style=""color: black; font-size: 48px"">M + N</span>","null","","","","resp_prompt","","","","","","","","","","","","","","","",""
"categorize-image","126","533974","0.0-4.0-1.0-1.3","vglugqa962s05jv","prime","5f0e3a84e586ab0009037c9e","5f60e3c0a3b16e07647b2ff9","5f60ee75937bc101bfc31956","true","642.5300000001444","./Stimuli/SelectedImages/SM/SM73.bmp","83","","","","test","true","M + N","83","switch","SM","SM73.bmp","forget","","52","3","prime1","left","","","",""
"html-keyboard-response","127","535985","0.0-4.0-1.0-3.3","vglugqa962s05jv","prime","5f0e3a84e586ab0009037c9e","5f60e3c0a3b16e07647b2ff9","5f60ee75937bc101bfc31956","false","null","<div style=""align-items: center; display: flex; color: darkorange; font-size: 90px""><b>ø</b></div>","null","","","","forget_cue","","","","","","","","","","","","","","","",""
"html-keyboard-response","128","536697","0.0-4.0-1.0-0.4","vglugqa962s05jv","prime","5f0e3a84e586ab0009037c9e","5f60e3c0a3b16e07647b2ff9","5f60ee75937bc101bfc31956","false","null","<span style=""color: black; font-size: 48px"">N + M</span>","null","","","","resp_prompt","","","","","","","","","","","","","","","",""
"categorize-image","129","537645","0.0-4.0-1.0-1.4","vglugqa962s05jv","prime","5f0e3a84e586ab0009037c9e","5f60e3c0a3b16e07647b2ff9","5f60ee75937bc101bfc31956","true","944.2149999999674","./Stimuli/SelectedImages/SM/SM106.bmp","76","","","","test","true","N + M","76","switch","SM","SM106.bmp","forget","","53","3","prime1","right","","","",""
"html-keyboard-response","130","539653","0.0-4.0-1.0-3.4","vglugqa962s05jv","prime","5f0e3a84e586ab0009037c9e","5f60e3c0a3b16e07647b2ff9","5f60ee75937bc101bfc31956","false","null","<div style=""align-items: center; display: flex; color: darkorange; font-size: 90px""><b>ø</b></div>","null","","","","forget_cue","","","","","","","","","","","","","","","",""
"html-keyboard-response","131","540367","0.0-4.0-1.0-0.5","vglugqa962s05jv","prime","5f0e3a84e586ab0009037c9e","5f60e3c0a3b16e07647b2ff9","5f60ee75937bc101bfc31956","false","null","<span style=""color: black; font-size: 48px"">M + N</span>","null","","","","resp_prompt","","","","","","","","","","","","","","","",""
"categorize-image","132","541788","0.0-4.0-1.0-1.5","vglugqa962s05jv","prime","5f0e3a84e586ab0009037c9e","5f60e3c0a3b16e07647b2ff9","5f60ee75937bc101bfc31956","true","1417.7449999999953","./Stimuli/SelectedImages/SN/SN140.bmp","76","","","","test","true","M + N","76","switch","SN","SN140.bmp","forget","","54","3","prime1","right","","","",""
"html-keyboard-response","133","543789","0.0-4.0-1.0-3.5","vglugqa962s05jv","prime","5f0e3a84e586ab0009037c9e","5f60e3c0a3b16e07647b2ff9","5f60ee75937bc101bfc31956","false","null","<div style=""align-items: center; display: flex; color: darkorange; font-size: 90px""><b>ø</b></div>","null","","","","forget_cue","","","","","","","","","","","","","","","",""
"html-keyboard-response","134","544502","0.0-4.0-1.0-0.6","vglugqa962s05jv","prime","5f0e3a84e586ab0009037c9e","5f60e3c0a3b16e07647b2ff9","5f60ee75937bc101bfc31956","false","null","<span style=""color: black; font-size: 48px"">N + M</span>","null","","","","resp_prompt","","","","","","","","","","","","","","","",""
"categorize-image","135","545330","0.0-4.0-1.0-1.6","vglugqa962s05jv","prime","5f0e3a84e586ab0009037c9e","5f60e3c0a3b16e07647b2ff9","5f60ee75937bc101bfc31956","true","824.7549999998882","./Stimuli/SelectedImages/LN/LN101.bmp","83","","","","test","true","N + M","83","repetition","LN","LN101.bmp","remember","","55","3","prime1","left","","","",""
"html-keyboard-response","136","547332","0.0-4.0-1.0-3.6","vglugqa962s05jv","prime","5f0e3a84e586ab0009037c9e","5f60e3c0a3b16e07647b2ff9","5f60ee75937bc101bfc31956","false","null","<div style=""align-items: center; display: flex; color: dodgerblue; font-size: 90px""><b>o</b></div>","null","","","","forget_cue","","","","","","","","","","","","","","","",""
"html-keyboard-response","137","548044","0.0-4.0-1.0-0.7","vglugqa962s05jv","prime","5f0e3a84e586ab0009037c9e","5f60e3c0a3b16e07647b2ff9","5f60ee75937bc101bfc31956","false","null","<span style=""color: black; font-size: 48px"">N + M</span>","null","","","","resp_prompt","","","","","","","","","","","","","","","",""
"categorize-image","138","548907","0.0-4.0-1.0-1.7","vglugqa962s05jv","prime","5f0e3a84e586ab0009037c9e","5f60e3c0a3b16e07647b2ff9","5f60ee75937bc101bfc31956","true","859.8450000002049","./Stimuli/SelectedImages/SN/SN240.bmp","83","","","","test","true","N + M","83","repetition","SN","SN240.bmp","remember","","56","3","prime1","left","","","",""
"html-keyboard-response","139","550911","0.0-4.0-1.0-3.7","vglugqa962s05jv","prime","5f0e3a84e586ab0009037c9e","5f60e3c0a3b16e07647b2ff9","5f60ee75937bc101bfc31956","false","null","<div style=""align-items: center; display: flex; color: dodgerblue; font-size: 90px""><b>o</b></div>","null","","","","forget_cue","","","","","","","","","","","","","","","",""
"html-keyboard-response","140","551622","0.0-4.0-1.0-0.8","vglugqa962s05jv","prime","5f0e3a84e586ab0009037c9e","5f60e3c0a3b16e07647b2ff9","5f60ee75937bc101bfc31956","false","null","<span style=""color: black; font-size: 48px"">M + N</span>","null","","","","resp_prompt","","","","","","","","","","","","","","","",""
"categorize-image","141","552533","0.0-4.0-1.0-1.8","vglugqa962s05jv","prime","5f0e3a84e586ab0009037c9e","5f60e3c0a3b16e07647b2ff9","5f60ee75937bc101bfc31956","true","907.1500000000233","./Stimuli/SelectedImages/SM/SM148.bmp","83","","","","test","true","M + N","83","repetition","SM","SM148.bmp","remember","","57","3","prime1","left","","","",""
"html-keyboard-response","142","554538","0.0-4.0-1.0-3.8","vglugqa962s05jv","prime","5f0e3a84e586ab0009037c9e","5f60e3c0a3b16e07647b2ff9","5f60ee75937bc101bfc31956","false","null","<div style=""align-items: center; display: flex; color: dodgerblue; font-size: 90px""><b>o</b></div>","null","","","","forget_cue","","","","","","","","","","","","","","","",""
"html-keyboard-response","143","555255","0.0-4.0-1.0-0.9","vglugqa962s05jv","prime","5f0e3a84e586ab0009037c9e","5f60e3c0a3b16e07647b2ff9","5f60ee75937bc101bfc31956","false","null","<span style=""color: black; font-size: 48px"">N + M</span>","null","","","","resp_prompt","","","","","","","","","","","","","","","",""
"categorize-image","144","556002","0.0-4.0-1.0-1.9","vglugqa962s05jv","prime","5f0e3a84e586ab0009037c9e","5f60e3c0a3b16e07647b2ff9","5f60ee75937bc101bfc31956","true","744.6450000000186","./Stimuli/SelectedImages/SN/SN27.bmp","83","","","","test","true","N + M","83","repetition","SN","SN27.bmp","remember","","58","3","prime1","left","","","",""
"html-keyboard-response","145","558009","0.0-4.0-1.0-3.9","vglugqa962s05jv","prime","5f0e3a84e586ab0009037c9e","5f60e3c0a3b16e07647b2ff9","5f60ee75937bc101bfc31956","false","null","<div style=""align-items: center; display: flex; color: dodgerblue; font-size: 90px""><b>o</b></div>","null","","","","forget_cue","","","","","","","","","","","","","","","",""
"html-keyboard-response","146","558721","0.0-4.0-1.0-0.10","vglugqa962s05jv","prime","5f0e3a84e586ab0009037c9e","5f60e3c0a3b16e07647b2ff9","5f60ee75937bc101bfc31956","false","null","<span style=""color: black; font-size: 48px"">N + M</span>","null","","","","resp_prompt","","","","","","","","","","","","","","","",""
"categorize-image","147","559351","0.0-4.0-1.0-1.10","vglugqa962s05jv","prime","5f0e3a84e586ab0009037c9e","5f60e3c0a3b16e07647b2ff9","5f60ee75937bc101bfc31956","true","625.5650000000605","./Stimuli/SelectedImages/SM/SM76.bmp","76","","","","test","true","N + M","76","repetition","SM","SM76.bmp","remember","","59","3","prime1","right","","","",""
"html-keyboard-response","148","561355","0.0-4.0-1.0-3.10","vglugqa962s05jv","prime","5f0e3a84e586ab0009037c9e","5f60e3c0a3b16e07647b2ff9","5f60ee75937bc101bfc31956","false","null","<div style=""align-items: center; display: flex; color: dodgerblue; font-size: 90px""><b>o</b></div>","null","","","","forget_cue","","","","","","","","","","","","","","","",""
"html-keyboard-response","149","562067","0.0-4.0-1.0-0.11","vglugqa962s05jv","prime","5f0e3a84e586ab0009037c9e","5f60e3c0a3b16e07647b2ff9","5f60ee75937bc101bfc31956","false","null","<span style=""color: black; font-size: 48px"">N + M</span>","null","","","","resp_prompt","","","","","","","","","","","","","","","",""
"categorize-image","150","562827","0.0-4.0-1.0-1.11","vglugqa962s05jv","prime","5f0e3a84e586ab0009037c9e","5f60e3c0a3b16e07647b2ff9","5f60ee75937bc101bfc31956","true","756.4899999999907","./Stimuli/SelectedImages/SM/SM74.bmp","76","","","","test","true","N + M","76","repetition","SM","SM74.bmp","forget","","60","3","prime1","right","","","",""
"html-keyboard-response","151","564835","0.0-4.0-1.0-3.11","vglugqa962s05jv","prime","5f0e3a84e586ab0009037c9e","5f60e3c0a3b16e07647b2ff9","5f60ee75937bc101bfc31956","false","null","<div style=""align-items: center; display: flex; color: darkorange; font-size: 90px""><b>ø</b></div>","null","","","","forget_cue","","","","","","","","","","","","","","","",""
"html-keyboard-response","152","565548","0.0-4.0-1.0-0.12","vglugqa962s05jv","prime","5f0e3a84e586ab0009037c9e","5f60e3c0a3b16e07647b2ff9","5f60ee75937bc101bfc31956","false","null","<span style=""color: black; font-size: 48px"">M + N</span>","null","","","","resp_prompt","","","","","","","","","","","","","","","",""
"categorize-image","153","566439","0.0-4.0-1.0-1.12","vglugqa962s05jv","prime","5f0e3a84e586ab0009037c9e","5f60e3c0a3b16e07647b2ff9","5f60ee75937bc101bfc31956","true","888.949999999837","./Stimuli/SelectedImages/LN/LN42.bmp","76","","","","test","true","M + N","76","switch","LN","LN42.bmp","remember","","61","3","prime1","right","","","",""
"html-keyboard-response","154","568447","0.0-4.0-1.0-3.12","vglugqa962s05jv","prime","5f0e3a84e586ab0009037c9e","5f60e3c0a3b16e07647b2ff9","5f60ee75937bc101bfc31956","false","null","<div style=""align-items: center; display: flex; color: dodgerblue; font-size: 90px""><b>o</b></div>","null","","","","forget_cue","","","","","","","","","","","","","","","",""
"html-keyboard-response","155","569162","0.0-4.0-1.0-0.13","vglugqa962s05jv","prime","5f0e3a84e586ab0009037c9e","5f60e3c0a3b16e07647b2ff9","5f60ee75937bc101bfc31956","false","null","<span style=""color: black; font-size: 48px"">M + N</span>","null","","","","resp_prompt","","","","","","","","","","","","","","","",""
"categorize-image","156","569871","0.0-4.0-1.0-1.13","vglugqa962s05jv","prime","5f0e3a84e586ab0009037c9e","5f60e3c0a3b16e07647b2ff9","5f60ee75937bc101bfc31956","true","706.1149999999907","./Stimuli/SelectedImages/LM/LM100.bmp","83","","","","test","true","M + N","83","repetition","LM","LM100.bmp","remember","","62","3","prime1","left","","","",""
"html-keyboard-response","157","571876","0.0-4.0-1.0-3.13","vglugqa962s05jv","prime","5f0e3a84e586ab0009037c9e","5f60e3c0a3b16e07647b2ff9","5f60ee75937bc101bfc31956","false","null","<div style=""align-items: center; display: flex; color: dodgerblue; font-size: 90px""><b>o</b></div>","null","","","","forget_cue","","","","","","","","","","","","","","","",""
"html-keyboard-response","158","572590","0.0-4.0-1.0-0.14","vglugqa962s05jv","prime","5f0e3a84e586ab0009037c9e","5f60e3c0a3b16e07647b2ff9","5f60ee75937bc101bfc31956","false","null","<span style=""color: black; font-size: 48px"">N + M</span>","null","","","","resp_prompt","","","","","","","","","","","","","","","",""
"categorize-image","159","573262","0.0-4.0-1.0-1.14","vglugqa962s05jv","prime","5f0e3a84e586ab0009037c9e","5f60e3c0a3b16e07647b2ff9","5f60ee75937bc101bfc31956","true","668.5","./Stimuli/SelectedImages/LN/LN13.bmp","83","","","","test","true","N + M","83","switch","LN","LN13.bmp","forget","","63","3","prime1","left","","","",""
"html-keyboard-response","160","575279","0.0-4.0-1.0-3.14","vglugqa962s05jv","prime","5f0e3a84e586ab0009037c9e","5f60e3c0a3b16e07647b2ff9","5f60ee75937bc101bfc31956","false","null","<div style=""align-items: center; display: flex; color: darkorange; font-size: 90px""><b>ø</b></div>","null","","","","forget_cue","","","","","","","","","","","","","","","",""
"html-keyboard-response","161","575990","0.0-4.0-1.0-0.15","vglugqa962s05jv","prime","5f0e3a84e586ab0009037c9e","5f60e3c0a3b16e07647b2ff9","5f60ee75937bc101bfc31956","false","null","<span style=""color: black; font-size: 48px"">N + M</span>","null","","","","resp_prompt","","","","","","","","","","","","","","","",""
"categorize-image","162","577317","0.0-4.0-1.0-1.15","vglugqa962s05jv","prime","5f0e3a84e586ab0009037c9e","5f60e3c0a3b16e07647b2ff9","5f60ee75937bc101bfc31956","true","1323.4699999998556","./Stimuli/SelectedImages/LN/LN82.bmp","83","","","","test","true","N + M","83","repetition","LN","LN82.bmp","forget","","64","3","prime1","left","","","",""
"html-keyboard-response","163","579326","0.0-4.0-1.0-3.15","vglugqa962s05jv","prime","5f0e3a84e586ab0009037c9e","5f60e3c0a3b16e07647b2ff9","5f60ee75937bc101bfc31956","false","null","<div style=""align-items: center; display: flex; color: darkorange; font-size: 90px""><b>ø</b></div>","null","","","","forget_cue","","","","","","","","","","","","","","","",""
"html-keyboard-response","164","580041","0.0-4.0-1.0-0.16","vglugqa962s05jv","prime","5f0e3a84e586ab0009037c9e","5f60e3c0a3b16e07647b2ff9","5f60ee75937bc101bfc31956","false","null","<span style=""color: black; font-size: 48px"">M + N</span>","null","","","","resp_prompt","","","","","","","","","","","","","","","",""
"categorize-image","165","580768","0.0-4.0-1.0-1.16","vglugqa962s05jv","prime","5f0e3a84e586ab0009037c9e","5f60e3c0a3b16e07647b2ff9","5f60ee75937bc101bfc31956","true","723.7550000000047","./Stimuli/SelectedImages/LN/LN28.bmp","76","","","","test","true","M + N","76","repetition","LN","LN28.bmp","remember","","65","3","prime1","right","","","",""
"html-keyboard-response","166","582782","0.0-4.0-1.0-3.16","vglugqa962s05jv","prime","5f0e3a84e586ab0009037c9e","5f60e3c0a3b16e07647b2ff9","5f60ee75937bc101bfc31956","false","null","<div style=""align-items: center; display: flex; color: dodgerblue; font-size: 90px""><b>o</b></div>","null","","","","forget_cue","","","","","","","","","","","","","","","",""
"html-keyboard-response","167","583492","0.0-4.0-1.0-0.17","vglugqa962s05jv","prime","5f0e3a84e586ab0009037c9e","5f60e3c0a3b16e07647b2ff9","5f60ee75937bc101bfc31956","false","null","<span style=""color: black; font-size: 48px"">M + N</span>","null","","","","resp_prompt","","","","","","","","","","","","","","","",""
"categorize-image","168","584621","0.0-4.0-1.0-1.17","vglugqa962s05jv","prime","5f0e3a84e586ab0009037c9e","5f60e3c0a3b16e07647b2ff9","5f60ee75937bc101bfc31956","true","1125.5800000000745","./Stimuli/SelectedImages/SN/SN179.bmp","76","","","","test","true","M + N","76","switch","SN","SN179.bmp","remember","","66","3","prime1","right","","","",""
"html-keyboard-response","169","586633","0.0-4.0-1.0-3.17","vglugqa962s05jv","prime","5f0e3a84e586ab0009037c9e","5f60e3c0a3b16e07647b2ff9","5f60ee75937bc101bfc31956","false","null","<div style=""align-items: center; display: flex; color: dodgerblue; font-size: 90px""><b>o</b></div>","null","","","","forget_cue","","","","","","","","","","","","","","","",""
"html-keyboard-response","170","587346","0.0-4.0-1.0-0.18","vglugqa962s05jv","prime","5f0e3a84e586ab0009037c9e","5f60e3c0a3b16e07647b2ff9","5f60ee75937bc101bfc31956","false","null","<span style=""color: black; font-size: 48px"">N + M</span>","null","","","","resp_prompt","","","","","","","","","","","","","","","",""
"categorize-image","171","588211","0.0-4.0-1.0-1.18","vglugqa962s05jv","prime","5f0e3a84e586ab0009037c9e","5f60e3c0a3b16e07647b2ff9","5f60ee75937bc101bfc31956","true","861.6899999999441","./Stimuli/SelectedImages/LN/LN92.bmp","83","","","","test","true","N + M","83","repetition","LN","LN92.bmp","remember","","67","3","prime1","left","","","",""
"html-keyboard-response","172","590214","0.0-4.0-1.0-3.18","vglugqa962s05jv","prime","5f0e3a84e586ab0009037c9e","5f60e3c0a3b16e07647b2ff9","5f60ee75937bc101bfc31956","false","null","<div style=""align-items: center; display: flex; color: dodgerblue; font-size: 90px""><b>o</b></div>","null","","","","forget_cue","","","","","","","","","","","","","","","",""
"html-keyboard-response","173","590915","0.0-4.0-1.0-0.19","vglugqa962s05jv","prime","5f0e3a84e586ab0009037c9e","5f60e3c0a3b16e07647b2ff9","5f60ee75937bc101bfc31956","false","null","<span style=""color: black; font-size: 48px"">N + M</span>","null","","","","resp_prompt","","","","","","","","","","","","","","","",""
"categorize-image","174","591745","0.0-4.0-1.0-1.19","vglugqa962s05jv","prime","5f0e3a84e586ab0009037c9e","5f60e3c0a3b16e07647b2ff9","5f60ee75937bc101bfc31956","true","827.2800000000279","./Stimuli/SelectedImages/SN/SN111.bmp","83","","","","test","true","N + M","83","switch","SN","SN111.bmp","remember","","68","3","prime1","left","","","",""
"html-keyboard-response","175","593761","0.0-4.0-1.0-3.19","vglugqa962s05jv","prime","5f0e3a84e586ab0009037c9e","5f60e3c0a3b16e07647b2ff9","5f60ee75937bc101bfc31956","false","null","<div style=""align-items: center; display: flex; color: dodgerblue; font-size: 90px""><b>o</b></div>","null","","","","forget_cue","","","","","","","","","","","","","","","",""
"html-keyboard-response","176","594475","0.0-4.0-1.0-0.20","vglugqa962s05jv","prime","5f0e3a84e586ab0009037c9e","5f60e3c0a3b16e07647b2ff9","5f60ee75937bc101bfc31956","false","null","<span style=""color: black; font-size: 48px"">M + N</span>","null","","","","resp_prompt","","","","","","","","","","","","","","","",""
"categorize-image","177","595572","0.0-4.0-1.0-1.20","vglugqa962s05jv","prime","5f0e3a84e586ab0009037c9e","5f60e3c0a3b16e07647b2ff9","5f60ee75937bc101bfc31956","true","1094.9050000001444","./Stimuli/SelectedImages/SM/SM128.bmp","83","","","","test","true","M + N","83","switch","SM","SM128.bmp","remember","","69","3","prime1","left","","","",""
"html-keyboard-response","178","597581","0.0-4.0-1.0-3.20","vglugqa962s05jv","prime","5f0e3a84e586ab0009037c9e","5f60e3c0a3b16e07647b2ff9","5f60ee75937bc101bfc31956","false","null","<div style=""align-items: center; display: flex; color: dodgerblue; font-size: 90px""><b>o</b></div>","null","","","","forget_cue","","","","","","","","","","","","","","","",""
"html-keyboard-response","179","598293","0.0-4.0-1.0-0.21","vglugqa962s05jv","prime","5f0e3a84e586ab0009037c9e","5f60e3c0a3b16e07647b2ff9","5f60ee75937bc101bfc31956","false","null","<span style=""color: black; font-size: 48px"">N + M</span>","null","","","","resp_prompt","","","","","","","","","","","","","","","",""
"categorize-image","180","599966","0.0-4.0-1.0-1.21","vglugqa962s05jv","prime","5f0e3a84e586ab0009037c9e","5f60e3c0a3b16e07647b2ff9","5f60ee75937bc101bfc31956","true","1668.4500000001863","./Stimuli/SelectedImages/SN/SN60.bmp","83","","","","test","true","N + M","83","repetition","SN","SN60.bmp","forget","","70","3","prime1","left","","","",""
"html-keyboard-response","181","601979","0.0-4.0-1.0-3.21","vglugqa962s05jv","prime","5f0e3a84e586ab0009037c9e","5f60e3c0a3b16e07647b2ff9","5f60ee75937bc101bfc31956","false","null","<div style=""align-items: center; display: flex; color: darkorange; font-size: 90px""><b>ø</b></div>","null","","","","forget_cue","","","","","","","","","","","","","","","",""
"html-keyboard-response","182","602695","0.0-4.0-1.0-0.22","vglugqa962s05jv","prime","5f0e3a84e586ab0009037c9e","5f60e3c0a3b16e07647b2ff9","5f60ee75937bc101bfc31956","false","null","<span style=""color: black; font-size: 48px"">N + M</span>","null","","","","resp_prompt","","","","","","","","","","","","","","","",""
"categorize-image","183","603464","0.0-4.0-1.0-1.22","vglugqa962s05jv","prime","5f0e3a84e586ab0009037c9e","5f60e3c0a3b16e07647b2ff9","5f60ee75937bc101bfc31956","true","764.8800000000047","./Stimuli/SelectedImages/SM/SM207.bmp","76","","","","test","true","N + M","76","switch","SM","SM207.bmp","forget","","71","3","prime1","right","","","",""
"html-keyboard-response","184","605468","0.0-4.0-1.0-3.22","vglugqa962s05jv","prime","5f0e3a84e586ab0009037c9e","5f60e3c0a3b16e07647b2ff9","5f60ee75937bc101bfc31956","false","null","<div style=""align-items: center; display: flex; color: darkorange; font-size: 90px""><b>ø</b></div>","null","","","","forget_cue","","","","","","","","","","","","","","","",""
"html-keyboard-response","185","606181","0.0-4.0-1.0-0.23","vglugqa962s05jv","prime","5f0e3a84e586ab0009037c9e","5f60e3c0a3b16e07647b2ff9","5f60ee75937bc101bfc31956","false","null","<span style=""color: black; font-size: 48px"">N + M</span>","null","","","","resp_prompt","","","","","","","","","","","","","","","",""
"categorize-image","186","606875","0.0-4.0-1.0-1.23","vglugqa962s05jv","prime","5f0e3a84e586ab0009037c9e","5f60e3c0a3b16e07647b2ff9","5f60ee75937bc101bfc31956","true","691.2300000002142","./Stimuli/SelectedImages/LN/LN131.bmp","83","","","","test","true","N + M","83","switch","LN","LN131.bmp","remember","","72","3","prime1","left","","","",""
"html-keyboard-response","187","608889","0.0-4.0-1.0-3.23","vglugqa962s05jv","prime","5f0e3a84e586ab0009037c9e","5f60e3c0a3b16e07647b2ff9","5f60ee75937bc101bfc31956","false","null","<div style=""align-items: center; display: flex; color: dodgerblue; font-size: 90px""><b>o</b></div>","null","","","","forget_cue","","","","","","","","","","","","","","","",""
"html-keyboard-response","188","609591","0.0-4.0-1.0-0.24","vglugqa962s05jv","prime","5f0e3a84e586ab0009037c9e","5f60e3c0a3b16e07647b2ff9","5f60ee75937bc101bfc31956","false","null","<span style=""color: black; font-size: 48px"">N + M</span>","null","","","","resp_prompt","","","","","","","","","","","","","","","",""
"categorize-image","189","610334","0.0-4.0-1.0-1.24","vglugqa962s05jv","prime","5f0e3a84e586ab0009037c9e","5f60e3c0a3b16e07647b2ff9","5f60ee75937bc101bfc31956","true","739.7800000000279","./Stimuli/SelectedImages/LM/LM157.bmp","76","","","","test","true","N + M","76","repetition","LM","LM157.bmp","forget","","73","3","prime1","right","","","",""
"html-keyboard-response","190","612342","0.0-4.0-1.0-3.24","vglugqa962s05jv","prime","5f0e3a84e586ab0009037c9e","5f60e3c0a3b16e07647b2ff9","5f60ee75937bc101bfc31956","false","null","<div style=""align-items: center; display: flex; color: darkorange; font-size: 90px""><b>ø</b></div>","null","","","","forget_cue","","","","","","","","","","","","","","","",""
"html-keyboard-response","191","613044","0.0-4.0-1.0-0.25","vglugqa962s05jv","prime","5f0e3a84e586ab0009037c9e","5f60e3c0a3b16e07647b2ff9","5f60ee75937bc101bfc31956","false","null","<span style=""color: black; font-size: 48px"">M + N</span>","null","","","","resp_prompt","","","","","","","","","","","","","","","",""
"categorize-image","192","613852","0.0-4.0-1.0-1.25","vglugqa962s05jv","prime","5f0e3a84e586ab0009037c9e","5f60e3c0a3b16e07647b2ff9","5f60ee75937bc101bfc31956","true","803.9399999999441","./Stimuli/SelectedImages/LN/LN12.bmp","76","","","","test","true","M + N","76","switch","LN","LN12.bmp","remember","","74","3","prime1","right","","","",""
"html-keyboard-response","193","615867","0.0-4.0-1.0-3.25","vglugqa962s05jv","prime","5f0e3a84e586ab0009037c9e","5f60e3c0a3b16e07647b2ff9","5f60ee75937bc101bfc31956","false","null","<div style=""align-items: center; display: flex; color: dodgerblue; font-size: 90px""><b>o</b></div>","null","","","","forget_cue","","","","","","","","","","","","","","","",""
"html-keyboard-response","194","616568","0.0-4.0-1.0-0.26","vglugqa962s05jv","prime","5f0e3a84e586ab0009037c9e","5f60e3c0a3b16e07647b2ff9","5f60ee75937bc101bfc31956","false","null","<span style=""color: black; font-size: 48px"">M + N</span>","null","","","","resp_prompt","","","","","","","","","","","","","","","",""
"categorize-image","195","617317","0.0-4.0-1.0-1.26","vglugqa962s05jv","prime","5f0e3a84e586ab0009037c9e","5f60e3c0a3b16e07647b2ff9","5f60ee75937bc101bfc31956","true","745.390000000014","./Stimuli/SelectedImages/LN/LN150.bmp","76","","","","test","true","M + N","76","repetition","LN","LN150.bmp","forget","","75","3","prime1","right","","","",""
"html-keyboard-response","196","619323","0.0-4.0-1.0-3.26","vglugqa962s05jv","prime","5f0e3a84e586ab0009037c9e","5f60e3c0a3b16e07647b2ff9","5f60ee75937bc101bfc31956","false","null","<div style=""align-items: center; display: flex; color: darkorange; font-size: 90px""><b>ø</b></div>","null","","","","forget_cue","","","","","","","","","","","","","","","",""
"html-keyboard-response","197","620037","0.0-4.0-1.0-0.27","vglugqa962s05jv","prime","5f0e3a84e586ab0009037c9e","5f60e3c0a3b16e07647b2ff9","5f60ee75937bc101bfc31956","false","null","<span style=""color: black; font-size: 48px"">M + N</span>","null","","","","resp_prompt","","","","","","","","","","","","","","","",""
"categorize-image","198","620802","0.0-4.0-1.0-1.27","vglugqa962s05jv","prime","5f0e3a84e586ab0009037c9e","5f60e3c0a3b16e07647b2ff9","5f60ee75937bc101bfc31956","true","761.7050000001909","./Stimuli/SelectedImages/LN/LN111.bmp","76","","","","test","true","M + N","76","repetition","LN","LN111.bmp","remember","","76","3","prime1","right","","","",""
"html-keyboard-response","199","622803","0.0-4.0-1.0-3.27","vglugqa962s05jv","prime","5f0e3a84e586ab0009037c9e","5f60e3c0a3b16e07647b2ff9","5f60ee75937bc101bfc31956","false","null","<div style=""align-items: center; display: flex; color: dodgerblue; font-size: 90px""><b>o</b></div>","null","","","","forget_cue","","","","","","","","","","","","","","","",""
"html-keyboard-response","200","623505","0.0-4.0-1.0-0.28","vglugqa962s05jv","prime","5f0e3a84e586ab0009037c9e","5f60e3c0a3b16e07647b2ff9","5f60ee75937bc101bfc31956","false","null","<span style=""color: black; font-size: 48px"">M + N</span>","null","","","","resp_prompt","","","","","","","","","","","","","","","",""
"categorize-image","201","624648","0.0-4.0-1.0-1.28","vglugqa962s05jv","prime","5f0e3a84e586ab0009037c9e","5f60e3c0a3b16e07647b2ff9","5f60ee75937bc101bfc31956","true","1140.505000000121","./Stimuli/SelectedImages/LM/LM209.bmp","83","","","","test","true","M + N","83","repetition","LM","LM209.bmp","remember","","77","3","prime1","left","","","",""
"html-keyboard-response","202","626664","0.0-4.0-1.0-3.28","vglugqa962s05jv","prime","5f0e3a84e586ab0009037c9e","5f60e3c0a3b16e07647b2ff9","5f60ee75937bc101bfc31956","false","null","<div style=""align-items: center; display: flex; color: dodgerblue; font-size: 90px""><b>o</b></div>","null","","","","forget_cue","","","","","","","","","","","","","","","",""
"html-keyboard-response","203","627365","0.0-4.0-1.0-0.29","vglugqa962s05jv","prime","5f0e3a84e586ab0009037c9e","5f60e3c0a3b16e07647b2ff9","5f60ee75937bc101bfc31956","false","null","<span style=""color: black; font-size: 48px"">N + M</span>","null","","","","resp_prompt","","","","","","","","","","","","","","","",""
"categorize-image","204","628283","0.0-4.0-1.0-1.29","vglugqa962s05jv","prime","5f0e3a84e586ab0009037c9e","5f60e3c0a3b16e07647b2ff9","5f60ee75937bc101bfc31956","true","914.125","./Stimuli/SelectedImages/LM/LM216.bmp","76","","","","test","true","N + M","76","switch","LM","LM216.bmp","remember","","78","3","prime1","right","","","",""
"html-keyboard-response","205","630291","0.0-4.0-1.0-3.29","vglugqa962s05jv","prime","5f0e3a84e586ab0009037c9e","5f60e3c0a3b16e07647b2ff9","5f60ee75937bc101bfc31956","false","null","<div style=""align-items: center; display: flex; color: dodgerblue; font-size: 90px""><b>o</b></div>","null","","","","forget_cue","","","","","","","","","","","","","","","",""
"html-keyboard-response","206","630992","0.0-4.0-1.0-0.30","vglugqa962s05jv","prime","5f0e3a84e586ab0009037c9e","5f60e3c0a3b16e07647b2ff9","5f60ee75937bc101bfc31956","false","null","<span style=""color: black; font-size: 48px"">N + M</span>","null","","","","resp_prompt","","","","","","","","","","","","","","","",""
"categorize-image","207","631866","0.0-4.0-1.0-1.30","vglugqa962s05jv","prime","5f0e3a84e586ab0009037c9e","5f60e3c0a3b16e07647b2ff9","5f60ee75937bc101bfc31956","true","870.5950000000885","./Stimuli/SelectedImages/LN/LN166.bmp","83","","","","test","true","N + M","83","repetition","LN","LN166.bmp","forget","","79","3","prime1","left","","","",""
"html-keyboard-response","208","633873","0.0-4.0-1.0-3.30","vglugqa962s05jv","prime","5f0e3a84e586ab0009037c9e","5f60e3c0a3b16e07647b2ff9","5f60ee75937bc101bfc31956","false","null","<div style=""align-items: center; display: flex; color: darkorange; font-size: 90px""><b>ø</b></div>","null","","","","forget_cue","","","","","","","","","","","","","","","",""
"html-keyboard-response","209","634575","0.0-4.0-1.0-0.31","vglugqa962s05jv","prime","5f0e3a84e586ab0009037c9e","5f60e3c0a3b16e07647b2ff9","5f60ee75937bc101bfc31956","false","null","<span style=""color: black; font-size: 48px"">M + N</span>","null","","","","resp_prompt","","","","","","","","","","","","","","","",""
"categorize-image","210","635793","0.0-4.0-1.0-1.31","vglugqa962s05jv","prime","5f0e3a84e586ab0009037c9e","5f60e3c0a3b16e07647b2ff9","5f60ee75937bc101bfc31956","true","1216.3499999999767","./Stimuli/SelectedImages/LM/LM167.bmp","83","","","","test","true","M + N","83","switch","LM","LM167.bmp","forget","","80","3","prime1","left","","","",""
"html-keyboard-response","211","637800","0.0-4.0-1.0-3.31","vglugqa962s05jv","prime","5f0e3a84e586ab0009037c9e","5f60e3c0a3b16e07647b2ff9","5f60ee75937bc101bfc31956","false","null","<div style=""align-items: center; display: flex; color: darkorange; font-size: 90px""><b>ø</b></div>","null","","","","forget_cue","","","","","","","","","","","","","","","",""
"html-keyboard-response","212","638514","0.0-4.0-1.0-0.32","vglugqa962s05jv","prime","5f0e3a84e586ab0009037c9e","5f60e3c0a3b16e07647b2ff9","5f60ee75937bc101bfc31956","false","null","<span style=""color: black; font-size: 48px"">N + M</span>","null","","","","resp_prompt","","","","","","","","","","","","","","","",""
"categorize-image","213","639242","0.0-4.0-1.0-1.32","vglugqa962s05jv","prime","5f0e3a84e586ab0009037c9e","5f60e3c0a3b16e07647b2ff9","5f60ee75937bc101bfc31956","true","725.2150000002002","./Stimuli/SelectedImages/SM/SM200.bmp","76","","","","test","true","N + M","76","switch","SM","SM200.bmp","remember","","81","3","prime1","right","","","",""
"html-keyboard-response","214","641256","0.0-4.0-1.0-3.32","vglugqa962s05jv","prime","5f0e3a84e586ab0009037c9e","5f60e3c0a3b16e07647b2ff9","5f60ee75937bc101bfc31956","false","null","<div style=""align-items: center; display: flex; color: dodgerblue; font-size: 90px""><b>o</b></div>","null","","","","forget_cue","","","","","","","","","","","","","","","",""
"html-keyboard-response","215","641972","0.0-4.0-1.0-0.33","vglugqa962s05jv","prime","5f0e3a84e586ab0009037c9e","5f60e3c0a3b16e07647b2ff9","5f60ee75937bc101bfc31956","false","null","<span style=""color: black; font-size: 48px"">M + N</span>","null","","","","resp_prompt","","","","","","","","","","","","","","","",""
"categorize-image","216","642709","0.0-4.0-1.0-1.33","vglugqa962s05jv","prime","5f0e3a84e586ab0009037c9e","5f60e3c0a3b16e07647b2ff9","5f60ee75937bc101bfc31956","true","733.2150000002002","./Stimuli/SelectedImages/SM/SM213.bmp","83","","","","test","true","M + N","83","switch","SM","SM213.bmp","remember","","82","3","prime1","left","","","",""
"html-keyboard-response","217","644711","0.0-4.0-1.0-3.33","vglugqa962s05jv","prime","5f0e3a84e586ab0009037c9e","5f60e3c0a3b16e07647b2ff9","5f60ee75937bc101bfc31956","false","null","<div style=""align-items: center; display: flex; color: dodgerblue; font-size: 90px""><b>o</b></div>","null","","","","forget_cue","","","","","","","","","","","","","","","",""
"html-keyboard-response","218","645422","0.0-4.0-1.0-0.34","vglugqa962s05jv","prime","5f0e3a84e586ab0009037c9e","5f60e3c0a3b16e07647b2ff9","5f60ee75937bc101bfc31956","false","null","<span style=""color: black; font-size: 48px"">M + N</span>","null","","","","resp_prompt","","","","","","","","","","","","","","","",""
"categorize-image","219","646597","0.0-4.0-1.0-1.34","vglugqa962s05jv","prime","5f0e3a84e586ab0009037c9e","5f60e3c0a3b16e07647b2ff9","5f60ee75937bc101bfc31956","true","1172.2249999999767","./Stimuli/SelectedImages/SN/SN64.bmp","76","","","","test","true","M + N","76","repetition","SN","SN64.bmp","forget","","83","3","prime1","right","","","",""
"html-keyboard-response","220","648612","0.0-4.0-1.0-3.34","vglugqa962s05jv","prime","5f0e3a84e586ab0009037c9e","5f60e3c0a3b16e07647b2ff9","5f60ee75937bc101bfc31956","false","null","<div style=""align-items: center; display: flex; color: darkorange; font-size: 90px""><b>ø</b></div>","null","","","","forget_cue","","","","","","","","","","","","","","","",""
"html-keyboard-response","221","649313","0.0-4.0-1.0-0.35","vglugqa962s05jv","prime","5f0e3a84e586ab0009037c9e","5f60e3c0a3b16e07647b2ff9","5f60ee75937bc101bfc31956","false","null","<span style=""color: black; font-size: 48px"">M + N</span>","null","","","","resp_prompt","","","","","","","","","","","","","","","",""
"categorize-image","222","650323","0.0-4.0-1.0-1.35","vglugqa962s05jv","prime","5f0e3a84e586ab0009037c9e","5f60e3c0a3b16e07647b2ff9","5f60ee75937bc101bfc31956","true","1007.2800000000279","./Stimuli/SelectedImages/SN/SN155.bmp","76","","","","test","true","M + N","76","repetition","SN","SN155.bmp","remember","","84","3","prime1","right","","","",""
"html-keyboard-response","223","652330","0.0-4.0-1.0-3.35","vglugqa962s05jv","prime","5f0e3a84e586ab0009037c9e","5f60e3c0a3b16e07647b2ff9","5f60ee75937bc101bfc31956","false","null","<div style=""align-items: center; display: flex; color: dodgerblue; font-size: 90px""><b>o</b></div>","null","","","","forget_cue","","","","","","","","","","","","","","","",""
"html-keyboard-response","224","653031","0.0-4.0-1.0-0.36","vglugqa962s05jv","prime","5f0e3a84e586ab0009037c9e","5f60e3c0a3b16e07647b2ff9","5f60ee75937bc101bfc31956","false","null","<span style=""color: black; font-size: 48px"">N + M</span>","null","","","","resp_prompt","","","","","","","","","","","","","","","",""
"categorize-image","225","653842","0.0-4.0-1.0-1.36","vglugqa962s05jv","prime","5f0e3a84e586ab0009037c9e","5f60e3c0a3b16e07647b2ff9","5f60ee75937bc101bfc31956","true","808.6849999999395","./Stimuli/SelectedImages/SN/SN93.bmp","83","","","","test","true","N + M","83","switch","SN","SN93.bmp","forget","","85","3","prime1","left","","","",""
"html-keyboard-response","226","655847","0.0-4.0-1.0-3.36","vglugqa962s05jv","prime","5f0e3a84e586ab0009037c9e","5f60e3c0a3b16e07647b2ff9","5f60ee75937bc101bfc31956","false","null","<div style=""align-items: center; display: flex; color: darkorange; font-size: 90px""><b>ø</b></div>","null","","","","forget_cue","","","","","","","","","","","","","","","",""
"html-keyboard-response","227","656562","0.0-4.0-1.0-0.37","vglugqa962s05jv","prime","5f0e3a84e586ab0009037c9e","5f60e3c0a3b16e07647b2ff9","5f60ee75937bc101bfc31956","false","null","<span style=""color: black; font-size: 48px"">M + N</span>","null","","","","resp_prompt","","","","","","","","","","","","","","","",""
"categorize-image","228","657986","0.0-4.0-1.0-1.37","vglugqa962s05jv","prime","5f0e3a84e586ab0009037c9e","5f60e3c0a3b16e07647b2ff9","5f60ee75937bc101bfc31956","true","1420.6450000000186","./Stimuli/SelectedImages/LM/LM48.bmp","83","","","","test","true","M + N","83","switch","LM","LM48.bmp","remember","","86","3","prime1","left","","","",""
"html-keyboard-response","229","659998","0.0-4.0-1.0-3.37","vglugqa962s05jv","prime","5f0e3a84e586ab0009037c9e","5f60e3c0a3b16e07647b2ff9","5f60ee75937bc101bfc31956","false","null","<div style=""align-items: center; display: flex; color: dodgerblue; font-size: 90px""><b>o</b></div>","null","","","","forget_cue","","","","","","","","","","","","","","","",""
"html-keyboard-response","230","660711","0.0-4.0-1.0-0.38","vglugqa962s05jv","prime","5f0e3a84e586ab0009037c9e","5f60e3c0a3b16e07647b2ff9","5f60ee75937bc101bfc31956","false","null","<span style=""color: black; font-size: 48px"">N + M</span>","null","","","","resp_prompt","","","","","","","","","","","","","","","",""
"categorize-image","231","661555","0.0-4.0-1.0-1.38","vglugqa962s05jv","prime","5f0e3a84e586ab0009037c9e","5f60e3c0a3b16e07647b2ff9","5f60ee75937bc101bfc31956","true","840.6299999998882","./Stimuli/SelectedImages/SN/SN52.bmp","83","","","","test","true","N + M","83","switch","SN","SN52.bmp","remember","","87","3","prime1","left","","","",""
"html-keyboard-response","232","663562","0.0-4.0-1.0-3.38","vglugqa962s05jv","prime","5f0e3a84e586ab0009037c9e","5f60e3c0a3b16e07647b2ff9","5f60ee75937bc101bfc31956","false","null","<div style=""align-items: center; display: flex; color: dodgerblue; font-size: 90px""><b>o</b></div>","null","","","","forget_cue","","","","","","","","","","","","","","","",""
"html-keyboard-response","233","664263","0.0-4.0-1.0-0.39","vglugqa962s05jv","prime","5f0e3a84e586ab0009037c9e","5f60e3c0a3b16e07647b2ff9","5f60ee75937bc101bfc31956","false","null","<span style=""color: black; font-size: 48px"">M + N</span>","null","","","","resp_prompt","","","","","","","","","","","","","","","",""
"categorize-image","234","665148","0.0-4.0-1.0-1.39","vglugqa962s05jv","prime","5f0e3a84e586ab0009037c9e","5f60e3c0a3b16e07647b2ff9","5f60ee75937bc101bfc31956","true","881.0549999999348","./Stimuli/SelectedImages/SM/SM108.bmp","83","","","","test","true","M + N","83","repetition","SM","SM108.bmp","remember","","88","3","prime1","left","","","",""
"html-keyboard-response","235","667155","0.0-4.0-1.0-3.39","vglugqa962s05jv","prime","5f0e3a84e586ab0009037c9e","5f60e3c0a3b16e07647b2ff9","5f60ee75937bc101bfc31956","false","null","<div style=""align-items: center; display: flex; color: dodgerblue; font-size: 90px""><b>o</b></div>","null","","","","forget_cue","","","","","","","","","","","","","","","",""
"html-keyboard-response","236","667856","0.0-4.0-1.0-0.40","vglugqa962s05jv","prime","5f0e3a84e586ab0009037c9e","5f60e3c0a3b16e07647b2ff9","5f60ee75937bc101bfc31956","false","null","<span style=""color: black; font-size: 48px"">N + M</span>","null","","","","resp_prompt","","","","","","","","","","","","","","","",""
"categorize-image","237","668664","0.0-4.0-1.0-1.40","vglugqa962s05jv","prime","5f0e3a84e586ab0009037c9e","5f60e3c0a3b16e07647b2ff9","5f60ee75937bc101bfc31956","true","804.1499999999069","./Stimuli/SelectedImages/LM/LM75.bmp","76","","","","test","true","N + M","76","repetition","LM","LM75.bmp","forget","","89","3","prime1","right","","","",""
"html-keyboard-response","238","670672","0.0-4.0-1.0-3.40","vglugqa962s05jv","prime","5f0e3a84e586ab0009037c9e","5f60e3c0a3b16e07647b2ff9","5f60ee75937bc101bfc31956","false","null","<div style=""align-items: center; display: flex; color: darkorange; font-size: 90px""><b>ø</b></div>","null","","","","forget_cue","","","","","","","","","","","","","","","",""
"html-keyboard-response","239","671385","0.0-4.0-1.0-0.41","vglugqa962s05jv","prime","5f0e3a84e586ab0009037c9e","5f60e3c0a3b16e07647b2ff9","5f60ee75937bc101bfc31956","false","null","<span style=""color: black; font-size: 48px"">N + M</span>","null","","","","resp_prompt","","","","","","","","","","","","","","","",""
"categorize-image","240","672091","0.0-4.0-1.0-1.41","vglugqa962s05jv","prime","5f0e3a84e586ab0009037c9e","5f60e3c0a3b16e07647b2ff9","5f60ee75937bc101bfc31956","true","702.9749999999767","./Stimuli/SelectedImages/LN/LN59.bmp","83","","","","test","true","N + M","83","switch","LN","LN59.bmp","forget","","90","3","prime1","left","","","",""
"html-keyboard-response","241","674104","0.0-4.0-1.0-3.41","vglugqa962s05jv","prime","5f0e3a84e586ab0009037c9e","5f60e3c0a3b16e07647b2ff9","5f60ee75937bc101bfc31956","false","null","<div style=""align-items: center; display: flex; color: darkorange; font-size: 90px""><b>ø</b></div>","null","","","","forget_cue","","","","","","","","","","","","","","","",""
"html-keyboard-response","242","674815","0.0-4.0-1.0-0.42","vglugqa962s05jv","prime","5f0e3a84e586ab0009037c9e","5f60e3c0a3b16e07647b2ff9","5f60ee75937bc101bfc31956","false","null","<span style=""color: black; font-size: 48px"">N + M</span>","null","","","","resp_prompt","","","","","","","","","","","","","","","",""
"categorize-image","243","675889","0.0-4.0-1.0-1.42","vglugqa962s05jv","prime","5f0e3a84e586ab0009037c9e","5f60e3c0a3b16e07647b2ff9","5f60ee75937bc101bfc31956","true","1070.079999999958","./Stimuli/SelectedImages/SN/SN49.bmp","83","","","","test","true","N + M","83","repetition","SN","SN49.bmp","forget","","91","3","prime1","left","","","",""
"html-keyboard-response","244","677893","0.0-4.0-1.0-3.42","vglugqa962s05jv","prime","5f0e3a84e586ab0009037c9e","5f60e3c0a3b16e07647b2ff9","5f60ee75937bc101bfc31956","false","null","<div style=""align-items: center; display: flex; color: darkorange; font-size: 90px""><b>ø</b></div>","null","","","","forget_cue","","","","","","","","","","","","","","","",""
"html-keyboard-response","245","678606","0.0-4.0-1.0-0.43","vglugqa962s05jv","prime","5f0e3a84e586ab0009037c9e","5f60e3c0a3b16e07647b2ff9","5f60ee75937bc101bfc31956","false","null","<span style=""color: black; font-size: 48px"">M + N</span>","null","","","","resp_prompt","","","","","","","","","","","","","","","",""
"categorize-image","246","679281","0.0-4.0-1.0-1.43","vglugqa962s05jv","prime","5f0e3a84e586ab0009037c9e","5f60e3c0a3b16e07647b2ff9","5f60ee75937bc101bfc31956","true","671.9899999999907","./Stimuli/SelectedImages/LM/LM179.bmp","83","","","","test","true","M + N","83","repetition","LM","LM179.bmp","forget","","92","3","prime1","left","","","",""
"html-keyboard-response","247","681296","0.0-4.0-1.0-3.43","vglugqa962s05jv","prime","5f0e3a84e586ab0009037c9e","5f60e3c0a3b16e07647b2ff9","5f60ee75937bc101bfc31956","false","null","<div style=""align-items: center; display: flex; color: darkorange; font-size: 90px""><b>ø</b></div>","null","","","","forget_cue","","","","","","","","","","","","","","","",""
"html-keyboard-response","248","682005","0.0-4.0-1.0-0.44","vglugqa962s05jv","prime","5f0e3a84e586ab0009037c9e","5f60e3c0a3b16e07647b2ff9","5f60ee75937bc101bfc31956","false","null","<span style=""color: black; font-size: 48px"">M + N</span>","null","","","","resp_prompt","","","","","","","","","","","","","","","",""
"categorize-image","249","682635","0.0-4.0-1.0-1.44","vglugqa962s05jv","prime","5f0e3a84e586ab0009037c9e","5f60e3c0a3b16e07647b2ff9","5f60ee75937bc101bfc31956","true","626.8800000000047","./Stimuli/SelectedImages/SM/SM78.bmp","83","","","","test","true","M + N","83","switch","SM","SM78.bmp","forget","","93","3","prime1","left","","","",""
"html-keyboard-response","250","684637","0.0-4.0-1.0-3.44","vglugqa962s05jv","prime","5f0e3a84e586ab0009037c9e","5f60e3c0a3b16e07647b2ff9","5f60ee75937bc101bfc31956","false","null","<div style=""align-items: center; display: flex; color: darkorange; font-size: 90px""><b>ø</b></div>","null","","","","forget_cue","","","","","","","","","","","","","","","",""
"html-keyboard-response","251","685350","0.0-4.0-1.0-0.45","vglugqa962s05jv","prime","5f0e3a84e586ab0009037c9e","5f60e3c0a3b16e07647b2ff9","5f60ee75937bc101bfc31956","false","null","<span style=""color: black; font-size: 48px"">N + M</span>","null","","","","resp_prompt","","","","","","","","","","","","","","","",""
"categorize-image","252","686232","0.0-4.0-1.0-1.45","vglugqa962s05jv","prime","5f0e3a84e586ab0009037c9e","5f60e3c0a3b16e07647b2ff9","5f60ee75937bc101bfc31956","true","878.1900000000605","./Stimuli/SelectedImages/SN/SN18.bmp","83","","","","test","true","N + M","83","switch","SN","SN18.bmp","forget","","94","3","prime1","left","","","",""
