"trial_type","trial_index","time_elapsed","internal_node_id","subject","exp_part","prolific_PID","study_ID","session_ID","use","rt","stimulus","key_press","button_pressed","responses","question_order","trial_part","correct","resp_map","correct_resp","probe_condition","category","image","forget_condition","list","trial_num","block_num","block","response","test_part","n_span","sequence","num_spaces"
"pavlovia","0","10","0.0-0.0","4rfj18p1em2nweu","","5c5a19299404f10001ff8cbf","5f60e3c0a3b16e07647b2ff9","5f638038b2bd45069e4214c0","false","","","","","","","","","","","","","","","","","","","","","","",""
"html-keyboard-response","1","238787","0.0-1.0-0.0-0.0","4rfj18p1em2nweu","welcome","5c5a19299404f10001ff8cbf","5f60e3c0a3b16e07647b2ff9","5f638038b2bd45069e4214c0","false","238776.59000002313","<div align=left>Dear participant, <br> thank you for participating in an online study of the Cognition, Action, and Sustainability Unit of the University of Freiburg! <br> <br>The aim of this study is to examine our ability to remember previously learned information. <br>Our goal is to find out, whether our memory improves, when we only remember information that is relevant to us. <br>The experiment will take about 35 minutes to complete. <br> <br>Please, note that you can only participate in this study if you are using a device with a keyboard (PC, Laptop etc.) <br>and not if you are using a mobile device such as a tablet or smartphone.<br> <br>Press 'SPACE' to proceed to the experiment. </div>","32","","","","","","","","","","","","","","","","","","","",""
"html-keyboard-response","2","243234","0.0-1.0-0.0-1.0","4rfj18p1em2nweu","welcome","5c5a19299404f10001ff8cbf","5f60e3c0a3b16e07647b2ff9","5f638038b2bd45069e4214c0","false","4441.094999900088","<div align=left><strong> Time Course of this experiment: </strong> <br><br> <strong> 1.</strong>  First, please fill in some information regarding your demographic data. <br><br> <strong> 2.</strong>  Next, your task will be to classify everyday objects. <br>In addition, you will be asked to remember certain objects and recall them later. <br>Working on these tasks requires your undivided attention and concentration.<br>It is therefore essential that you eliminate any sources of distraction in your  <br>environment and ensure that you will not be disturbed. <br><br><strong> 3.</strong>  At the end of the experiment, you will be asked to answer a few additional questions. <br> <br><strong> Important:</strong> After finishing the experiment, only close the browser window <br> by clicking on the 'end the experiment'-button when you are asked to do so. <br>Closing the browser window prematurely will make the allocation of your participation credit impossible. <br><br> Press 'SPACE' to start the experiment. </div>","32","","","","","","","","","","","","","","","","","","","",""
"html-button-response","3","245097","0.0-1.0-0.0-2.0","4rfj18p1em2nweu","welcome","5c5a19299404f10001ff8cbf","5f60e3c0a3b16e07647b2ff9","5f638038b2bd45069e4214c0","true","1859.074999927543","<div align=left><strong> Informed consent </strong>  <br>The aim of our research is to better understand human behavior and mental processes. <br>In the following study your behavior (e.g. choices, reaction times) will be studied. <br> <br><strong> Voluntariness and Anonymity </strong> <br>Your participation in this study is  <strong> voluntary</strong>.<br>You may withdraw your consent to participate at any time without providing a reason for doing so and without fear of prejudice. <br><br>As no personal data will be collected, <strong>your data and your person cannot be connected after data collection</strong> – the data-set is anonymous. <br>Respectively, deletion of your data will not be possible after data collection has been completed, as we cannot retrace your data-set.<br>The results and anonymized data collected in this study will be published as a scientific publication. <br>This will happen in an <strong>anonymized format</strong>, so that no data can be traced back to a specific person. <br> <br>The anonymized data of this study will be made available to other researchers and/or in a data archive on the Internet as a means of transparency and to enable subsequent re-use. By doing so, this study follows the recommendations of the Deutsche Forschungsgemeinschaft (DFG, German Research Foundation) and Deutsche Gesellschaft für Psychologie (DGPS, German Psychological Society) regarding quality assurance in research.<br>If you have any questions now or after the experiment, please contact our team (experiments@cs.uni-freiburg.de).<br><br><br>I hereby declare, that I understand the above described conditions of participation and I agree to participate under these conditions. <br><br> </div>","","0","","","","","","","","","","","","","","","","","","",""
"html-keyboard-response","4","246276","0.0-1.0-0.0-3.0","4rfj18p1em2nweu","welcome","5c5a19299404f10001ff8cbf","5f60e3c0a3b16e07647b2ff9","5f638038b2bd45069e4214c0","false","1175.8949999930337","<div align=left><strong> General information concerning the experiment </strong>  <br> <br>Please follow the instructions:<ol> <li><strong> Do not leave this tab (your browser window) during the experiment and do not reload this tab! </strong>  <br>If you do switch tabs/windows during the experiment (to check your mail or visit another website, for example), <br>the experiment will end automatically and you will <strong>not receive credit</strong> for your participation. <br>Repeated participation or resumption of the experiment is impossible.</li> <br><li>Please close all other programs for the duration of your participation. </li> <br><li>Please mute or turn off your phone and put it out of your reach. </li> <br><li>Please also take off any disturbing accessories (such as wristwatches, bracelets, etc.). </li> <br><li>If you have music playing in the background, please turn it off now. </li> <br></ol>Thank you! <br>Press 'SPACE' to continue. </div>","32","","","","","","","","","","","","","","","","","","","",""
"survey-text","5","248960","0.0-1.0-1.0-0.0","4rfj18p1em2nweu","demographics","5c5a19299404f10001ff8cbf","5f60e3c0a3b16e07647b2ff9","5f638038b2bd45069e4214c0","true","2675.7699999725446","","","","{""age"":""20""}","","","","","","","","","","","","","","","","","",""
"survey-multi-choice","6","259581","0.0-1.0-1.0-1.0","4rfj18p1em2nweu","demographics","5c5a19299404f10001ff8cbf","5f60e3c0a3b16e07647b2ff9","5f638038b2bd45069e4214c0","true","10618.475000024773","","","","{""gender"":""male"",""school"":""high school"",""education"":""High school graduate, diploma or equivalent""}","[0,1,2]","","","","","","","","","","","","","","","","",""
"html-keyboard-response","7","267039","0.0-1.0-2.0","4rfj18p1em2nweu","instructions","5c5a19299404f10001ff8cbf","5f60e3c0a3b16e07647b2ff9","5f638038b2bd45069e4214c0","false","7454.600000055507","<div align=left> The experiment is now about to start: <br> <br>In the following part, you will be presented pictures of everyday objects. <br>Your first task is to <strong>classify these objects. </strong> <br> <br> You will classify them either as mechanical or non-mechanical objects. <br> <br>Objects that include any kind of technical mechanism (for example, wheels, switches, levers, <br> electronic components) fall under the category of <strong>mechanical</strong> objects. <br>Only objects without any kind of technical mechanism should be classified as <strong>non-mechanical</strong>. <br><br>Press 'SPACE' to continue. </div>","32","","","","","","","","","","","","","","","","","","","",""
"html-keyboard-response","8","283545","0.0-2.0-0.0","4rfj18p1em2nweu","instructions","5c5a19299404f10001ff8cbf","5f60e3c0a3b16e07647b2ff9","5f638038b2bd45069e4214c0","false","16502.435000031255","<div align=justify>You will classify the objects using the <strong>'S'</strong> and the <strong>'L'</strong> keys on your keyboard.<br>For doing so, please place your <strong>left index finger</strong> on the <strong>'S'</strong> key and place your <strong>right index finger</strong> on the <strong>'L'</strong> key. <br><br> Each trial starts with an instruction, indicating which key ('S'/'L') you need to press to classify <br>the object as mechanical (letter M) or non-mechanical (letter N).<br>The instruction <strong>M + N</strong> indicates that, in the current trial, by pressing the left key ('S') you classify the displayed object as mechanical (M) <br> and by pressing the right key ('L') you classify the object as non-mechanical (N). <br>The instruction <strong>N + M</strong> on the other hand indicates that by pressing the left key ('S') you classify the displayed object as non-mechanical (N) <br> and by pressing the right key ('L') you classify the object as mechanical (M). <br><br>Please press the key corresponding to the correct classification as fast as possible as soon as the object is displayed and try to avoid making mistakes.<br>If you do not respond within a 2 second window, a corresponding feedback will be displayed and the next trial will start.<br> The experiment is divided into multiple blocks to give you the opportunity to take a break after each block. <br>First, you can now practice this task. <br><br>Please place your <strong>LEFT INDEX FINGER</strong> on the 'S' key and your <strong>RIGHT INDEX FINGER</strong> on the 'L' key now. <br><br>Press SPACE to continue.</div>","32","","","","","","","","","","","","","","","","","","","",""
"html-keyboard-response","9","289521","0.0-2.0-1.0","4rfj18p1em2nweu","instructions","5c5a19299404f10001ff8cbf","5f60e3c0a3b16e07647b2ff9","5f638038b2bd45069e4214c0","false","5972.940000006929","<div align=left> You will now have time to practice this task.<br><br>Remember: <br> <br><li>Please place your index fingers on the <strong>'S'</strong> and <strong>'L'</strong> keys <br>to respond as fast and accurately as possible.</li><li>Every picture can be classified as either mechanical or non-mechanical.</li><li>If you do not respond in time or commit an error, you will receive a corresponding feedback. </li><li> Please try to respond as <strong> fast </strong> and as <strong> accurately as possible </strong> .<br><li>To ensure optimal results, please minimize distractions and stay focused. </li><br><br>Press SPACE to continue.</div>","32","","","","","","","","","","","","","","","","","","","",""
"html-keyboard-response","10","290235","0.0-2.0-2.0-0.0","4rfj18p1em2nweu","practice_no_cue","5c5a19299404f10001ff8cbf","5f60e3c0a3b16e07647b2ff9","5f638038b2bd45069e4214c0","false","null","<span style=""color: black; font-size: 48px"">M + N</span>","null","","","","resp_prompt","","","","","","","","","","","","","","","",""
"categorize-image","11","292411","0.0-2.0-2.0-1.0","4rfj18p1em2nweu","practice_no_cue","5c5a19299404f10001ff8cbf","5f60e3c0a3b16e07647b2ff9","5f638038b2bd45069e4214c0","true","1663.219999987632","./Stimuli/ImagesPractice/SM97.jpg","76","","","","test","false","M + N","83","","SM","SM97.jpg","forget","old","1","1","start","right","","","",""
"html-keyboard-response","12","293118","0.0-2.0-2.0-0.1","4rfj18p1em2nweu","practice_no_cue","5c5a19299404f10001ff8cbf","5f60e3c0a3b16e07647b2ff9","5f638038b2bd45069e4214c0","false","null","<span style=""color: black; font-size: 48px"">N + M</span>","null","","","","resp_prompt","","","","","","","","","","","","","","","",""
"categorize-image","13","294999","0.0-2.0-2.0-1.1","4rfj18p1em2nweu","practice_no_cue","5c5a19299404f10001ff8cbf","5f60e3c0a3b16e07647b2ff9","5f638038b2bd45069e4214c0","true","1377.8700000839308","./Stimuli/ImagesPractice/LM239.jpg","76","","","","test","true","N + M","76","","LM","LM239.jpg","remember","old","2","1","start","right","","","",""
"html-keyboard-response","14","295704","0.0-2.0-2.0-0.2","4rfj18p1em2nweu","practice_no_cue","5c5a19299404f10001ff8cbf","5f60e3c0a3b16e07647b2ff9","5f638038b2bd45069e4214c0","false","null","<span style=""color: black; font-size: 48px"">M + N</span>","null","","","","resp_prompt","","","","","","","","","","","","","","","",""
"categorize-image","15","297103","0.0-2.0-2.0-1.2","4rfj18p1em2nweu","practice_no_cue","5c5a19299404f10001ff8cbf","5f60e3c0a3b16e07647b2ff9","5f638038b2bd45069e4214c0","true","889.7299999371171","./Stimuli/ImagesPractice/SN222.jpg","76","","","","test","true","M + N","76","","SN","SN222.jpg","remember","old","3","1","start","right","","","",""
"html-keyboard-response","16","297809","0.0-2.0-2.0-0.3","4rfj18p1em2nweu","practice_no_cue","5c5a19299404f10001ff8cbf","5f60e3c0a3b16e07647b2ff9","5f638038b2bd45069e4214c0","false","null","<span style=""color: black; font-size: 48px"">M + N</span>","null","","","","resp_prompt","","","","","","","","","","","","","","","",""
"categorize-image","17","299301","0.0-2.0-2.0-1.3","4rfj18p1em2nweu","practice_no_cue","5c5a19299404f10001ff8cbf","5f60e3c0a3b16e07647b2ff9","5f638038b2bd45069e4214c0","true","980.7400000281632","./Stimuli/ImagesPractice/SM35.jpg","83","","","","test","true","M + N","83","","SM","SM35.jpg","remember","old","4","1","start","left","","","",""
"html-keyboard-response","18","300005","0.0-2.0-2.0-0.4","4rfj18p1em2nweu","practice_no_cue","5c5a19299404f10001ff8cbf","5f60e3c0a3b16e07647b2ff9","5f638038b2bd45069e4214c0","false","null","<span style=""color: black; font-size: 48px"">M + N</span>","null","","","","resp_prompt","","","","","","","","","","","","","","","",""
"categorize-image","19","301354","0.0-2.0-2.0-1.4","4rfj18p1em2nweu","practice_no_cue","5c5a19299404f10001ff8cbf","5f60e3c0a3b16e07647b2ff9","5f638038b2bd45069e4214c0","true","845.6800000276417","./Stimuli/ImagesPractice/SM98.jpg","83","","","","test","true","M + N","83","","SM","SM98.jpg","forget","old","5","1","start","left","","","",""
"html-keyboard-response","20","302060","0.0-2.0-2.0-0.5","4rfj18p1em2nweu","practice_no_cue","5c5a19299404f10001ff8cbf","5f60e3c0a3b16e07647b2ff9","5f638038b2bd45069e4214c0","false","null","<span style=""color: black; font-size: 48px"">M + N</span>","null","","","","resp_prompt","","","","","","","","","","","","","","","",""
"categorize-image","21","303316","0.0-2.0-2.0-1.5","4rfj18p1em2nweu","practice_no_cue","5c5a19299404f10001ff8cbf","5f60e3c0a3b16e07647b2ff9","5f638038b2bd45069e4214c0","true","750.5899999523535","./Stimuli/ImagesPractice/LN15.jpg","76","","","","test","true","M + N","76","","LN","LN15.jpg","forget","old","6","1","start","right","","","",""
"html-keyboard-response","22","304019","0.0-2.0-2.0-0.6","4rfj18p1em2nweu","practice_no_cue","5c5a19299404f10001ff8cbf","5f60e3c0a3b16e07647b2ff9","5f638038b2bd45069e4214c0","false","null","<span style=""color: black; font-size: 48px"">N + M</span>","null","","","","resp_prompt","","","","","","","","","","","","","","","",""
"categorize-image","23","305889","0.0-2.0-2.0-1.6","4rfj18p1em2nweu","practice_no_cue","5c5a19299404f10001ff8cbf","5f60e3c0a3b16e07647b2ff9","5f638038b2bd45069e4214c0","true","1363.0450000055134","./Stimuli/ImagesPractice/SN75.jpg","83","","","","test","true","N + M","83","","SN","SN75.jpg","remember","old","7","1","start","left","","","",""
"html-keyboard-response","24","306593","0.0-2.0-2.0-0.7","4rfj18p1em2nweu","practice_no_cue","5c5a19299404f10001ff8cbf","5f60e3c0a3b16e07647b2ff9","5f638038b2bd45069e4214c0","false","null","<span style=""color: black; font-size: 48px"">N + M</span>","null","","","","resp_prompt","","","","","","","","","","","","","","","",""
"categorize-image","25","308322","0.0-2.0-2.0-1.7","4rfj18p1em2nweu","practice_no_cue","5c5a19299404f10001ff8cbf","5f60e3c0a3b16e07647b2ff9","5f638038b2bd45069e4214c0","true","1218.5199999948964","./Stimuli/ImagesPractice/LN2.jpg","83","","","","test","true","N + M","83","","LN","LN2.jpg","forget","old","8","1","start","left","","","",""
"html-keyboard-response","26","309029","0.0-2.0-2.0-0.8","4rfj18p1em2nweu","practice_no_cue","5c5a19299404f10001ff8cbf","5f60e3c0a3b16e07647b2ff9","5f638038b2bd45069e4214c0","false","null","<span style=""color: black; font-size: 48px"">M + N</span>","null","","","","resp_prompt","","","","","","","","","","","","","","","",""
"categorize-image","27","310383","0.0-2.0-2.0-1.8","4rfj18p1em2nweu","practice_no_cue","5c5a19299404f10001ff8cbf","5f60e3c0a3b16e07647b2ff9","5f638038b2bd45069e4214c0","true","849.0900000324473","./Stimuli/ImagesPractice/SN220.jpg","76","","","","test","true","M + N","76","","SN","SN220.jpg","remember","old","9","1","start","right","","","",""
"html-keyboard-response","28","311089","0.0-2.0-2.0-0.9","4rfj18p1em2nweu","practice_no_cue","5c5a19299404f10001ff8cbf","5f60e3c0a3b16e07647b2ff9","5f638038b2bd45069e4214c0","false","null","<span style=""color: black; font-size: 48px"">M + N</span>","null","","","","resp_prompt","","","","","","","","","","","","","","","",""
"categorize-image","29","312370","0.0-2.0-2.0-1.9","4rfj18p1em2nweu","practice_no_cue","5c5a19299404f10001ff8cbf","5f60e3c0a3b16e07647b2ff9","5f638038b2bd45069e4214c0","true","775.5400000605732","./Stimuli/ImagesPractice/LN4.jpg","76","","","","test","true","M + N","76","","LN","LN4.jpg","remember","old","10","1","start","right","","","",""
"html-keyboard-response","30","313080","0.0-2.0-2.0-0.10","4rfj18p1em2nweu","practice_no_cue","5c5a19299404f10001ff8cbf","5f60e3c0a3b16e07647b2ff9","5f638038b2bd45069e4214c0","false","null","<span style=""color: black; font-size: 48px"">N + M</span>","null","","","","resp_prompt","","","","","","","","","","","","","","","",""
"categorize-image","31","314099","0.0-2.0-2.0-1.10","4rfj18p1em2nweu","practice_no_cue","5c5a19299404f10001ff8cbf","5f60e3c0a3b16e07647b2ff9","5f638038b2bd45069e4214c0","true","513.4300000499934","./Stimuli/ImagesPractice/LM147.jpg","83","","","","test","false","N + M","76","","LM","LM147.jpg","forget","old","11","1","start","left","","","",""
"html-keyboard-response","32","314801","0.0-2.0-2.0-0.11","4rfj18p1em2nweu","practice_no_cue","5c5a19299404f10001ff8cbf","5f60e3c0a3b16e07647b2ff9","5f638038b2bd45069e4214c0","false","null","<span style=""color: black; font-size: 48px"">N + M</span>","null","","","","resp_prompt","","","","","","","","","","","","","","","",""
"categorize-image","33","316069","0.0-2.0-2.0-1.11","4rfj18p1em2nweu","practice_no_cue","5c5a19299404f10001ff8cbf","5f60e3c0a3b16e07647b2ff9","5f638038b2bd45069e4214c0","true","763.1650000112131","./Stimuli/ImagesPractice/SN205.jpg","83","","","","test","true","N + M","83","","SN","SN205.jpg","remember","old","12","1","start","left","","","",""
"html-keyboard-response","34","316775","0.0-2.0-2.0-0.12","4rfj18p1em2nweu","practice_no_cue","5c5a19299404f10001ff8cbf","5f60e3c0a3b16e07647b2ff9","5f638038b2bd45069e4214c0","false","null","<span style=""color: black; font-size: 48px"">N + M</span>","null","","","","resp_prompt","","","","","","","","","","","","","","","",""
"categorize-image","35","318482","0.0-2.0-2.0-1.12","4rfj18p1em2nweu","practice_no_cue","5c5a19299404f10001ff8cbf","5f60e3c0a3b16e07647b2ff9","5f638038b2bd45069e4214c0","true","1198.4449999872595","./Stimuli/ImagesPractice/SN76.jpg","83","","","","test","true","N + M","83","","SN","SN76.jpg","forget","old","13","1","start","left","","","",""
"html-keyboard-response","36","319189","0.0-2.0-2.0-0.13","4rfj18p1em2nweu","practice_no_cue","5c5a19299404f10001ff8cbf","5f60e3c0a3b16e07647b2ff9","5f638038b2bd45069e4214c0","false","null","<span style=""color: black; font-size: 48px"">M + N</span>","null","","","","resp_prompt","","","","","","","","","","","","","","","",""
"categorize-image","37","320724","0.0-2.0-2.0-1.13","4rfj18p1em2nweu","practice_no_cue","5c5a19299404f10001ff8cbf","5f60e3c0a3b16e07647b2ff9","5f638038b2bd45069e4214c0","true","1025.3399999346584","./Stimuli/ImagesPractice/LM230.jpg","76","","","","test","false","M + N","83","","LM","LM230.jpg","forget","old","14","1","start","right","","","",""
"html-keyboard-response","38","321429","0.0-2.0-2.0-0.14","4rfj18p1em2nweu","practice_no_cue","5c5a19299404f10001ff8cbf","5f60e3c0a3b16e07647b2ff9","5f638038b2bd45069e4214c0","false","null","<span style=""color: black; font-size: 48px"">N + M</span>","null","","","","resp_prompt","","","","","","","","","","","","","","","",""
"categorize-image","39","323057","0.0-2.0-2.0-1.14","4rfj18p1em2nweu","practice_no_cue","5c5a19299404f10001ff8cbf","5f60e3c0a3b16e07647b2ff9","5f638038b2bd45069e4214c0","true","1118.9599999925122","./Stimuli/ImagesPractice/SM62.jpg","83","","","","test","false","N + M","76","","SM","SM62.jpg","remember","old","15","1","start","left","","","",""
"html-keyboard-response","40","323764","0.0-2.0-2.0-0.15","4rfj18p1em2nweu","practice_no_cue","5c5a19299404f10001ff8cbf","5f60e3c0a3b16e07647b2ff9","5f638038b2bd45069e4214c0","false","null","<span style=""color: black; font-size: 48px"">N + M</span>","null","","","","resp_prompt","","","","","","","","","","","","","","","",""
"categorize-image","41","325345","0.0-2.0-2.0-1.15","4rfj18p1em2nweu","practice_no_cue","5c5a19299404f10001ff8cbf","5f60e3c0a3b16e07647b2ff9","5f638038b2bd45069e4214c0","true","1066.7200000025332","./Stimuli/ImagesPractice/SM61.jpg","83","","","","test","false","N + M","76","","SM","SM61.jpg","forget","old","16","1","start","left","","","",""
"html-keyboard-response","42","330454","0.0-2.0-3.0","4rfj18p1em2nweu","break","5c5a19299404f10001ff8cbf","5f60e3c0a3b16e07647b2ff9","5f638038b2bd45069e4214c0","false","5102.840000065044","<p style='font-size: 32px;'>Break</><br><br><br><br><br><p style='font-size: 24px;'>In the last block, you committed 5 errors and did not respond in time on 0 trials.
</p><p style='font-size: 24px;'>Try to respond as fast and accurately as possible in the next block as well! </p><p style='font-size: 24px;'>Press SPACE to continue.</p>","32","","","","","","","","","","","","","","","","","","","",""
"html-keyboard-response","43","333623","0.0-2.0-4.0","4rfj18p1em2nweu","instructions","5c5a19299404f10001ff8cbf","5f60e3c0a3b16e07647b2ff9","5f638038b2bd45069e4214c0","false","3167.26999997627","<div align=left> Great!<br><br>Are you ready to continue?<br><br>If you want to reread the instructions and redo the practice trials, <br>please press „Z“. <br><br>Press SPACE to CONTINUE with the experiment when you are ready. </div>","90","","","","","","","","","","","","","","","","","","","",""
"html-keyboard-response","44","334703","0.0-2.1-0.1","4rfj18p1em2nweu","instructions","5c5a19299404f10001ff8cbf","5f60e3c0a3b16e07647b2ff9","5f638038b2bd45069e4214c0","false","1077.8400000417605","<div align=justify>You will classify the objects using the <strong>'S'</strong> and the <strong>'L'</strong> keys on your keyboard.<br>For doing so, please place your <strong>left index finger</strong> on the <strong>'S'</strong> key and place your <strong>right index finger</strong> on the <strong>'L'</strong> key. <br><br> Each trial starts with an instruction, indicating which key ('S'/'L') you need to press to classify <br>the object as mechanical (letter M) or non-mechanical (letter N).<br>The instruction <strong>M + N</strong> indicates that, in the current trial, by pressing the left key ('S') you classify the displayed object as mechanical (M) <br> and by pressing the right key ('L') you classify the object as non-mechanical (N). <br>The instruction <strong>N + M</strong> on the other hand indicates that by pressing the left key ('S') you classify the displayed object as non-mechanical (N) <br> and by pressing the right key ('L') you classify the object as mechanical (M). <br><br>Please press the key corresponding to the correct classification as fast as possible as soon as the object is displayed and try to avoid making mistakes.<br>If you do not respond within a 2 second window, a corresponding feedback will be displayed and the next trial will start.<br> The experiment is divided into multiple blocks to give you the opportunity to take a break after each block. <br>First, you can now practice this task. <br><br>Please place your <strong>LEFT INDEX FINGER</strong> on the 'S' key and your <strong>RIGHT INDEX FINGER</strong> on the 'L' key now. <br><br>Press SPACE to continue.</div>","32","","","","","","","","","","","","","","","","","","","",""
"html-keyboard-response","45","336899","0.0-2.1-1.1","4rfj18p1em2nweu","instructions","5c5a19299404f10001ff8cbf","5f60e3c0a3b16e07647b2ff9","5f638038b2bd45069e4214c0","false","2195.0500000966713","<div align=left> You will now have time to practice this task.<br><br>Remember: <br> <br><li>Please place your index fingers on the <strong>'S'</strong> and <strong>'L'</strong> keys <br>to respond as fast and accurately as possible.</li><li>Every picture can be classified as either mechanical or non-mechanical.</li><li>If you do not respond in time or commit an error, you will receive a corresponding feedback. </li><li> Please try to respond as <strong> fast </strong> and as <strong> accurately as possible </strong> .<br><li>To ensure optimal results, please minimize distractions and stay focused. </li><br><br>Press SPACE to continue.</div>","32","","","","","","","","","","","","","","","","","","","",""
"html-keyboard-response","46","337602","0.0-2.1-2.1-0.16","4rfj18p1em2nweu","practice_no_cue","5c5a19299404f10001ff8cbf","5f60e3c0a3b16e07647b2ff9","5f638038b2bd45069e4214c0","false","null","<span style=""color: black; font-size: 48px"">M + N</span>","null","","","","resp_prompt","","","","","","","","","","","","","","","",""
"categorize-image","47","338639","0.0-2.1-2.1-1.16","4rfj18p1em2nweu","practice_no_cue","5c5a19299404f10001ff8cbf","5f60e3c0a3b16e07647b2ff9","5f638038b2bd45069e4214c0","true","529.6950000338256","./Stimuli/ImagesPractice/SM97.jpg","83","","","","test","true","M + N","83","","SM","SM97.jpg","forget","old","17","2","practice_forget","left","","","",""
"html-keyboard-response","48","339341","0.0-2.1-2.1-0.17","4rfj18p1em2nweu","practice_no_cue","5c5a19299404f10001ff8cbf","5f60e3c0a3b16e07647b2ff9","5f638038b2bd45069e4214c0","false","null","<span style=""color: black; font-size: 48px"">M + N</span>","null","","","","resp_prompt","","","","","","","","","","","","","","","",""
"categorize-image","49","340276","0.0-2.1-2.1-1.17","4rfj18p1em2nweu","practice_no_cue","5c5a19299404f10001ff8cbf","5f60e3c0a3b16e07647b2ff9","5f638038b2bd45069e4214c0","true","431.02499993983656","./Stimuli/ImagesPractice/SM98.jpg","76","","","","test","false","M + N","83","","SM","SM98.jpg","forget","old","18","2","practice_forget","right","","","",""
"html-keyboard-response","50","340981","0.0-2.1-2.1-0.18","4rfj18p1em2nweu","practice_no_cue","5c5a19299404f10001ff8cbf","5f60e3c0a3b16e07647b2ff9","5f638038b2bd45069e4214c0","false","null","<span style=""color: black; font-size: 48px"">M + N</span>","null","","","","resp_prompt","","","","","","","","","","","","","","","",""
"categorize-image","51","342011","0.0-2.1-2.1-1.18","4rfj18p1em2nweu","practice_no_cue","5c5a19299404f10001ff8cbf","5f60e3c0a3b16e07647b2ff9","5f638038b2bd45069e4214c0","true","524.1350000724196","./Stimuli/ImagesPractice/SM35.jpg","83","","","","test","true","M + N","83","","SM","SM35.jpg","remember","old","19","2","practice_forget","left","","","",""
"html-keyboard-response","52","342714","0.0-2.1-2.1-0.19","4rfj18p1em2nweu","practice_no_cue","5c5a19299404f10001ff8cbf","5f60e3c0a3b16e07647b2ff9","5f638038b2bd45069e4214c0","false","null","<span style=""color: black; font-size: 48px"">N + M</span>","null","","","","resp_prompt","","","","","","","","","","","","","","","",""
"categorize-image","53","343778","0.0-2.1-2.1-1.19","4rfj18p1em2nweu","practice_no_cue","5c5a19299404f10001ff8cbf","5f60e3c0a3b16e07647b2ff9","5f638038b2bd45069e4214c0","true","555.2249999018386","./Stimuli/ImagesPractice/SN75.jpg","76","","","","test","false","N + M","83","","SN","SN75.jpg","remember","old","20","2","practice_forget","right","","","",""
"html-keyboard-response","54","344485","0.0-2.1-2.1-0.20","4rfj18p1em2nweu","practice_no_cue","5c5a19299404f10001ff8cbf","5f60e3c0a3b16e07647b2ff9","5f638038b2bd45069e4214c0","false","null","<span style=""color: black; font-size: 48px"">N + M</span>","null","","","","resp_prompt","","","","","","","","","","","","","","","",""
"categorize-image","55","345309","0.0-2.1-2.1-1.20","4rfj18p1em2nweu","practice_no_cue","5c5a19299404f10001ff8cbf","5f60e3c0a3b16e07647b2ff9","5f638038b2bd45069e4214c0","true","318.7350000953302","./Stimuli/ImagesPractice/SN76.jpg","83","","","","test","true","N + M","83","","SN","SN76.jpg","forget","old","21","2","practice_forget","left","","","",""
"html-keyboard-response","56","346016","0.0-2.1-2.1-0.21","4rfj18p1em2nweu","practice_no_cue","5c5a19299404f10001ff8cbf","5f60e3c0a3b16e07647b2ff9","5f638038b2bd45069e4214c0","false","null","<span style=""color: black; font-size: 48px"">N + M</span>","null","","","","resp_prompt","","","","","","","","","","","","","","","",""
"categorize-image","57","346909","0.0-2.1-2.1-1.21","4rfj18p1em2nweu","practice_no_cue","5c5a19299404f10001ff8cbf","5f60e3c0a3b16e07647b2ff9","5f638038b2bd45069e4214c0","true","386.82500005234033","./Stimuli/ImagesPractice/SN205.jpg","83","","","","test","true","N + M","83","","SN","SN205.jpg","remember","old","22","2","practice_forget","left","","","",""
"html-keyboard-response","58","347616","0.0-2.1-2.1-0.22","4rfj18p1em2nweu","practice_no_cue","5c5a19299404f10001ff8cbf","5f60e3c0a3b16e07647b2ff9","5f638038b2bd45069e4214c0","false","null","<span style=""color: black; font-size: 48px"">M + N</span>","null","","","","resp_prompt","","","","","","","","","","","","","","","",""
"categorize-image","59","348614","0.0-2.1-2.1-1.22","4rfj18p1em2nweu","practice_no_cue","5c5a19299404f10001ff8cbf","5f60e3c0a3b16e07647b2ff9","5f638038b2bd45069e4214c0","true","489.960000035353","./Stimuli/ImagesPractice/LN4.jpg","83","","","","test","false","M + N","76","","LN","LN4.jpg","remember","old","23","2","practice_forget","left","","","",""
"html-keyboard-response","60","349318","0.0-2.1-2.1-0.23","4rfj18p1em2nweu","practice_no_cue","5c5a19299404f10001ff8cbf","5f60e3c0a3b16e07647b2ff9","5f638038b2bd45069e4214c0","false","null","<span style=""color: black; font-size: 48px"">M + N</span>","null","","","","resp_prompt","","","","","","","","","","","","","","","",""
"categorize-image","61","350142","0.0-2.1-2.1-1.23","4rfj18p1em2nweu","practice_no_cue","5c5a19299404f10001ff8cbf","5f60e3c0a3b16e07647b2ff9","5f638038b2bd45069e4214c0","true","313.8749999925494","./Stimuli/ImagesPractice/SN222.jpg","83","","","","test","false","M + N","76","","SN","SN222.jpg","remember","old","24","2","practice_forget","left","","","",""
"html-keyboard-response","62","350852","0.0-2.1-2.1-0.24","4rfj18p1em2nweu","practice_no_cue","5c5a19299404f10001ff8cbf","5f60e3c0a3b16e07647b2ff9","5f638038b2bd45069e4214c0","false","null","<span style=""color: black; font-size: 48px"">M + N</span>","null","","","","resp_prompt","","","","","","","","","","","","","","","",""
"categorize-image","63","351854","0.0-2.1-2.1-1.24","4rfj18p1em2nweu","practice_no_cue","5c5a19299404f10001ff8cbf","5f60e3c0a3b16e07647b2ff9","5f638038b2bd45069e4214c0","true","495.4300000099465","./Stimuli/ImagesPractice/SN220.jpg","83","","","","test","false","M + N","76","","SN","SN220.jpg","remember","old","25","2","practice_forget","left","","","",""
"html-keyboard-response","64","352559","0.0-2.1-2.1-0.25","4rfj18p1em2nweu","practice_no_cue","5c5a19299404f10001ff8cbf","5f60e3c0a3b16e07647b2ff9","5f638038b2bd45069e4214c0","false","null","<span style=""color: black; font-size: 48px"">N + M</span>","null","","","","resp_prompt","","","","","","","","","","","","","","","",""
"categorize-image","65","353308","0.0-2.1-2.1-1.25","4rfj18p1em2nweu","practice_no_cue","5c5a19299404f10001ff8cbf","5f60e3c0a3b16e07647b2ff9","5f638038b2bd45069e4214c0","true","239.03499997686595","./Stimuli/ImagesPractice/LM239.jpg","83","","","","test","false","N + M","76","","LM","LM239.jpg","remember","old","26","2","practice_forget","left","","","",""
"html-keyboard-response","66","354016","0.0-2.1-2.1-0.26","4rfj18p1em2nweu","practice_no_cue","5c5a19299404f10001ff8cbf","5f60e3c0a3b16e07647b2ff9","5f638038b2bd45069e4214c0","false","null","<span style=""color: black; font-size: 48px"">N + M</span>","null","","","","resp_prompt","","","","","","","","","","","","","","","",""
"categorize-image","67","354534","0.0-2.1-2.1-1.26","4rfj18p1em2nweu","practice_no_cue","5c5a19299404f10001ff8cbf","5f60e3c0a3b16e07647b2ff9","5f638038b2bd45069e4214c0","true","12.285000062547624","./Stimuli/ImagesPractice/SM62.jpg","83","","","","test","false","N + M","76","","SM","SM62.jpg","remember","old","27","2","practice_forget","left","","","",""
"html-keyboard-response","68","355235","0.0-2.1-2.1-0.27","4rfj18p1em2nweu","practice_no_cue","5c5a19299404f10001ff8cbf","5f60e3c0a3b16e07647b2ff9","5f638038b2bd45069e4214c0","false","null","<span style=""color: black; font-size: 48px"">N + M</span>","null","","","","resp_prompt","","","","","","","","","","","","","","","",""
"categorize-image","69","355810","0.0-2.1-2.1-1.27","4rfj18p1em2nweu","practice_no_cue","5c5a19299404f10001ff8cbf","5f60e3c0a3b16e07647b2ff9","5f638038b2bd45069e4214c0","true","68.26500000897795","./Stimuli/ImagesPractice/LN2.jpg","83","","","","test","true","N + M","83","","LN","LN2.jpg","forget","old","28","2","practice_forget","left","","","",""
"html-keyboard-response","70","356516","0.0-2.1-2.1-0.28","4rfj18p1em2nweu","practice_no_cue","5c5a19299404f10001ff8cbf","5f60e3c0a3b16e07647b2ff9","5f638038b2bd45069e4214c0","false","null","<span style=""color: black; font-size: 48px"">M + N</span>","null","","","","resp_prompt","","","","","","","","","","","","","","","",""
"categorize-image","71","357115","0.0-2.1-2.1-1.28","4rfj18p1em2nweu","practice_no_cue","5c5a19299404f10001ff8cbf","5f60e3c0a3b16e07647b2ff9","5f638038b2bd45069e4214c0","true","94.5799999171868","./Stimuli/ImagesPractice/LM230.jpg","83","","","","test","true","M + N","83","","LM","LM230.jpg","forget","old","29","2","practice_forget","left","","","",""
"html-keyboard-response","72","357818","0.0-2.1-2.1-0.29","4rfj18p1em2nweu","practice_no_cue","5c5a19299404f10001ff8cbf","5f60e3c0a3b16e07647b2ff9","5f638038b2bd45069e4214c0","false","null","<span style=""color: black; font-size: 48px"">M + N</span>","null","","","","resp_prompt","","","","","","","","","","","","","","","",""
"categorize-image","73","358367","0.0-2.1-2.1-1.29","4rfj18p1em2nweu","practice_no_cue","5c5a19299404f10001ff8cbf","5f60e3c0a3b16e07647b2ff9","5f638038b2bd45069e4214c0","true","46.2050000205636","./Stimuli/ImagesPractice/LN15.jpg","83","","","","test","false","M + N","76","","LN","LN15.jpg","forget","old","30","2","practice_forget","left","","","",""
"html-keyboard-response","74","359074","0.0-2.1-2.1-0.30","4rfj18p1em2nweu","practice_no_cue","5c5a19299404f10001ff8cbf","5f60e3c0a3b16e07647b2ff9","5f638038b2bd45069e4214c0","false","null","<span style=""color: black; font-size: 48px"">N + M</span>","null","","","","resp_prompt","","","","","","","","","","","","","","","",""
"categorize-image","75","359612","0.0-2.1-2.1-1.30","4rfj18p1em2nweu","practice_no_cue","5c5a19299404f10001ff8cbf","5f60e3c0a3b16e07647b2ff9","5f638038b2bd45069e4214c0","true","29.710000031627715","./Stimuli/ImagesPractice/LM147.jpg","76","","","","test","true","N + M","76","","LM","LM147.jpg","forget","old","31","2","practice_forget","right","","","",""
"html-keyboard-response","76","360315","0.0-2.1-2.1-0.31","4rfj18p1em2nweu","practice_no_cue","5c5a19299404f10001ff8cbf","5f60e3c0a3b16e07647b2ff9","5f638038b2bd45069e4214c0","false","null","<span style=""color: black; font-size: 48px"">N + M</span>","null","","","","resp_prompt","","","","","","","","","","","","","","","",""
"categorize-image","77","360882","0.0-2.1-2.1-1.31","4rfj18p1em2nweu","practice_no_cue","5c5a19299404f10001ff8cbf","5f60e3c0a3b16e07647b2ff9","5f638038b2bd45069e4214c0","true","38.154999958351254","./Stimuli/ImagesPractice/SM61.jpg","83","","","","test","false","N + M","76","","SM","SM61.jpg","forget","old","32","2","practice_forget","left","","","",""
"html-keyboard-response","78","362115","0.0-2.1-3.1","4rfj18p1em2nweu","break","5c5a19299404f10001ff8cbf","5f60e3c0a3b16e07647b2ff9","5f638038b2bd45069e4214c0","false","1229.3099999660626","<p style='font-size: 32px;'>Break</><br><br><br><br><br><p style='font-size: 24px;'>In the last block, you committed 9 errors and did not respond in time on 0 trials.
</p><p style='font-size: 24px;'>Try to respond as fast and accurately as possible in the next block as well! </p><p style='font-size: 24px;'>Press SPACE to continue.</p>","32","","","","","","","","","","","","","","","","","","","",""
"html-keyboard-response","79","362566","0.0-2.1-4.1","4rfj18p1em2nweu","instructions","5c5a19299404f10001ff8cbf","5f60e3c0a3b16e07647b2ff9","5f638038b2bd45069e4214c0","false","449.72999999299645","<div align=left> Great!<br><br>Are you ready to continue?<br><br>If you want to reread the instructions and redo the practice trials, <br>please press „Z“. <br><br>Press SPACE to CONTINUE with the experiment when you are ready. </div>","90","","","","","","","","","","","","","","","","","","","",""
"html-keyboard-response","80","384809","0.0-2.2-0.2","4rfj18p1em2nweu","instructions","5c5a19299404f10001ff8cbf","5f60e3c0a3b16e07647b2ff9","5f638038b2bd45069e4214c0","false","22239.659999962896","<div align=justify>You will classify the objects using the <strong>'S'</strong> and the <strong>'L'</strong> keys on your keyboard.<br>For doing so, please place your <strong>left index finger</strong> on the <strong>'S'</strong> key and place your <strong>right index finger</strong> on the <strong>'L'</strong> key. <br><br> Each trial starts with an instruction, indicating which key ('S'/'L') you need to press to classify <br>the object as mechanical (letter M) or non-mechanical (letter N).<br>The instruction <strong>M + N</strong> indicates that, in the current trial, by pressing the left key ('S') you classify the displayed object as mechanical (M) <br> and by pressing the right key ('L') you classify the object as non-mechanical (N). <br>The instruction <strong>N + M</strong> on the other hand indicates that by pressing the left key ('S') you classify the displayed object as non-mechanical (N) <br> and by pressing the right key ('L') you classify the object as mechanical (M). <br><br>Please press the key corresponding to the correct classification as fast as possible as soon as the object is displayed and try to avoid making mistakes.<br>If you do not respond within a 2 second window, a corresponding feedback will be displayed and the next trial will start.<br> The experiment is divided into multiple blocks to give you the opportunity to take a break after each block. <br>First, you can now practice this task. <br><br>Please place your <strong>LEFT INDEX FINGER</strong> on the 'S' key and your <strong>RIGHT INDEX FINGER</strong> on the 'L' key now. <br><br>Press SPACE to continue.</div>","32","","","","","","","","","","","","","","","","","","","",""
"html-keyboard-response","81","386366","0.0-2.2-1.2","4rfj18p1em2nweu","instructions","5c5a19299404f10001ff8cbf","5f60e3c0a3b16e07647b2ff9","5f638038b2bd45069e4214c0","false","1555.4150000680238","<div align=left> You will now have time to practice this task.<br><br>Remember: <br> <br><li>Please place your index fingers on the <strong>'S'</strong> and <strong>'L'</strong> keys <br>to respond as fast and accurately as possible.</li><li>Every picture can be classified as either mechanical or non-mechanical.</li><li>If you do not respond in time or commit an error, you will receive a corresponding feedback. </li><li> Please try to respond as <strong> fast </strong> and as <strong> accurately as possible </strong> .<br><li>To ensure optimal results, please minimize distractions and stay focused. </li><br><br>Press SPACE to continue.</div>","32","","","","","","","","","","","","","","","","","","","",""
"html-keyboard-response","82","387070","0.0-2.2-2.2-0.32","4rfj18p1em2nweu","practice_no_cue","5c5a19299404f10001ff8cbf","5f60e3c0a3b16e07647b2ff9","5f638038b2bd45069e4214c0","false","null","<span style=""color: black; font-size: 48px"">N + M</span>","null","","","","resp_prompt","","","","","","","","","","","","","","","",""
"categorize-image","83","388278","0.0-2.2-2.2-1.32","4rfj18p1em2nweu","practice_no_cue","5c5a19299404f10001ff8cbf","5f60e3c0a3b16e07647b2ff9","5f638038b2bd45069e4214c0","true","696.2249999633059","./Stimuli/ImagesPractice/SN205.jpg","83","","","","test","true","N + M","83","","SN","SN205.jpg","remember","old","33","3","practice_forget","left","","","",""
"html-keyboard-response","84","388983","0.0-2.2-2.2-0.33","4rfj18p1em2nweu","practice_no_cue","5c5a19299404f10001ff8cbf","5f60e3c0a3b16e07647b2ff9","5f638038b2bd45069e4214c0","false","null","<span style=""color: black; font-size: 48px"">N + M</span>","null","","","","resp_prompt","","","","","","","","","","","","","","","",""
"categorize-image","85","390070","0.0-2.2-2.2-1.33","4rfj18p1em2nweu","practice_no_cue","5c5a19299404f10001ff8cbf","5f60e3c0a3b16e07647b2ff9","5f638038b2bd45069e4214c0","true","578.2049999106675","./Stimuli/ImagesPractice/SM62.jpg","83","","","","test","false","N + M","76","","SM","SM62.jpg","remember","old","34","3","practice_forget","left","","","",""
"html-keyboard-response","86","390775","0.0-2.2-2.2-0.34","4rfj18p1em2nweu","practice_no_cue","5c5a19299404f10001ff8cbf","5f60e3c0a3b16e07647b2ff9","5f638038b2bd45069e4214c0","false","null","<span style=""color: black; font-size: 48px"">N + M</span>","null","","","","resp_prompt","","","","","","","","","","","","","","","",""
"categorize-image","87","391792","0.0-2.2-2.2-1.34","4rfj18p1em2nweu","practice_no_cue","5c5a19299404f10001ff8cbf","5f60e3c0a3b16e07647b2ff9","5f638038b2bd45069e4214c0","true","511.4199999952689","./Stimuli/ImagesPractice/LM239.jpg","76","","","","test","true","N + M","76","","LM","LM239.jpg","remember","old","35","3","practice_forget","right","","","",""
"html-keyboard-response","88","392496","0.0-2.2-2.2-0.35","4rfj18p1em2nweu","practice_no_cue","5c5a19299404f10001ff8cbf","5f60e3c0a3b16e07647b2ff9","5f638038b2bd45069e4214c0","false","null","<span style=""color: black; font-size: 48px"">N + M</span>","null","","","","resp_prompt","","","","","","","","","","","","","","","",""
"categorize-image","89","393551","0.0-2.2-2.2-1.35","4rfj18p1em2nweu","practice_no_cue","5c5a19299404f10001ff8cbf","5f60e3c0a3b16e07647b2ff9","5f638038b2bd45069e4214c0","true","549.4999999646097","./Stimuli/ImagesPractice/SN75.jpg","76","","","","test","false","N + M","83","","SN","SN75.jpg","remember","old","36","3","practice_forget","right","","","",""
"html-keyboard-response","90","394255","0.0-2.2-2.2-0.36","4rfj18p1em2nweu","practice_no_cue","5c5a19299404f10001ff8cbf","5f60e3c0a3b16e07647b2ff9","5f638038b2bd45069e4214c0","false","null","<span style=""color: black; font-size: 48px"">M + N</span>","null","","","","resp_prompt","","","","","","","","","","","","","","","",""
"categorize-image","91","395289","0.0-2.2-2.2-1.36","4rfj18p1em2nweu","practice_no_cue","5c5a19299404f10001ff8cbf","5f60e3c0a3b16e07647b2ff9","5f638038b2bd45069e4214c0","true","528.2999998889863","./Stimuli/ImagesPractice/SM97.jpg","83","","","","test","true","M + N","83","","SM","SM97.jpg","forget","old","37","3","practice_forget","left","","","",""
"html-keyboard-response","92","395995","0.0-2.2-2.2-0.37","4rfj18p1em2nweu","practice_no_cue","5c5a19299404f10001ff8cbf","5f60e3c0a3b16e07647b2ff9","5f638038b2bd45069e4214c0","false","null","<span style=""color: black; font-size: 48px"">M + N</span>","null","","","","resp_prompt","","","","","","","","","","","","","","","",""
"categorize-image","93","396993","0.0-2.2-2.2-1.37","4rfj18p1em2nweu","practice_no_cue","5c5a19299404f10001ff8cbf","5f60e3c0a3b16e07647b2ff9","5f638038b2bd45069e4214c0","true","494.0299999434501","./Stimuli/ImagesPractice/LM230.jpg","83","","","","test","true","M + N","83","","LM","LM230.jpg","forget","old","38","3","practice_forget","left","","","",""
"html-keyboard-response","94","397701","0.0-2.2-2.2-0.38","4rfj18p1em2nweu","practice_no_cue","5c5a19299404f10001ff8cbf","5f60e3c0a3b16e07647b2ff9","5f638038b2bd45069e4214c0","false","null","<span style=""color: black; font-size: 48px"">N + M</span>","null","","","","resp_prompt","","","","","","","","","","","","","","","",""
"categorize-image","95","398779","0.0-2.2-2.2-1.38","4rfj18p1em2nweu","practice_no_cue","5c5a19299404f10001ff8cbf","5f60e3c0a3b16e07647b2ff9","5f638038b2bd45069e4214c0","true","567.8249999182299","./Stimuli/ImagesPractice/SN76.jpg","83","","","","test","true","N + M","83","","SN","SN76.jpg","forget","old","39","3","practice_forget","left","","","",""
"html-keyboard-response","96","399486","0.0-2.2-2.2-0.39","4rfj18p1em2nweu","practice_no_cue","5c5a19299404f10001ff8cbf","5f60e3c0a3b16e07647b2ff9","5f638038b2bd45069e4214c0","false","null","<span style=""color: black; font-size: 48px"">N + M</span>","null","","","","resp_prompt","","","","","","","","","","","","","","","",""
"categorize-image","97","400516","0.0-2.2-2.2-1.39","4rfj18p1em2nweu","practice_no_cue","5c5a19299404f10001ff8cbf","5f60e3c0a3b16e07647b2ff9","5f638038b2bd45069e4214c0","true","520.2049999497831","./Stimuli/ImagesPractice/LM147.jpg","83","","","","test","false","N + M","76","","LM","LM147.jpg","forget","old","40","3","practice_forget","left","","","",""
"html-keyboard-response","98","401223","0.0-2.2-2.2-0.40","4rfj18p1em2nweu","practice_no_cue","5c5a19299404f10001ff8cbf","5f60e3c0a3b16e07647b2ff9","5f638038b2bd45069e4214c0","false","null","<span style=""color: black; font-size: 48px"">M + N</span>","null","","","","resp_prompt","","","","","","","","","","","","","","","",""
"categorize-image","99","402255","0.0-2.2-2.2-1.40","4rfj18p1em2nweu","practice_no_cue","5c5a19299404f10001ff8cbf","5f60e3c0a3b16e07647b2ff9","5f638038b2bd45069e4214c0","true","525.1200000056997","./Stimuli/ImagesPractice/LN4.jpg","76","","","","test","true","M + N","76","","LN","LN4.jpg","remember","old","41","3","practice_forget","right","","","",""
"html-keyboard-response","100","402964","0.0-2.2-2.2-0.41","4rfj18p1em2nweu","practice_no_cue","5c5a19299404f10001ff8cbf","5f60e3c0a3b16e07647b2ff9","5f638038b2bd45069e4214c0","false","null","<span style=""color: black; font-size: 48px"">N + M</span>","null","","","","resp_prompt","","","","","","","","","","","","","","","",""
"categorize-image","101","404067","0.0-2.2-2.2-1.41","4rfj18p1em2nweu","practice_no_cue","5c5a19299404f10001ff8cbf","5f60e3c0a3b16e07647b2ff9","5f638038b2bd45069e4214c0","true","596.1750000715256","./Stimuli/ImagesPractice/LN2.jpg","83","","","","test","true","N + M","83","","LN","LN2.jpg","forget","old","42","3","practice_forget","left","","","",""
"html-keyboard-response","102","404774","0.0-2.2-2.2-0.42","4rfj18p1em2nweu","practice_no_cue","5c5a19299404f10001ff8cbf","5f60e3c0a3b16e07647b2ff9","5f638038b2bd45069e4214c0","false","null","<span style=""color: black; font-size: 48px"">M + N</span>","null","","","","resp_prompt","","","","","","","","","","","","","","","",""
"categorize-image","103","405868","0.0-2.2-2.2-1.42","4rfj18p1em2nweu","practice_no_cue","5c5a19299404f10001ff8cbf","5f60e3c0a3b16e07647b2ff9","5f638038b2bd45069e4214c0","true","580.0650001037866","./Stimuli/ImagesPractice/SM35.jpg","83","","","","test","true","M + N","83","","SM","SM35.jpg","remember","old","43","3","practice_forget","left","","","",""
"html-keyboard-response","104","406574","0.0-2.2-2.2-0.43","4rfj18p1em2nweu","practice_no_cue","5c5a19299404f10001ff8cbf","5f60e3c0a3b16e07647b2ff9","5f638038b2bd45069e4214c0","false","null","<span style=""color: black; font-size: 48px"">M + N</span>","null","","","","resp_prompt","","","","","","","","","","","","","","","",""
"categorize-image","105","407680","0.0-2.2-2.2-1.43","4rfj18p1em2nweu","practice_no_cue","5c5a19299404f10001ff8cbf","5f60e3c0a3b16e07647b2ff9","5f638038b2bd45069e4214c0","true","600.3000000491738","./Stimuli/ImagesPractice/SM98.jpg","83","","","","test","true","M + N","83","","SM","SM98.jpg","forget","old","44","3","practice_forget","left","","","",""
"html-keyboard-response","106","408386","0.0-2.2-2.2-0.44","4rfj18p1em2nweu","practice_no_cue","5c5a19299404f10001ff8cbf","5f60e3c0a3b16e07647b2ff9","5f638038b2bd45069e4214c0","false","null","<span style=""color: black; font-size: 48px"">M + N</span>","null","","","","resp_prompt","","","","","","","","","","","","","","","",""
"categorize-image","107","409609","0.0-2.2-2.2-1.44","4rfj18p1em2nweu","practice_no_cue","5c5a19299404f10001ff8cbf","5f60e3c0a3b16e07647b2ff9","5f638038b2bd45069e4214c0","true","711.7850000504404","./Stimuli/ImagesPractice/SN222.jpg","83","","","","test","false","M + N","76","","SN","SN222.jpg","remember","old","45","3","practice_forget","left","","","",""
"html-keyboard-response","108","410316","0.0-2.2-2.2-0.45","4rfj18p1em2nweu","practice_no_cue","5c5a19299404f10001ff8cbf","5f60e3c0a3b16e07647b2ff9","5f638038b2bd45069e4214c0","false","null","<span style=""color: black; font-size: 48px"">N + M</span>","null","","","","resp_prompt","","","","","","","","","","","","","","","",""
"categorize-image","109","412319","0.0-2.2-2.2-1.45","4rfj18p1em2nweu","practice_no_cue","5c5a19299404f10001ff8cbf","5f60e3c0a3b16e07647b2ff9","5f638038b2bd45069e4214c0","true","1493.8650000840425","./Stimuli/ImagesPractice/SM61.jpg","83","","","","test","false","N + M","76","","SM","SM61.jpg","forget","old","46","3","practice_forget","left","","","",""
"html-keyboard-response","110","413026","0.0-2.2-2.2-0.46","4rfj18p1em2nweu","practice_no_cue","5c5a19299404f10001ff8cbf","5f60e3c0a3b16e07647b2ff9","5f638038b2bd45069e4214c0","false","null","<span style=""color: black; font-size: 48px"">M + N</span>","null","","","","resp_prompt","","","","","","","","","","","","","","","",""
"categorize-image","111","414289","0.0-2.2-2.2-1.46","4rfj18p1em2nweu","practice_no_cue","5c5a19299404f10001ff8cbf","5f60e3c0a3b16e07647b2ff9","5f638038b2bd45069e4214c0","true","755.3550000302494","./Stimuli/ImagesPractice/SN220.jpg","76","","","","test","true","M + N","76","","SN","SN220.jpg","remember","old","47","3","practice_forget","right","","","",""
"html-keyboard-response","112","414993","0.0-2.2-2.2-0.47","4rfj18p1em2nweu","practice_no_cue","5c5a19299404f10001ff8cbf","5f60e3c0a3b16e07647b2ff9","5f638038b2bd45069e4214c0","false","null","<span style=""color: black; font-size: 48px"">M + N</span>","null","","","","resp_prompt","","","","","","","","","","","","","","","",""
"categorize-image","113","415995","0.0-2.2-2.2-1.47","4rfj18p1em2nweu","practice_no_cue","5c5a19299404f10001ff8cbf","5f60e3c0a3b16e07647b2ff9","5f638038b2bd45069e4214c0","true","497.38499999511987","./Stimuli/ImagesPractice/LN15.jpg","76","","","","test","true","M + N","76","","LN","LN15.jpg","forget","old","48","3","practice_forget","right","","","",""
"html-keyboard-response","114","417289","0.0-2.2-3.2","4rfj18p1em2nweu","break","5c5a19299404f10001ff8cbf","5f60e3c0a3b16e07647b2ff9","5f638038b2bd45069e4214c0","false","1292.0150000136346","<p style='font-size: 32px;'>Break</><br><br><br><br><br><p style='font-size: 24px;'>In the last block, you committed 5 errors and did not respond in time on 0 trials.
</p><p style='font-size: 24px;'>Try to respond as fast and accurately as possible in the next block as well! </p><p style='font-size: 24px;'>Press SPACE to continue.</p>","32","","","","","","","","","","","","","","","","","","","",""
"html-keyboard-response","115","417918","0.0-2.2-4.2","4rfj18p1em2nweu","instructions","5c5a19299404f10001ff8cbf","5f60e3c0a3b16e07647b2ff9","5f638038b2bd45069e4214c0","false","627.3700000019744","<div align=left> Great!<br><br>Are you ready to continue?<br><br>If you want to reread the instructions and redo the practice trials, <br>please press „Z“. <br><br>Press SPACE to CONTINUE with the experiment when you are ready. </div>","32","","","","","","","","","","","","","","","","","","","",""
"html-keyboard-response","116","418874","0.0-3.0-0.0","4rfj18p1em2nweu","instructions","5c5a19299404f10001ff8cbf","5f60e3c0a3b16e07647b2ff9","5f638038b2bd45069e4214c0","false","954.2150000343099","<div align=left>Great!<br> <strong>Attention</strong>! You will now receive a second, additional task! <br><br>To this point it was you <strong>first task</strong> to correctly <strong>classify objects</strong>. <br><br>As mentioned in the beginning, we aim to examine how well humans can remember previously learned information.<br>We would like to find out whether our memory improves if we only remember information that is relevant to us. <br><br>Therefore, your <strong>second task</strong> will be to <strong>remember</strong> the pictures you are to categorize. <br> After the learning phase, there will be a memory test phase, in which you will be asked to indicate whether you have seen a picture before or not. <br>Some, but not all pictures shown in the learning phase will appear in the memory test phase.<br>After classifying a picture, you will be told whether you should remember it for the memory test phase or not. <br>Thus, some pictures can be forgotten, whereas others have to be remembered. <br><br>Note: From now on, feedback will only be displayed if you responded incorrectly or not in time.<br><br>Press SPACE to continue.</div>","32","","","","","","","","","","","","","","","","","","","",""
"html-keyboard-response","117","427071","0.0-3.0-1.0","4rfj18p1em2nweu","instructions","5c5a19299404f10001ff8cbf","5f60e3c0a3b16e07647b2ff9","5f638038b2bd45069e4214c0","false","8195.189999998547","<div align=left>In the following part, you will thus have to remember only some pictures. <br>Immediately after seeing and classifying the picture, a symbol will be displayed, indicating whether you should remember or forget the previous picture. <br><br>A <span style='color: dodgerblue; font-size: 28px'>O</span> indicates REMEMBER. That means, you have to remember this picture, because it will be tested later. <br><br>A <span style='color: darkorange; font-size:28px'>Ø</span> indicates FORGET. You do not have to remember this picture. <br><br> As you will have to remember a lot of pictures, it will be hard for you to remember all of them. <br>It will put you at an advantage if you instantly forget the pictures you are not asked to remember. <br> This will make it easier for you to remember the pictures that will be tested afterwards. <br><br>Press SPACE to continue.</div>","32","","","","","","","","","","","","","","","","","","","",""
"html-keyboard-response","118","435479","0.0-3.0-2.0","4rfj18p1em2nweu","instructions","5c5a19299404f10001ff8cbf","5f60e3c0a3b16e07647b2ff9","5f638038b2bd45069e4214c0","false","8406.210000044666","<div align=left> Now you have the chance to practice both tasks together.<br><br>Remember: <br> <br><li>Please place your index fingers on the <strong>'S'</strong> and <strong>'L'</strong> keys <br>to respond as fast and accurately as possible.</li><li>Every picture can be classified as either mechanical or non-mechanical.</li><li>If you do not respond in time or commit an error, you will receive a corresponding feedback. <br>Please try to respond as <strong> fast </strong> and as <strong> accurately as possible </strong>.</li><li> Please remember only the to-be-remembered <span style='color: dodgerblue; font-size: 28px'>O</span> pictures. <br></li><li> Please minimize distractions and stay focused. </li><br><br>Press SPACE to START</div>","32","","","","","","","","","","","","","","","","","","","",""
"html-keyboard-response","119","436181","0.0-3.0-3.0-0.0","4rfj18p1em2nweu","practice_cue","5c5a19299404f10001ff8cbf","5f60e3c0a3b16e07647b2ff9","5f638038b2bd45069e4214c0","false","null","<span style=""color: black; font-size: 48px"">N + M</span>","null","","","","resp_prompt","","","","","","","","","","","","","","","",""
"categorize-image","120","437146","0.0-3.0-3.0-1.0","4rfj18p1em2nweu","practice_cue","5c5a19299404f10001ff8cbf","5f60e3c0a3b16e07647b2ff9","5f638038b2bd45069e4214c0","true","960.3950000600889","./Stimuli/ImagesPractice/SN75.jpg","83","","","","test","true","N + M","83","","SN","SN75.jpg","remember","old","49","4","practice_forget","left","","","",""
"html-keyboard-response","121","439153","0.0-3.0-3.0-3.0","4rfj18p1em2nweu","practice_cue","5c5a19299404f10001ff8cbf","5f60e3c0a3b16e07647b2ff9","5f638038b2bd45069e4214c0","false","null","<div style=""align-items: center; display: flex; color: dodgerblue; font-size: 90px""><b>o</b></div>","null","","","","forget_cue","","","","","","","","","","","","","","","",""
"html-keyboard-response","122","439859","0.0-3.0-3.0-0.1","4rfj18p1em2nweu","practice_cue","5c5a19299404f10001ff8cbf","5f60e3c0a3b16e07647b2ff9","5f638038b2bd45069e4214c0","false","null","<span style=""color: black; font-size: 48px"">M + N</span>","null","","","","resp_prompt","","","","","","","","","","","","","","","",""
"categorize-image","123","441877","0.0-3.0-3.0-1.1","4rfj18p1em2nweu","practice_cue","5c5a19299404f10001ff8cbf","5f60e3c0a3b16e07647b2ff9","5f638038b2bd45069e4214c0","true","null","./Stimuli/ImagesPractice/SM98.jpg","null","","","","test","false","M + N","83","","SM","SM98.jpg","forget","old","50","4","practice_forget","too_slow","","","",""
"html-keyboard-response","124","442383","0.0-3.0-3.0-2.1-0.1","4rfj18p1em2nweu","practice_cue","5c5a19299404f10001ff8cbf","5f60e3c0a3b16e07647b2ff9","5f638038b2bd45069e4214c0","false","null","<span style=""color: red; font-size: 48px"">Too slow!</span>","null","","","","feedback","","","","","","","","","","","","","","","",""
"html-keyboard-response","125","444390","0.0-3.0-3.0-3.1","4rfj18p1em2nweu","practice_cue","5c5a19299404f10001ff8cbf","5f60e3c0a3b16e07647b2ff9","5f638038b2bd45069e4214c0","false","null","<div style=""align-items: center; display: flex; color: darkorange; font-size: 90px""><b>ø</b></div>","null","","","","forget_cue","","","","","","","","","","","","","","","",""
"html-keyboard-response","126","445097","0.0-3.0-3.0-0.2","4rfj18p1em2nweu","practice_cue","5c5a19299404f10001ff8cbf","5f60e3c0a3b16e07647b2ff9","5f638038b2bd45069e4214c0","false","null","<span style=""color: black; font-size: 48px"">M + N</span>","null","","","","resp_prompt","","","","","","","","","","","","","","","",""
"categorize-image","127","445676","0.0-3.0-3.0-1.2","4rfj18p1em2nweu","practice_cue","5c5a19299404f10001ff8cbf","5f60e3c0a3b16e07647b2ff9","5f638038b2bd45069e4214c0","true","570.4300000797957","./Stimuli/ImagesPractice/SN222.jpg","83","","","","test","false","M + N","76","","SN","SN222.jpg","remember","old","51","4","practice_forget","left","","","",""
"html-keyboard-response","128","446180","0.0-3.0-3.0-2.2-0.2","4rfj18p1em2nweu","practice_cue","5c5a19299404f10001ff8cbf","5f60e3c0a3b16e07647b2ff9","5f638038b2bd45069e4214c0","false","null","<span style=""color: red; font-size: 48px"">Error!</span>","null","","","","feedback","","","","","","","","","","","","","","","",""
"html-keyboard-response","129","448185","0.0-3.0-3.0-3.2","4rfj18p1em2nweu","practice_cue","5c5a19299404f10001ff8cbf","5f60e3c0a3b16e07647b2ff9","5f638038b2bd45069e4214c0","false","null","<div style=""align-items: center; display: flex; color: dodgerblue; font-size: 90px""><b>o</b></div>","null","","","","forget_cue","","","","","","","","","","","","","","","",""
"html-keyboard-response","130","448889","0.0-3.0-3.0-0.3","4rfj18p1em2nweu","practice_cue","5c5a19299404f10001ff8cbf","5f60e3c0a3b16e07647b2ff9","5f638038b2bd45069e4214c0","false","null","<span style=""color: black; font-size: 48px"">M + N</span>","null","","","","resp_prompt","","","","","","","","","","","","","","","",""
"categorize-image","131","449416","0.0-3.0-3.0-1.3","4rfj18p1em2nweu","practice_cue","5c5a19299404f10001ff8cbf","5f60e3c0a3b16e07647b2ff9","5f638038b2bd45069e4214c0","true","519.2249999381602","./Stimuli/ImagesPractice/SN220.jpg","76","","","","test","true","M + N","76","","SN","SN220.jpg","remember","old","52","4","practice_forget","right","","","",""
"html-keyboard-response","132","451419","0.0-3.0-3.0-3.3","4rfj18p1em2nweu","practice_cue","5c5a19299404f10001ff8cbf","5f60e3c0a3b16e07647b2ff9","5f638038b2bd45069e4214c0","false","null","<div style=""align-items: center; display: flex; color: dodgerblue; font-size: 90px""><b>o</b></div>","null","","","","forget_cue","","","","","","","","","","","","","","","",""
"html-keyboard-response","133","452127","0.0-3.0-3.0-0.4","4rfj18p1em2nweu","practice_cue","5c5a19299404f10001ff8cbf","5f60e3c0a3b16e07647b2ff9","5f638038b2bd45069e4214c0","false","null","<span style=""color: black; font-size: 48px"">N + M</span>","null","","","","resp_prompt","","","","","","","","","","","","","","","",""
"categorize-image","134","452852","0.0-3.0-3.0-1.4","4rfj18p1em2nweu","practice_cue","5c5a19299404f10001ff8cbf","5f60e3c0a3b16e07647b2ff9","5f638038b2bd45069e4214c0","true","715.1999999769032","./Stimuli/ImagesPractice/LN2.jpg","83","","","","test","true","N + M","83","","LN","LN2.jpg","forget","old","53","4","practice_forget","left","","","",""
"html-keyboard-response","135","454856","0.0-3.0-3.0-3.4","4rfj18p1em2nweu","practice_cue","5c5a19299404f10001ff8cbf","5f60e3c0a3b16e07647b2ff9","5f638038b2bd45069e4214c0","false","null","<div style=""align-items: center; display: flex; color: darkorange; font-size: 90px""><b>ø</b></div>","null","","","","forget_cue","","","","","","","","","","","","","","","",""
"html-keyboard-response","136","455560","0.0-3.0-3.0-0.5","4rfj18p1em2nweu","practice_cue","5c5a19299404f10001ff8cbf","5f60e3c0a3b16e07647b2ff9","5f638038b2bd45069e4214c0","false","null","<span style=""color: black; font-size: 48px"">M + N</span>","null","","","","resp_prompt","","","","","","","","","","","","","","","",""
"categorize-image","137","456074","0.0-3.0-3.0-1.5","4rfj18p1em2nweu","practice_cue","5c5a19299404f10001ff8cbf","5f60e3c0a3b16e07647b2ff9","5f638038b2bd45069e4214c0","true","509.7900000400841","./Stimuli/ImagesPractice/LM230.jpg","83","","","","test","true","M + N","83","","LM","LM230.jpg","forget","old","54","4","practice_forget","left","","","",""
"html-keyboard-response","138","458079","0.0-3.0-3.0-3.5","4rfj18p1em2nweu","practice_cue","5c5a19299404f10001ff8cbf","5f60e3c0a3b16e07647b2ff9","5f638038b2bd45069e4214c0","false","null","<div style=""align-items: center; display: flex; color: darkorange; font-size: 90px""><b>ø</b></div>","null","","","","forget_cue","","","","","","","","","","","","","","","",""
"html-keyboard-response","139","458784","0.0-3.0-3.0-0.6","4rfj18p1em2nweu","practice_cue","5c5a19299404f10001ff8cbf","5f60e3c0a3b16e07647b2ff9","5f638038b2bd45069e4214c0","false","null","<span style=""color: black; font-size: 48px"">N + M</span>","null","","","","resp_prompt","","","","","","","","","","","","","","","",""
"categorize-image","140","459520","0.0-3.0-3.0-1.6","4rfj18p1em2nweu","practice_cue","5c5a19299404f10001ff8cbf","5f60e3c0a3b16e07647b2ff9","5f638038b2bd45069e4214c0","true","731.1500000068918","./Stimuli/ImagesPractice/LM239.jpg","83","","","","test","false","N + M","76","","LM","LM239.jpg","remember","old","55","4","practice_forget","left","","","",""
"html-keyboard-response","141","460022","0.0-3.0-3.0-2.6-0.6","4rfj18p1em2nweu","practice_cue","5c5a19299404f10001ff8cbf","5f60e3c0a3b16e07647b2ff9","5f638038b2bd45069e4214c0","false","null","<span style=""color: red; font-size: 48px"">Error!</span>","null","","","","feedback","","","","","","","","","","","","","","","",""
"html-keyboard-response","142","462026","0.0-3.0-3.0-3.6","4rfj18p1em2nweu","practice_cue","5c5a19299404f10001ff8cbf","5f60e3c0a3b16e07647b2ff9","5f638038b2bd45069e4214c0","false","null","<div style=""align-items: center; display: flex; color: dodgerblue; font-size: 90px""><b>o</b></div>","null","","","","forget_cue","","","","","","","","","","","","","","","",""
"html-keyboard-response","143","462731","0.0-3.0-3.0-0.7","4rfj18p1em2nweu","practice_cue","5c5a19299404f10001ff8cbf","5f60e3c0a3b16e07647b2ff9","5f638038b2bd45069e4214c0","false","null","<span style=""color: black; font-size: 48px"">M + N</span>","null","","","","resp_prompt","","","","","","","","","","","","","","","",""
"categorize-image","144","463305","0.0-3.0-3.0-1.7","4rfj18p1em2nweu","practice_cue","5c5a19299404f10001ff8cbf","5f60e3c0a3b16e07647b2ff9","5f638038b2bd45069e4214c0","true","569.5350000169128","./Stimuli/ImagesPractice/SM97.jpg","83","","","","test","true","M + N","83","","SM","SM97.jpg","forget","old","56","4","practice_forget","left","","","",""
"html-keyboard-response","145","465312","0.0-3.0-3.0-3.7","4rfj18p1em2nweu","practice_cue","5c5a19299404f10001ff8cbf","5f60e3c0a3b16e07647b2ff9","5f638038b2bd45069e4214c0","false","null","<div style=""align-items: center; display: flex; color: darkorange; font-size: 90px""><b>ø</b></div>","null","","","","forget_cue","","","","","","","","","","","","","","","",""
"html-keyboard-response","146","466018","0.0-3.0-3.0-0.8","4rfj18p1em2nweu","practice_cue","5c5a19299404f10001ff8cbf","5f60e3c0a3b16e07647b2ff9","5f638038b2bd45069e4214c0","false","null","<span style=""color: black; font-size: 48px"">M + N</span>","null","","","","resp_prompt","","","","","","","","","","","","","","","",""
"categorize-image","147","466562","0.0-3.0-3.0-1.8","4rfj18p1em2nweu","practice_cue","5c5a19299404f10001ff8cbf","5f60e3c0a3b16e07647b2ff9","5f638038b2bd45069e4214c0","true","539.02000002563","./Stimuli/ImagesPractice/SM35.jpg","83","","","","test","true","M + N","83","","SM","SM35.jpg","remember","old","57","4","practice_forget","left","","","",""
"html-keyboard-response","148","468566","0.0-3.0-3.0-3.8","4rfj18p1em2nweu","practice_cue","5c5a19299404f10001ff8cbf","5f60e3c0a3b16e07647b2ff9","5f638038b2bd45069e4214c0","false","null","<div style=""align-items: center; display: flex; color: dodgerblue; font-size: 90px""><b>o</b></div>","null","","","","forget_cue","","","","","","","","","","","","","","","",""
"html-keyboard-response","149","469271","0.0-3.0-3.0-0.9","4rfj18p1em2nweu","practice_cue","5c5a19299404f10001ff8cbf","5f60e3c0a3b16e07647b2ff9","5f638038b2bd45069e4214c0","false","null","<span style=""color: black; font-size: 48px"">N + M</span>","null","","","","resp_prompt","","","","","","","","","","","","","","","",""
"categorize-image","150","469828","0.0-3.0-3.0-1.9","4rfj18p1em2nweu","practice_cue","5c5a19299404f10001ff8cbf","5f60e3c0a3b16e07647b2ff9","5f638038b2bd45069e4214c0","true","549.1799999726936","./Stimuli/ImagesPractice/LM147.jpg","76","","","","test","true","N + M","76","","LM","LM147.jpg","forget","old","58","4","practice_forget","right","","","",""
"html-keyboard-response","151","471833","0.0-3.0-3.0-3.9","4rfj18p1em2nweu","practice_cue","5c5a19299404f10001ff8cbf","5f60e3c0a3b16e07647b2ff9","5f638038b2bd45069e4214c0","false","null","<div style=""align-items: center; display: flex; color: darkorange; font-size: 90px""><b>ø</b></div>","null","","","","forget_cue","","","","","","","","","","","","","","","",""
"html-keyboard-response","152","472538","0.0-3.0-3.0-0.10","4rfj18p1em2nweu","practice_cue","5c5a19299404f10001ff8cbf","5f60e3c0a3b16e07647b2ff9","5f638038b2bd45069e4214c0","false","null","<span style=""color: black; font-size: 48px"">N + M</span>","null","","","","resp_prompt","","","","","","","","","","","","","","","",""
"categorize-image","153","472994","0.0-3.0-3.0-1.10","4rfj18p1em2nweu","practice_cue","5c5a19299404f10001ff8cbf","5f60e3c0a3b16e07647b2ff9","5f638038b2bd45069e4214c0","true","451.4399999752641","./Stimuli/ImagesPractice/SN76.jpg","76","","","","test","false","N + M","83","","SN","SN76.jpg","forget","old","59","4","practice_forget","right","","","",""
"html-keyboard-response","154","473500","0.0-3.0-3.0-2.10-0.10","4rfj18p1em2nweu","practice_cue","5c5a19299404f10001ff8cbf","5f60e3c0a3b16e07647b2ff9","5f638038b2bd45069e4214c0","false","null","<span style=""color: red; font-size: 48px"">Error!</span>","null","","","","feedback","","","","","","","","","","","","","","","",""
"html-keyboard-response","155","475506","0.0-3.0-3.0-3.10","4rfj18p1em2nweu","practice_cue","5c5a19299404f10001ff8cbf","5f60e3c0a3b16e07647b2ff9","5f638038b2bd45069e4214c0","false","null","<div style=""align-items: center; display: flex; color: darkorange; font-size: 90px""><b>ø</b></div>","null","","","","forget_cue","","","","","","","","","","","","","","","",""
"html-keyboard-response","156","476210","0.0-3.0-3.0-0.11","4rfj18p1em2nweu","practice_cue","5c5a19299404f10001ff8cbf","5f60e3c0a3b16e07647b2ff9","5f638038b2bd45069e4214c0","false","null","<span style=""color: black; font-size: 48px"">N + M</span>","null","","","","resp_prompt","","","","","","","","","","","","","","","",""
"categorize-image","157","476642","0.0-3.0-3.0-1.11","4rfj18p1em2nweu","practice_cue","5c5a19299404f10001ff8cbf","5f60e3c0a3b16e07647b2ff9","5f638038b2bd45069e4214c0","true","424.9050000216812","./Stimuli/ImagesPractice/SM61.jpg","83","","","","test","false","N + M","76","","SM","SM61.jpg","forget","old","60","4","practice_forget","left","","","",""
"html-keyboard-response","158","477149","0.0-3.0-3.0-2.11-0.11","4rfj18p1em2nweu","practice_cue","5c5a19299404f10001ff8cbf","5f60e3c0a3b16e07647b2ff9","5f638038b2bd45069e4214c0","false","null","<span style=""color: red; font-size: 48px"">Error!</span>","null","","","","feedback","","","","","","","","","","","","","","","",""
"html-keyboard-response","159","479155","0.0-3.0-3.0-3.11","4rfj18p1em2nweu","practice_cue","5c5a19299404f10001ff8cbf","5f60e3c0a3b16e07647b2ff9","5f638038b2bd45069e4214c0","false","null","<div style=""align-items: center; display: flex; color: darkorange; font-size: 90px""><b>ø</b></div>","null","","","","forget_cue","","","","","","","","","","","","","","","",""
"html-keyboard-response","160","479856","0.0-3.0-3.0-0.12","4rfj18p1em2nweu","practice_cue","5c5a19299404f10001ff8cbf","5f60e3c0a3b16e07647b2ff9","5f638038b2bd45069e4214c0","false","null","<span style=""color: black; font-size: 48px"">N + M</span>","null","","","","resp_prompt","","","","","","","","","","","","","","","",""
"categorize-image","161","480632","0.0-3.0-3.0-1.12","4rfj18p1em2nweu","practice_cue","5c5a19299404f10001ff8cbf","5f60e3c0a3b16e07647b2ff9","5f638038b2bd45069e4214c0","true","772.1199999796227","./Stimuli/ImagesPractice/SM62.jpg","83","","","","test","false","N + M","76","","SM","SM62.jpg","remember","old","61","4","practice_forget","left","","","",""
"html-keyboard-response","162","481139","0.0-3.0-3.0-2.12-0.12","4rfj18p1em2nweu","practice_cue","5c5a19299404f10001ff8cbf","5f60e3c0a3b16e07647b2ff9","5f638038b2bd45069e4214c0","false","null","<span style=""color: red; font-size: 48px"">Error!</span>","null","","","","feedback","","","","","","","","","","","","","","","",""
"html-keyboard-response","163","483146","0.0-3.0-3.0-3.12","4rfj18p1em2nweu","practice_cue","5c5a19299404f10001ff8cbf","5f60e3c0a3b16e07647b2ff9","5f638038b2bd45069e4214c0","false","null","<div style=""align-items: center; display: flex; color: dodgerblue; font-size: 90px""><b>o</b></div>","null","","","","forget_cue","","","","","","","","","","","","","","","",""
"html-keyboard-response","164","483855","0.0-3.0-3.0-0.13","4rfj18p1em2nweu","practice_cue","5c5a19299404f10001ff8cbf","5f60e3c0a3b16e07647b2ff9","5f638038b2bd45069e4214c0","false","null","<span style=""color: black; font-size: 48px"">M + N</span>","null","","","","resp_prompt","","","","","","","","","","","","","","","",""
"categorize-image","165","484347","0.0-3.0-3.0-1.13","4rfj18p1em2nweu","practice_cue","5c5a19299404f10001ff8cbf","5f60e3c0a3b16e07647b2ff9","5f638038b2bd45069e4214c0","true","486.5950000239536","./Stimuli/ImagesPractice/LN15.jpg","76","","","","test","true","M + N","76","","LN","LN15.jpg","forget","old","62","4","practice_forget","right","","","",""
"html-keyboard-response","166","486352","0.0-3.0-3.0-3.13","4rfj18p1em2nweu","practice_cue","5c5a19299404f10001ff8cbf","5f60e3c0a3b16e07647b2ff9","5f638038b2bd45069e4214c0","false","null","<div style=""align-items: center; display: flex; color: darkorange; font-size: 90px""><b>ø</b></div>","null","","","","forget_cue","","","","","","","","","","","","","","","",""
"html-keyboard-response","167","487058","0.0-3.0-3.0-0.14","4rfj18p1em2nweu","practice_cue","5c5a19299404f10001ff8cbf","5f60e3c0a3b16e07647b2ff9","5f638038b2bd45069e4214c0","false","null","<span style=""color: black; font-size: 48px"">N + M</span>","null","","","","resp_prompt","","","","","","","","","","","","","","","",""
"categorize-image","168","487668","0.0-3.0-3.0-1.14","4rfj18p1em2nweu","practice_cue","5c5a19299404f10001ff8cbf","5f60e3c0a3b16e07647b2ff9","5f638038b2bd45069e4214c0","true","605.2550000604242","./Stimuli/ImagesPractice/SN205.jpg","83","","","","test","true","N + M","83","","SN","SN205.jpg","remember","old","63","4","practice_forget","left","","","",""
"html-keyboard-response","169","489675","0.0-3.0-3.0-3.14","4rfj18p1em2nweu","practice_cue","5c5a19299404f10001ff8cbf","5f60e3c0a3b16e07647b2ff9","5f638038b2bd45069e4214c0","false","null","<div style=""align-items: center; display: flex; color: dodgerblue; font-size: 90px""><b>o</b></div>","null","","","","forget_cue","","","","","","","","","","","","","","","",""
"html-keyboard-response","170","490381","0.0-3.0-3.0-0.15","4rfj18p1em2nweu","practice_cue","5c5a19299404f10001ff8cbf","5f60e3c0a3b16e07647b2ff9","5f638038b2bd45069e4214c0","false","null","<span style=""color: black; font-size: 48px"">M + N</span>","null","","","","resp_prompt","","","","","","","","","","","","","","","",""
"categorize-image","171","490915","0.0-3.0-3.0-1.15","4rfj18p1em2nweu","practice_cue","5c5a19299404f10001ff8cbf","5f60e3c0a3b16e07647b2ff9","5f638038b2bd45069e4214c0","true","523.1249999487773","./Stimuli/ImagesPractice/LN4.jpg","76","","","","test","true","M + N","76","","LN","LN4.jpg","remember","old","64","4","practice_forget","right","","","",""
"html-keyboard-response","172","492917","0.0-3.0-3.0-3.15","4rfj18p1em2nweu","practice_cue","5c5a19299404f10001ff8cbf","5f60e3c0a3b16e07647b2ff9","5f638038b2bd45069e4214c0","false","null","<div style=""align-items: center; display: flex; color: dodgerblue; font-size: 90px""><b>o</b></div>","null","","","","forget_cue","","","","","","","","","","","","","","","",""
"html-keyboard-response","173","499643","0.0-3.0-4.0","4rfj18p1em2nweu","break","5c5a19299404f10001ff8cbf","5f60e3c0a3b16e07647b2ff9","5f638038b2bd45069e4214c0","false","6723.7450000829995","<p style='font-size: 32px;'>Break</><br><br><br><br><br><p style='font-size: 24px;'>In the last block, you committed 5 errors and did not respond in time on 1 trials.
</p><p style='font-size: 24px;'>Try to respond as fast and accurately as possible in the next block as well! </p><p style='font-size: 24px;'>Press SPACE to continue.</p>","32","","","","","","","","","","","","","","","","","","","",""
"html-keyboard-response","174","501292","0.0-3.0-5.0","4rfj18p1em2nweu","instructions","5c5a19299404f10001ff8cbf","5f60e3c0a3b16e07647b2ff9","5f638038b2bd45069e4214c0","false","1645.369999925606","<div align=left> Now, to practice, we kindly ask you to remember as many of the to-be-remembered pictures<br>of the previous learning phase as possible.<br><br>The pictures you were instructed to remember were the pictures followed by a <span style='color: dodgerblue; font-size: 28px'>O</span>.<br><br>In this memory test phase, you will also see some new pictures.<br>It is your task to remember whether you were presented with this specific picture in this study so far or not.<br>If you recognize an object (you have already seen it in this study), it is an OLD object. <br>If you do not recognize an object (you have NOT seen it in this study), it is a NEW object. <br><strong> Attention</strong>: As already mentioned, <span style='color: darkorange; font-size:28px'>Ø</span>-pictures will <strong>never</strong> appear in this memory test (neither as new objects). <br><br>Press SPACE to continue. </div>","32","","","","","","","","","","","","","","","","","","","",""
"html-keyboard-response","175","514105","0.0-3.0-6.0","4rfj18p1em2nweu","instructions","5c5a19299404f10001ff8cbf","5f60e3c0a3b16e07647b2ff9","5f638038b2bd45069e4214c0","false","12810.375000000931","<div align=left> M and N no longer will appear on the left/right of the fixation cross. <br>Instead there will be a note at the bottom of the left or right side  <br>indicating which key you should press for an old or new object:  <br> <br>Press the <strong>right</strong> key to classify an object as <strong>old</strong> and press the <strong>left</strong>, to classify an object as <strong>new</strong>.<br>Please classify the objects as new/old by again placing your index finger on the 'S' and 'L' keys <br>and press them accordingly.<br><br><strong>Old:</strong> This object has been presented before. <br><strong>New:</strong> This object has <strong>not</strong> been presented.<br><br>Now please put your right and left index fingers on the 'S' and 'L' keys of your keyboard. <br>Please respond as fast and as accurately as possible!<br><br>Press SPACE to continue. </div>","32","","","","","","","","","","","","","","","","","","","",""
"categorize-image","176","521854","0.0-3.0-7.0-0.0","4rfj18p1em2nweu","practice_recog","5c5a19299404f10001ff8cbf","5f60e3c0a3b16e07647b2ff9","5f638038b2bd45069e4214c0","true","7238.774999976158","./Stimuli/ImagesPractice/SN221.jpg","83","","","","test","true","","83","","SN","SN221.jpg","","new","65","5","practice_recog","left","","","",""
"categorize-image","177","523893","0.0-3.0-7.0-0.1","4rfj18p1em2nweu","practice_recog","5c5a19299404f10001ff8cbf","5f60e3c0a3b16e07647b2ff9","5f638038b2bd45069e4214c0","true","1527.155000017956","./Stimuli/ImagesPractice/LN109.jpg","83","","","","test","true","","83","","LN","LN109.jpg","","new","66","5","practice_recog","left","","","",""
"categorize-image","178","525510","0.0-3.0-7.0-0.2","4rfj18p1em2nweu","practice_recog","5c5a19299404f10001ff8cbf","5f60e3c0a3b16e07647b2ff9","5f638038b2bd45069e4214c0","true","1109.8100000526756","./Stimuli/ImagesPractice/SN205.jpg","76","","","","test","true","","76","","SN","SN205.jpg","","old","67","5","practice_recog","right","","","",""
"categorize-image","179","526672","0.0-3.0-7.0-0.3","4rfj18p1em2nweu","practice_recog","5c5a19299404f10001ff8cbf","5f60e3c0a3b16e07647b2ff9","5f638038b2bd45069e4214c0","true","657.7100000577047","./Stimuli/ImagesPractice/SN220.jpg","76","","","","test","true","","76","","SN","SN220.jpg","","old","68","5","practice_recog","right","","","",""
"categorize-image","180","528729","0.0-3.0-7.0-0.4","4rfj18p1em2nweu","practice_recog","5c5a19299404f10001ff8cbf","5f60e3c0a3b16e07647b2ff9","5f638038b2bd45069e4214c0","true","1550.9150000289083","./Stimuli/ImagesPractice/LM55.jpg","83","","","","test","true","","83","","LM","LM55.jpg","","new","69","5","practice_recog","left","","","",""
"categorize-image","181","529965","0.0-3.0-7.0-0.5","4rfj18p1em2nweu","practice_recog","5c5a19299404f10001ff8cbf","5f60e3c0a3b16e07647b2ff9","5f638038b2bd45069e4214c0","true","729.5699999667704","./Stimuli/ImagesPractice/LN4.jpg","76","","","","test","true","","76","","LN","LN4.jpg","","old","70","5","practice_recog","right","","","",""
"categorize-image","182","532200","0.0-3.0-7.0-0.6","4rfj18p1em2nweu","practice_recog","5c5a19299404f10001ff8cbf","5f60e3c0a3b16e07647b2ff9","5f638038b2bd45069e4214c0","true","1725.099999923259","./Stimuli/ImagesPractice/SN222.jpg","76","","","","test","true","","76","","SN","SN222.jpg","","old","71","5","practice_recog","right","","","",""
"categorize-image","183","533753","0.0-3.0-7.0-0.7","4rfj18p1em2nweu","practice_recog","5c5a19299404f10001ff8cbf","5f60e3c0a3b16e07647b2ff9","5f638038b2bd45069e4214c0","true","1049.0950000239536","./Stimuli/ImagesPractice/LN17.jpg","83","","","","test","true","","83","","LN","LN17.jpg","","new","72","5","practice_recog","left","","","",""
"categorize-image","184","535178","0.0-3.0-7.0-0.8","4rfj18p1em2nweu","practice_recog","5c5a19299404f10001ff8cbf","5f60e3c0a3b16e07647b2ff9","5f638038b2bd45069e4214c0","true","910.3950000135228","./Stimuli/ImagesPractice/LM224.jpg","83","","","","test","true","","83","","LM","LM224.jpg","","new","73","5","practice_recog","left","","","",""
"categorize-image","185","536349","0.0-3.0-7.0-0.9","4rfj18p1em2nweu","practice_recog","5c5a19299404f10001ff8cbf","5f60e3c0a3b16e07647b2ff9","5f638038b2bd45069e4214c0","true","657.4900000123307","./Stimuli/ImagesPractice/SM37.jpg","83","","","","test","true","","83","","SM","SM37.jpg","","new","74","5","practice_recog","left","","","",""
"categorize-image","186","537556","0.0-3.0-7.0-0.10","4rfj18p1em2nweu","practice_recog","5c5a19299404f10001ff8cbf","5f60e3c0a3b16e07647b2ff9","5f638038b2bd45069e4214c0","true","699.1500000003725","./Stimuli/ImagesPractice/LM239.jpg","76","","","","test","true","","76","","LM","LM239.jpg","","old","75","5","practice_recog","right","","","",""
"categorize-image","187","538693","0.0-3.0-7.0-0.11","4rfj18p1em2nweu","practice_recog","5c5a19299404f10001ff8cbf","5f60e3c0a3b16e07647b2ff9","5f638038b2bd45069e4214c0","true","630.7700000470504","./Stimuli/ImagesPractice/SM62.jpg","76","","","","test","true","","76","","SM","SM62.jpg","","old","76","5","practice_recog","right","","","",""
"categorize-image","188","539892","0.0-3.0-7.0-0.12","4rfj18p1em2nweu","practice_recog","5c5a19299404f10001ff8cbf","5f60e3c0a3b16e07647b2ff9","5f638038b2bd45069e4214c0","true","691.4650000398979","./Stimuli/ImagesPractice/SM35.jpg","76","","","","test","true","","76","","SM","SM35.jpg","","old","77","5","practice_recog","right","","","",""
"categorize-image","189","541117","0.0-3.0-7.0-0.13","4rfj18p1em2nweu","practice_recog","5c5a19299404f10001ff8cbf","5f60e3c0a3b16e07647b2ff9","5f638038b2bd45069e4214c0","true","714.2049999674782","./Stimuli/ImagesPractice/LM143.jpg","83","","","","test","true","","83","","LM","LM143.jpg","","new","78","5","practice_recog","left","","","",""
"categorize-image","190","542244","0.0-3.0-7.0-0.14","4rfj18p1em2nweu","practice_recog","5c5a19299404f10001ff8cbf","5f60e3c0a3b16e07647b2ff9","5f638038b2bd45069e4214c0","true","615.7649999950081","./Stimuli/ImagesPractice/SN75.jpg","76","","","","test","true","","76","","SN","SN75.jpg","","old","79","5","practice_recog","right","","","",""
"categorize-image","191","543451","0.0-3.0-7.0-0.15","4rfj18p1em2nweu","practice_recog","5c5a19299404f10001ff8cbf","5f60e3c0a3b16e07647b2ff9","5f638038b2bd45069e4214c0","true","700.635000015609","./Stimuli/ImagesPractice/LN72.jpg","83","","","","test","true","","83","","LN","LN72.jpg","","new","80","5","practice_recog","left","","","",""
"html-keyboard-response","192","547662","0.0-3.0-8.0","4rfj18p1em2nweu","instructions","5c5a19299404f10001ff8cbf","5f60e3c0a3b16e07647b2ff9","5f638038b2bd45069e4214c0","false","4207.524999976158","<div align=left> Great!<br><br>Are you ready to continue?<br>If you want to reread the instructions and redo the practice trials, please <br>press „Z“.<br><br>You can proceed when you are ready.<br><br>After the presentation of each object, you will receive an instruction whether to <br>remember or to forget the object.<br>We will test your memory of the following pictures only at the very end of <br>the experiment after all learning blocks are completed. <br><br>Press SPACE to CONTINUE when you are ready. </div>","32","","","","","","","","","","","","","","","","","","","",""
"html-keyboard-response","193","549873","0.0-4.0-0.0","4rfj18p1em2nweu","instructions","5c5a19299404f10001ff8cbf","5f60e3c0a3b16e07647b2ff9","5f638038b2bd45069e4214c0","false","2206.2450000084937","<div align=left> The actual experiment is about to start.<br>The practice trials are over!<br><br>Please always respond both fast and accurately!<br><br>Remember: <br> <br><li> Please place your index fingers on the <strong>'S'</strong> and <strong>'L'</strong> keys <br>to respond as fast and accurately as possible.</li><li> Every picture can be classified as either mechanical or non-mechanical.</li><li> If you do not respond in time or commit an error, you will receive a corresponding feedback.<br> Please try to respond as <strong> fast </strong> and as <strong> accurately as possible </strong>.</li><li> Remember the <span style='color: dodgerblue; font-size: 28px'>O</span> pictures. <br></li><li> Please minimize distractions and stay focused. </li><br><br>Press SPACE to START.</div>","32","","","","","","","","","","","","","","","","","","","",""
"html-keyboard-response","194","550577","0.0-4.0-1.0-0.0","4rfj18p1em2nweu","prime","5c5a19299404f10001ff8cbf","5f60e3c0a3b16e07647b2ff9","5f638038b2bd45069e4214c0","false","null","<span style=""color: black; font-size: 48px"">N + M</span>","null","","","","resp_prompt","","","","","","","","","","","","","","","",""
"categorize-image","195","551722","0.0-4.0-1.0-1.0","4rfj18p1em2nweu","prime","5c5a19299404f10001ff8cbf","5f60e3c0a3b16e07647b2ff9","5f638038b2bd45069e4214c0","true","1140.5950000043958","./Stimuli/SelectedImages/SN/SN181.bmp","83","","","","test","true","N + M","83","switch","SN","SN181.bmp","forget","","81","5","prime1","left","","","",""
"html-keyboard-response","196","553723","0.0-4.0-1.0-3.0","4rfj18p1em2nweu","prime","5c5a19299404f10001ff8cbf","5f60e3c0a3b16e07647b2ff9","5f638038b2bd45069e4214c0","false","null","<div style=""align-items: center; display: flex; color: darkorange; font-size: 90px""><b>ø</b></div>","null","","","","forget_cue","","","","","","","","","","","","","","","",""
"html-keyboard-response","197","554429","0.0-4.0-1.0-0.1","4rfj18p1em2nweu","prime","5c5a19299404f10001ff8cbf","5f60e3c0a3b16e07647b2ff9","5f638038b2bd45069e4214c0","false","null","<span style=""color: black; font-size: 48px"">M + N</span>","null","","","","resp_prompt","","","","","","","","","","","","","","","",""
"categorize-image","198","555545","0.0-4.0-1.0-1.1","4rfj18p1em2nweu","prime","5c5a19299404f10001ff8cbf","5f60e3c0a3b16e07647b2ff9","5f638038b2bd45069e4214c0","true","1107.5699999928474","./Stimuli/SelectedImages/SN/SN140.bmp","83","","","","test","false","M + N","76","repetition","SN","SN140.bmp","remember","","82","5","prime1","left","","","",""
"html-keyboard-response","199","556050","0.0-4.0-1.0-2.1-0.1","4rfj18p1em2nweu","prime","5c5a19299404f10001ff8cbf","5f60e3c0a3b16e07647b2ff9","5f638038b2bd45069e4214c0","false","null","<span style=""color: red; font-size: 48px"">Error!</span>","null","","","","feedback","","","","","","","","","","","","","","","",""
"html-keyboard-response","200","558056","0.0-4.0-1.0-3.1","4rfj18p1em2nweu","prime","5c5a19299404f10001ff8cbf","5f60e3c0a3b16e07647b2ff9","5f638038b2bd45069e4214c0","false","null","<div style=""align-items: center; display: flex; color: dodgerblue; font-size: 90px""><b>o</b></div>","null","","","","forget_cue","","","","","","","","","","","","","","","",""
"html-keyboard-response","201","558758","0.0-4.0-1.0-0.2","4rfj18p1em2nweu","prime","5c5a19299404f10001ff8cbf","5f60e3c0a3b16e07647b2ff9","5f638038b2bd45069e4214c0","false","null","<span style=""color: black; font-size: 48px"">N + M</span>","null","","","","resp_prompt","","","","","","","","","","","","","","","",""
"categorize-image","202","560027","0.0-4.0-1.0-1.2","4rfj18p1em2nweu","prime","5c5a19299404f10001ff8cbf","5f60e3c0a3b16e07647b2ff9","5f638038b2bd45069e4214c0","true","1262.3850000090897","./Stimuli/SelectedImages/SM/SM207.bmp","83","","","","test","false","N + M","76","repetition","SM","SM207.bmp","forget","","83","5","prime1","left","","","",""
"html-keyboard-response","203","560537","0.0-4.0-1.0-2.2-0.2","4rfj18p1em2nweu","prime","5c5a19299404f10001ff8cbf","5f60e3c0a3b16e07647b2ff9","5f638038b2bd45069e4214c0","false","null","<span style=""color: red; font-size: 48px"">Error!</span>","null","","","","feedback","","","","","","","","","","","","","","","",""
"html-keyboard-response","204","562543","0.0-4.0-1.0-3.2","4rfj18p1em2nweu","prime","5c5a19299404f10001ff8cbf","5f60e3c0a3b16e07647b2ff9","5f638038b2bd45069e4214c0","false","null","<div style=""align-items: center; display: flex; color: darkorange; font-size: 90px""><b>ø</b></div>","null","","","","forget_cue","","","","","","","","","","","","","","","",""
"html-keyboard-response","205","563249","0.0-4.0-1.0-0.3","4rfj18p1em2nweu","prime","5c5a19299404f10001ff8cbf","5f60e3c0a3b16e07647b2ff9","5f638038b2bd45069e4214c0","false","null","<span style=""color: black; font-size: 48px"">N + M</span>","null","","","","resp_prompt","","","","","","","","","","","","","","","",""
"categorize-image","206","564021","0.0-4.0-1.0-1.3","4rfj18p1em2nweu","prime","5c5a19299404f10001ff8cbf","5f60e3c0a3b16e07647b2ff9","5f638038b2bd45069e4214c0","true","764.7749999305233","./Stimuli/SelectedImages/LN/LN13.bmp","83","","","","test","true","N + M","83","switch","LN","LN13.bmp","forget","","84","5","prime1","left","","","",""
"html-keyboard-response","207","566027","0.0-4.0-1.0-3.3","4rfj18p1em2nweu","prime","5c5a19299404f10001ff8cbf","5f60e3c0a3b16e07647b2ff9","5f638038b2bd45069e4214c0","false","null","<div style=""align-items: center; display: flex; color: darkorange; font-size: 90px""><b>ø</b></div>","null","","","","forget_cue","","","","","","","","","","","","","","","",""
"html-keyboard-response","208","566735","0.0-4.0-1.0-0.4","4rfj18p1em2nweu","prime","5c5a19299404f10001ff8cbf","5f60e3c0a3b16e07647b2ff9","5f638038b2bd45069e4214c0","false","null","<span style=""color: black; font-size: 48px"">N + M</span>","null","","","","resp_prompt","","","","","","","","","","","","","","","",""
"categorize-image","209","567331","0.0-4.0-1.0-1.4","4rfj18p1em2nweu","prime","5c5a19299404f10001ff8cbf","5f60e3c0a3b16e07647b2ff9","5f638038b2bd45069e4214c0","true","586.5200000116602","./Stimuli/SelectedImages/LM/LM157.bmp","76","","","","test","true","N + M","76","switch","LM","LM157.bmp","forget","","85","5","prime1","right","","","",""
"html-keyboard-response","210","569333","0.0-4.0-1.0-3.4","4rfj18p1em2nweu","prime","5c5a19299404f10001ff8cbf","5f60e3c0a3b16e07647b2ff9","5f638038b2bd45069e4214c0","false","null","<div style=""align-items: center; display: flex; color: darkorange; font-size: 90px""><b>ø</b></div>","null","","","","forget_cue","","","","","","","","","","","","","","","",""
"html-keyboard-response","211","570037","0.0-4.0-1.0-0.5","4rfj18p1em2nweu","prime","5c5a19299404f10001ff8cbf","5f60e3c0a3b16e07647b2ff9","5f638038b2bd45069e4214c0","false","null","<span style=""color: black; font-size: 48px"">M + N</span>","null","","","","resp_prompt","","","","","","","","","","","","","","","",""
"categorize-image","212","570805","0.0-4.0-1.0-1.5","4rfj18p1em2nweu","prime","5c5a19299404f10001ff8cbf","5f60e3c0a3b16e07647b2ff9","5f638038b2bd45069e4214c0","true","759.4299999764189","./Stimuli/SelectedImages/LN/LN42.bmp","76","","","","test","true","M + N","76","repetition","LN","LN42.bmp","remember","","86","5","prime1","right","","","",""
"html-keyboard-response","213","572809","0.0-4.0-1.0-3.5","4rfj18p1em2nweu","prime","5c5a19299404f10001ff8cbf","5f60e3c0a3b16e07647b2ff9","5f638038b2bd45069e4214c0","false","null","<div style=""align-items: center; display: flex; color: dodgerblue; font-size: 90px""><b>o</b></div>","null","","","","forget_cue","","","","","","","","","","","","","","","",""
"html-keyboard-response","214","573514","0.0-4.0-1.0-0.6","4rfj18p1em2nweu","prime","5c5a19299404f10001ff8cbf","5f60e3c0a3b16e07647b2ff9","5f638038b2bd45069e4214c0","false","null","<span style=""color: black; font-size: 48px"">N + M</span>","null","","","","resp_prompt","","","","","","","","","","","","","","","",""
"categorize-image","215","574107","0.0-4.0-1.0-1.6","4rfj18p1em2nweu","prime","5c5a19299404f10001ff8cbf","5f60e3c0a3b16e07647b2ff9","5f638038b2bd45069e4214c0","true","587.2150000650436","./Stimuli/SelectedImages/LM/LM57.bmp","83","","","","test","false","N + M","76","switch","LM","LM57.bmp","forget","","87","5","prime1","left","","","",""
"html-keyboard-response","216","574614","0.0-4.0-1.0-2.6-0.6","4rfj18p1em2nweu","prime","5c5a19299404f10001ff8cbf","5f60e3c0a3b16e07647b2ff9","5f638038b2bd45069e4214c0","false","null","<span style=""color: red; font-size: 48px"">Error!</span>","null","","","","feedback","","","","","","","","","","","","","","","",""
"html-keyboard-response","217","576618","0.0-4.0-1.0-3.6","4rfj18p1em2nweu","prime","5c5a19299404f10001ff8cbf","5f60e3c0a3b16e07647b2ff9","5f638038b2bd45069e4214c0","false","null","<div style=""align-items: center; display: flex; color: darkorange; font-size: 90px""><b>ø</b></div>","null","","","","forget_cue","","","","","","","","","","","","","","","",""
"html-keyboard-response","218","577323","0.0-4.0-1.0-0.7","4rfj18p1em2nweu","prime","5c5a19299404f10001ff8cbf","5f60e3c0a3b16e07647b2ff9","5f638038b2bd45069e4214c0","false","null","<span style=""color: black; font-size: 48px"">N + M</span>","null","","","","resp_prompt","","","","","","","","","","","","","","","",""
"categorize-image","219","577967","0.0-4.0-1.0-1.7","4rfj18p1em2nweu","prime","5c5a19299404f10001ff8cbf","5f60e3c0a3b16e07647b2ff9","5f638038b2bd45069e4214c0","true","638.1200000178069","./Stimuli/SelectedImages/LN/LN131.bmp","83","","","","test","true","N + M","83","switch","LN","LN131.bmp","remember","","88","5","prime1","left","","","",""
"html-keyboard-response","220","579971","0.0-4.0-1.0-3.7","4rfj18p1em2nweu","prime","5c5a19299404f10001ff8cbf","5f60e3c0a3b16e07647b2ff9","5f638038b2bd45069e4214c0","false","null","<div style=""align-items: center; display: flex; color: dodgerblue; font-size: 90px""><b>o</b></div>","null","","","","forget_cue","","","","","","","","","","","","","","","",""
"html-keyboard-response","221","580673","0.0-4.0-1.0-0.8","4rfj18p1em2nweu","prime","5c5a19299404f10001ff8cbf","5f60e3c0a3b16e07647b2ff9","5f638038b2bd45069e4214c0","false","null","<span style=""color: black; font-size: 48px"">M + N</span>","null","","","","resp_prompt","","","","","","","","","","","","","","","",""
"categorize-image","222","581576","0.0-4.0-1.0-1.8","4rfj18p1em2nweu","prime","5c5a19299404f10001ff8cbf","5f60e3c0a3b16e07647b2ff9","5f638038b2bd45069e4214c0","true","898.9949999377131","./Stimuli/SelectedImages/SN/SN182.bmp","83","","","","test","false","M + N","76","repetition","SN","SN182.bmp","forget","","89","5","prime1","left","","","",""
"html-keyboard-response","223","582082","0.0-4.0-1.0-2.8-0.8","4rfj18p1em2nweu","prime","5c5a19299404f10001ff8cbf","5f60e3c0a3b16e07647b2ff9","5f638038b2bd45069e4214c0","false","null","<span style=""color: red; font-size: 48px"">Error!</span>","null","","","","feedback","","","","","","","","","","","","","","","",""
"html-keyboard-response","224","584087","0.0-4.0-1.0-3.8","4rfj18p1em2nweu","prime","5c5a19299404f10001ff8cbf","5f60e3c0a3b16e07647b2ff9","5f638038b2bd45069e4214c0","false","null","<div style=""align-items: center; display: flex; color: darkorange; font-size: 90px""><b>ø</b></div>","null","","","","forget_cue","","","","","","","","","","","","","","","",""
"html-keyboard-response","225","584791","0.0-4.0-1.0-0.9","4rfj18p1em2nweu","prime","5c5a19299404f10001ff8cbf","5f60e3c0a3b16e07647b2ff9","5f638038b2bd45069e4214c0","false","null","<span style=""color: black; font-size: 48px"">N + M</span>","null","","","","resp_prompt","","","","","","","","","","","","","","","",""
"categorize-image","226","585278","0.0-4.0-1.0-1.9","4rfj18p1em2nweu","prime","5c5a19299404f10001ff8cbf","5f60e3c0a3b16e07647b2ff9","5f638038b2bd45069e4214c0","true","483.0850000726059","./Stimuli/SelectedImages/SM/SM108.bmp","83","","","","test","false","N + M","76","switch","SM","SM108.bmp","forget","","90","5","prime1","left","","","",""
"html-keyboard-response","227","585783","0.0-4.0-1.0-2.9-0.9","4rfj18p1em2nweu","prime","5c5a19299404f10001ff8cbf","5f60e3c0a3b16e07647b2ff9","5f638038b2bd45069e4214c0","false","null","<span style=""color: red; font-size: 48px"">Error!</span>","null","","","","feedback","","","","","","","","","","","","","","","",""
"html-keyboard-response","228","587787","0.0-4.0-1.0-3.9","4rfj18p1em2nweu","prime","5c5a19299404f10001ff8cbf","5f60e3c0a3b16e07647b2ff9","5f638038b2bd45069e4214c0","false","null","<div style=""align-items: center; display: flex; color: darkorange; font-size: 90px""><b>ø</b></div>","null","","","","forget_cue","","","","","","","","","","","","","","","",""
"html-keyboard-response","229","588490","0.0-4.0-1.0-0.10","4rfj18p1em2nweu","prime","5c5a19299404f10001ff8cbf","5f60e3c0a3b16e07647b2ff9","5f638038b2bd45069e4214c0","false","null","<span style=""color: black; font-size: 48px"">M + N</span>","null","","","","resp_prompt","","","","","","","","","","","","","","","",""
"categorize-image","230","588737","0.0-4.0-1.0-1.10","4rfj18p1em2nweu","prime","5c5a19299404f10001ff8cbf","5f60e3c0a3b16e07647b2ff9","5f638038b2bd45069e4214c0","true","241.7600000044331","./Stimuli/SelectedImages/LN/LN101.bmp","76","","","","test","true","M + N","76","repetition","LN","LN101.bmp","forget","","91","5","prime1","right","","","",""
"html-keyboard-response","231","590746","0.0-4.0-1.0-3.10","4rfj18p1em2nweu","prime","5c5a19299404f10001ff8cbf","5f60e3c0a3b16e07647b2ff9","5f638038b2bd45069e4214c0","false","null","<div style=""align-items: center; display: flex; color: darkorange; font-size: 90px""><b>ø</b></div>","null","","","","forget_cue","","","","","","","","","","","","","","","",""
"html-keyboard-response","232","591453","0.0-4.0-1.0-0.11","4rfj18p1em2nweu","prime","5c5a19299404f10001ff8cbf","5f60e3c0a3b16e07647b2ff9","5f638038b2bd45069e4214c0","false","null","<span style=""color: black; font-size: 48px"">N + M</span>","null","","","","resp_prompt","","","","","","","","","","","","","","","",""
"categorize-image","233","591895","0.0-4.0-1.0-1.11","4rfj18p1em2nweu","prime","5c5a19299404f10001ff8cbf","5f60e3c0a3b16e07647b2ff9","5f638038b2bd45069e4214c0","true","438.5199999669567","./Stimuli/SelectedImages/LN/LN149.bmp","83","","","","test","true","N + M","83","repetition","LN","LN149.bmp","forget","","92","5","prime1","left","","","",""
"html-keyboard-response","234","593898","0.0-4.0-1.0-3.11","4rfj18p1em2nweu","prime","5c5a19299404f10001ff8cbf","5f60e3c0a3b16e07647b2ff9","5f638038b2bd45069e4214c0","false","null","<div style=""align-items: center; display: flex; color: darkorange; font-size: 90px""><b>ø</b></div>","null","","","","forget_cue","","","","","","","","","","","","","","","",""
"html-keyboard-response","235","594602","0.0-4.0-1.0-0.12","4rfj18p1em2nweu","prime","5c5a19299404f10001ff8cbf","5f60e3c0a3b16e07647b2ff9","5f638038b2bd45069e4214c0","false","null","<span style=""color: black; font-size: 48px"">N + M</span>","null","","","","resp_prompt","","","","","","","","","","","","","","","",""
"categorize-image","236","595336","0.0-4.0-1.0-1.12","4rfj18p1em2nweu","prime","5c5a19299404f10001ff8cbf","5f60e3c0a3b16e07647b2ff9","5f638038b2bd45069e4214c0","true","728.9050000254065","./Stimuli/SelectedImages/LM/LM179.bmp","83","","","","test","false","N + M","76","switch","LM","LM179.bmp","remember","","93","5","prime1","left","","","",""
"html-keyboard-response","237","595841","0.0-4.0-1.0-2.12-0.12","4rfj18p1em2nweu","prime","5c5a19299404f10001ff8cbf","5f60e3c0a3b16e07647b2ff9","5f638038b2bd45069e4214c0","false","null","<span style=""color: red; font-size: 48px"">Error!</span>","null","","","","feedback","","","","","","","","","","","","","","","",""
"html-keyboard-response","238","597845","0.0-4.0-1.0-3.12","4rfj18p1em2nweu","prime","5c5a19299404f10001ff8cbf","5f60e3c0a3b16e07647b2ff9","5f638038b2bd45069e4214c0","false","null","<div style=""align-items: center; display: flex; color: dodgerblue; font-size: 90px""><b>o</b></div>","null","","","","forget_cue","","","","","","","","","","","","","","","",""
