"trial_type","trial_index","time_elapsed","internal_node_id","subject","exp_part","prolific_PID","study_ID","session_ID","use","rt","stimulus","key_press","button_pressed","responses","question_order","trial_part","correct","resp_map","correct_resp","probe_condition","category","image","forget_condition","list","trial_num","block_num","block","response","test_part","n_span","sequence","num_spaces"
"pavlovia","0","13","0.0-0.0","guqu6a3tq61bu3c","","5e401a29d96ada000bdf57b4","5f60e3c0a3b16e07647b2ff9","5f61dbf95de76119658c681b","false","","","","","","","","","","","","","","","","","","","","","","",""
"html-keyboard-response","1","9890","0.0-1.0-0.0-0.0","guqu6a3tq61bu3c","welcome","5e401a29d96ada000bdf57b4","5f60e3c0a3b16e07647b2ff9","5f61dbf95de76119658c681b","false","9871.820000000298","<div align=left>Dear participant, <br> thank you for participating in an online study of the Cognition, Action, and Sustainability Unit of the University of Freiburg! <br> <br>The aim of this study is to examine our ability to remember previously learned information. <br>Our goal is to find out, whether our memory improves, when we only remember information that is relevant to us. <br>The experiment will take about 35 minutes to complete. <br> <br>Please, note that you can only participate in this study if you are using a device with a keyboard (PC, Laptop etc.) <br>and not if you are using a mobile device such as a tablet or smartphone.<br> <br>Press 'SPACE' to proceed to the experiment. </div>","32","","","","","","","","","","","","","","","","","","","",""
"html-keyboard-response","2","12610","0.0-1.0-0.0-1.0","guqu6a3tq61bu3c","welcome","5e401a29d96ada000bdf57b4","5f60e3c0a3b16e07647b2ff9","5f61dbf95de76119658c681b","false","2717.079999973066","<div align=left><strong> Time Course of this experiment: </strong> <br><br> <strong> 1.</strong>  First, please fill in some information regarding your demographic data. <br><br> <strong> 2.</strong>  Next, your task will be to classify everyday objects. <br>In addition, you will be asked to remember certain objects and recall them later. <br>Working on these tasks requires your undivided attention and concentration.<br>It is therefore essential that you eliminate any sources of distraction in your  <br>environment and ensure that you will not be disturbed. <br><br><strong> 3.</strong>  At the end of the experiment, you will be asked to answer a few additional questions. <br> <br><strong> Important:</strong> After finishing the experiment, only close the browser window <br> by clicking on the 'end the experiment'-button when you are asked to do so. <br>Closing the browser window prematurely will make the allocation of your participation credit impossible. <br><br> Press 'SPACE' to start the experiment. </div>","32","","","","","","","","","","","","","","","","","","","",""
"html-button-response","3","15230","0.0-1.0-0.0-2.0","guqu6a3tq61bu3c","welcome","5e401a29d96ada000bdf57b4","5f60e3c0a3b16e07647b2ff9","5f61dbf95de76119658c681b","true","2616.425000014715","<div align=left><strong> Informed consent </strong>  <br>The aim of our research is to better understand human behavior and mental processes. <br>In the following study your behavior (e.g. choices, reaction times) will be studied. <br> <br><strong> Voluntariness and Anonymity </strong> <br>Your participation in this study is  <strong> voluntary</strong>.<br>You may withdraw your consent to participate at any time without providing a reason for doing so and without fear of prejudice. <br><br>As no personal data will be collected, <strong>your data and your person cannot be connected after data collection</strong> – the data-set is anonymous. <br>Respectively, deletion of your data will not be possible after data collection has been completed, as we cannot retrace your data-set.<br>The results and anonymized data collected in this study will be published as a scientific publication. <br>This will happen in an <strong>anonymized format</strong>, so that no data can be traced back to a specific person. <br> <br>The anonymized data of this study will be made available to other researchers and/or in a data archive on the Internet as a means of transparency and to enable subsequent re-use. By doing so, this study follows the recommendations of the Deutsche Forschungsgemeinschaft (DFG, German Research Foundation) and Deutsche Gesellschaft für Psychologie (DGPS, German Psychological Society) regarding quality assurance in research.<br>If you have any questions now or after the experiment, please contact our team (experiments@cs.uni-freiburg.de).<br><br><br>I hereby declare, that I understand the above described conditions of participation and I agree to participate under these conditions. <br><br> </div>","","0","","","","","","","","","","","","","","","","","","",""
"html-keyboard-response","4","27677","0.0-1.0-0.0-3.0","guqu6a3tq61bu3c","welcome","5e401a29d96ada000bdf57b4","5f60e3c0a3b16e07647b2ff9","5f61dbf95de76119658c681b","false","12443.910000030883","<div align=left><strong> General information concerning the experiment </strong>  <br> <br>Please follow the instructions:<ol> <li><strong> Do not leave this tab (your browser window) during the experiment and do not reload this tab! </strong>  <br>If you do switch tabs/windows during the experiment (to check your mail or visit another website, for example), <br>the experiment will end automatically and you will <strong>not receive credit</strong> for your participation. <br>Repeated participation or resumption of the experiment is impossible.</li> <br><li>Please close all other programs for the duration of your participation. </li> <br><li>Please mute or turn off your phone and put it out of your reach. </li> <br><li>Please also take off any disturbing accessories (such as wristwatches, bracelets, etc.). </li> <br><li>If you have music playing in the background, please turn it off now. </li> <br></ol>Thank you! <br>Press 'SPACE' to continue. </div>","32","","","","","","","","","","","","","","","","","","","",""
"survey-text","5","30510","0.0-1.0-1.0-0.0","guqu6a3tq61bu3c","demographics","5e401a29d96ada000bdf57b4","5f60e3c0a3b16e07647b2ff9","5f61dbf95de76119658c681b","true","2824.8449999955483","","","","{""age"":""28""}","","","","","","","","","","","","","","","","","",""
"survey-multi-choice","6","50998","0.0-1.0-1.0-1.0","guqu6a3tq61bu3c","demographics","5e401a29d96ada000bdf57b4","5f60e3c0a3b16e07647b2ff9","5f61dbf95de76119658c681b","true","20485.194999957457","","","","{""gender"":""male"",""school"":""others"",""education"":""Completed university degree or equivalent""}","[0,1,2]","","","","","","","","","","","","","","","","",""
"html-keyboard-response","7","60263","0.0-1.0-2.0","guqu6a3tq61bu3c","instructions","5e401a29d96ada000bdf57b4","5f60e3c0a3b16e07647b2ff9","5f61dbf95de76119658c681b","false","9262.164999963716","<div align=left> The experiment is now about to start: <br> <br>In the following part, you will be presented pictures of everyday objects. <br>Your first task is to <strong>classify these objects. </strong> <br> <br> You will classify them either as mechanical or non-mechanical objects. <br> <br>Objects that include any kind of technical mechanism (for example, wheels, switches, levers, <br> electronic components) fall under the category of <strong>mechanical</strong> objects. <br>Only objects without any kind of technical mechanism should be classified as <strong>non-mechanical</strong>. <br><br>Press 'SPACE' to continue. </div>","32","","","","","","","","","","","","","","","","","","","",""
"html-keyboard-response","8","100949","0.0-2.0-0.0","guqu6a3tq61bu3c","instructions","5e401a29d96ada000bdf57b4","5f60e3c0a3b16e07647b2ff9","5f61dbf95de76119658c681b","false","40683.855000010226","<div align=justify>You will classify the objects using the <strong>'S'</strong> and the <strong>'L'</strong> keys on your keyboard.<br>For doing so, please place your <strong>left index finger</strong> on the <strong>'S'</strong> key and place your <strong>right index finger</strong> on the <strong>'L'</strong> key. <br><br> Each trial starts with an instruction, indicating which key ('S'/'L') you need to press to classify <br>the object as mechanical (letter M) or non-mechanical (letter N).<br>The instruction <strong>M + N</strong> indicates that, in the current trial, by pressing the left key ('S') you classify the displayed object as mechanical (M) <br> and by pressing the right key ('L') you classify the object as non-mechanical (N). <br>The instruction <strong>N + M</strong> on the other hand indicates that by pressing the left key ('S') you classify the displayed object as non-mechanical (N) <br> and by pressing the right key ('L') you classify the object as mechanical (M). <br><br>Please press the key corresponding to the correct classification as fast as possible as soon as the object is displayed and try to avoid making mistakes.<br>If you do not respond within a 2 second window, a corresponding feedback will be displayed and the next trial will start.<br> The experiment is divided into multiple blocks to give you the opportunity to take a break after each block. <br>First, you can now practice this task. <br><br>Please place your <strong>LEFT INDEX FINGER</strong> on the 'S' key and your <strong>RIGHT INDEX FINGER</strong> on the 'L' key now. <br><br>Press SPACE to continue.</div>","32","","","","","","","","","","","","","","","","","","","",""
"html-keyboard-response","9","105987","0.0-2.0-1.0","guqu6a3tq61bu3c","instructions","5e401a29d96ada000bdf57b4","5f60e3c0a3b16e07647b2ff9","5f61dbf95de76119658c681b","false","5034.9699999787845","<div align=left> You will now have time to practice this task.<br><br>Remember: <br> <br><li>Please place your index fingers on the <strong>'S'</strong> and <strong>'L'</strong> keys <br>to respond as fast and accurately as possible.</li><li>Every picture can be classified as either mechanical or non-mechanical.</li><li>If you do not respond in time or commit an error, you will receive a corresponding feedback. </li><li> Please try to respond as <strong> fast </strong> and as <strong> accurately as possible </strong> .<br><li>To ensure optimal results, please minimize distractions and stay focused. </li><br><br>Press SPACE to continue.</div>","32","","","","","","","","","","","","","","","","","","","",""
"html-keyboard-response","10","106692","0.0-2.0-2.0-0.0","guqu6a3tq61bu3c","practice_no_cue","5e401a29d96ada000bdf57b4","5f60e3c0a3b16e07647b2ff9","5f61dbf95de76119658c681b","false","null","<span style=""color: black; font-size: 48px"">M + N</span>","null","","","","resp_prompt","","","","","","","","","","","","","","","",""
"categorize-image","11","108074","0.0-2.0-2.0-1.0","guqu6a3tq61bu3c","practice_no_cue","5e401a29d96ada000bdf57b4","5f60e3c0a3b16e07647b2ff9","5f61dbf95de76119658c681b","true","874.2399999755435","./Stimuli/ImagesPractice/SM37.jpg","83","","","","test","true","M + N","83","","SM","SM37.jpg","forget","old","1","1","start","left","","","",""
"html-keyboard-response","12","108778","0.0-2.0-2.0-0.1","guqu6a3tq61bu3c","practice_no_cue","5e401a29d96ada000bdf57b4","5f60e3c0a3b16e07647b2ff9","5f61dbf95de76119658c681b","false","null","<span style=""color: black; font-size: 48px"">N + M</span>","null","","","","resp_prompt","","","","","","","","","","","","","","","",""
"categorize-image","13","110717","0.0-2.0-2.0-1.1","guqu6a3tq61bu3c","practice_no_cue","5e401a29d96ada000bdf57b4","5f60e3c0a3b16e07647b2ff9","5f61dbf95de76119658c681b","true","1432.3100000037812","./Stimuli/ImagesPractice/SM62.jpg","83","","","","test","false","N + M","76","","SM","SM62.jpg","remember","old","2","1","start","left","","","",""
"html-keyboard-response","14","111421","0.0-2.0-2.0-0.2","guqu6a3tq61bu3c","practice_no_cue","5e401a29d96ada000bdf57b4","5f60e3c0a3b16e07647b2ff9","5f61dbf95de76119658c681b","false","null","<span style=""color: black; font-size: 48px"">M + N</span>","null","","","","resp_prompt","","","","","","","","","","","","","","","",""
"categorize-image","15","113638","0.0-2.0-2.0-1.2","guqu6a3tq61bu3c","practice_no_cue","5e401a29d96ada000bdf57b4","5f60e3c0a3b16e07647b2ff9","5f61dbf95de76119658c681b","true","1709.3999999924563","./Stimuli/ImagesPractice/SM97.jpg","83","","","","test","true","M + N","83","","SM","SM97.jpg","forget","old","3","1","start","left","","","",""
"html-keyboard-response","16","114343","0.0-2.0-2.0-0.3","guqu6a3tq61bu3c","practice_no_cue","5e401a29d96ada000bdf57b4","5f60e3c0a3b16e07647b2ff9","5f61dbf95de76119658c681b","false","null","<span style=""color: black; font-size: 48px"">N + M</span>","null","","","","resp_prompt","","","","","","","","","","","","","","","",""
"categorize-image","17","115806","0.0-2.0-2.0-1.3","guqu6a3tq61bu3c","practice_no_cue","5e401a29d96ada000bdf57b4","5f60e3c0a3b16e07647b2ff9","5f61dbf95de76119658c681b","true","956.8250000011176","./Stimuli/ImagesPractice/SN222.jpg","76","","","","test","false","N + M","83","","SN","SN222.jpg","forget","old","4","1","start","right","","","",""
"html-keyboard-response","18","116510","0.0-2.0-2.0-0.4","guqu6a3tq61bu3c","practice_no_cue","5e401a29d96ada000bdf57b4","5f60e3c0a3b16e07647b2ff9","5f61dbf95de76119658c681b","false","null","<span style=""color: black; font-size: 48px"">N + M</span>","null","","","","resp_prompt","","","","","","","","","","","","","","","",""
"categorize-image","19","118290","0.0-2.0-2.0-1.4","guqu6a3tq61bu3c","practice_no_cue","5e401a29d96ada000bdf57b4","5f60e3c0a3b16e07647b2ff9","5f61dbf95de76119658c681b","true","1274.779999977909","./Stimuli/ImagesPractice/SN221.jpg","83","","","","test","true","N + M","83","","SN","SN221.jpg","remember","old","5","1","start","left","","","",""
"html-keyboard-response","20","118996","0.0-2.0-2.0-0.5","guqu6a3tq61bu3c","practice_no_cue","5e401a29d96ada000bdf57b4","5f60e3c0a3b16e07647b2ff9","5f61dbf95de76119658c681b","false","null","<span style=""color: black; font-size: 48px"">N + M</span>","null","","","","resp_prompt","","","","","","","","","","","","","","","",""
"categorize-image","21","120221","0.0-2.0-2.0-1.5","guqu6a3tq61bu3c","practice_no_cue","5e401a29d96ada000bdf57b4","5f60e3c0a3b16e07647b2ff9","5f61dbf95de76119658c681b","true","720.5449999892153","./Stimuli/ImagesPractice/LN15.jpg","83","","","","test","true","N + M","83","","LN","LN15.jpg","forget","old","6","1","start","left","","","",""
"html-keyboard-response","22","120926","0.0-2.0-2.0-0.6","guqu6a3tq61bu3c","practice_no_cue","5e401a29d96ada000bdf57b4","5f60e3c0a3b16e07647b2ff9","5f61dbf95de76119658c681b","false","null","<span style=""color: black; font-size: 48px"">N + M</span>","null","","","","resp_prompt","","","","","","","","","","","","","","","",""
"categorize-image","23","122213","0.0-2.0-2.0-1.6","guqu6a3tq61bu3c","practice_no_cue","5e401a29d96ada000bdf57b4","5f60e3c0a3b16e07647b2ff9","5f61dbf95de76119658c681b","true","778.6049999995157","./Stimuli/ImagesPractice/LN72.jpg","83","","","","test","true","N + M","83","","LN","LN72.jpg","remember","old","7","1","start","left","","","",""
"html-keyboard-response","24","122915","0.0-2.0-2.0-0.7","guqu6a3tq61bu3c","practice_no_cue","5e401a29d96ada000bdf57b4","5f60e3c0a3b16e07647b2ff9","5f61dbf95de76119658c681b","false","null","<span style=""color: black; font-size: 48px"">M + N</span>","null","","","","resp_prompt","","","","","","","","","","","","","","","",""
"categorize-image","25","124467","0.0-2.0-2.0-1.7","guqu6a3tq61bu3c","practice_no_cue","5e401a29d96ada000bdf57b4","5f60e3c0a3b16e07647b2ff9","5f61dbf95de76119658c681b","true","1045.1499999617226","./Stimuli/ImagesPractice/LM224.jpg","83","","","","test","true","M + N","83","","LM","LM224.jpg","remember","old","8","1","start","left","","","",""
"html-keyboard-response","26","125174","0.0-2.0-2.0-0.8","guqu6a3tq61bu3c","practice_no_cue","5e401a29d96ada000bdf57b4","5f60e3c0a3b16e07647b2ff9","5f61dbf95de76119658c681b","false","null","<span style=""color: black; font-size: 48px"">M + N</span>","null","","","","resp_prompt","","","","","","","","","","","","","","","",""
"categorize-image","27","126883","0.0-2.0-2.0-1.8","guqu6a3tq61bu3c","practice_no_cue","5e401a29d96ada000bdf57b4","5f60e3c0a3b16e07647b2ff9","5f61dbf95de76119658c681b","true","1205.1749999518506","./Stimuli/ImagesPractice/SM61.jpg","83","","","","test","true","M + N","83","","SM","SM61.jpg","remember","old","9","1","start","left","","","",""
"html-keyboard-response","28","127587","0.0-2.0-2.0-0.9","guqu6a3tq61bu3c","practice_no_cue","5e401a29d96ada000bdf57b4","5f60e3c0a3b16e07647b2ff9","5f61dbf95de76119658c681b","false","null","<span style=""color: black; font-size: 48px"">N + M</span>","null","","","","resp_prompt","","","","","","","","","","","","","","","",""
"categorize-image","29","128788","0.0-2.0-2.0-1.9","guqu6a3tq61bu3c","practice_no_cue","5e401a29d96ada000bdf57b4","5f60e3c0a3b16e07647b2ff9","5f61dbf95de76119658c681b","true","695.0749999959953","./Stimuli/ImagesPractice/LM143.jpg","83","","","","test","false","N + M","76","","LM","LM143.jpg","remember","old","10","1","start","left","","","",""
"html-keyboard-response","30","129491","0.0-2.0-2.0-0.10","guqu6a3tq61bu3c","practice_no_cue","5e401a29d96ada000bdf57b4","5f60e3c0a3b16e07647b2ff9","5f61dbf95de76119658c681b","false","null","<span style=""color: black; font-size: 48px"">M + N</span>","null","","","","resp_prompt","","","","","","","","","","","","","","","",""
"categorize-image","31","131867","0.0-2.0-2.0-1.10","guqu6a3tq61bu3c","practice_no_cue","5e401a29d96ada000bdf57b4","5f60e3c0a3b16e07647b2ff9","5f61dbf95de76119658c681b","true","1870.9399999934249","./Stimuli/ImagesPractice/LM147.jpg","83","","","","test","true","M + N","83","","LM","LM147.jpg","forget","old","11","1","start","left","","","",""
"html-keyboard-response","32","132572","0.0-2.0-2.0-0.11","guqu6a3tq61bu3c","practice_no_cue","5e401a29d96ada000bdf57b4","5f60e3c0a3b16e07647b2ff9","5f61dbf95de76119658c681b","false","null","<span style=""color: black; font-size: 48px"">N + M</span>","null","","","","resp_prompt","","","","","","","","","","","","","","","",""
"categorize-image","33","134177","0.0-2.0-2.0-1.11","guqu6a3tq61bu3c","practice_no_cue","5e401a29d96ada000bdf57b4","5f60e3c0a3b16e07647b2ff9","5f61dbf95de76119658c681b","true","1101.7200000351295","./Stimuli/ImagesPractice/SN75.jpg","83","","","","test","true","N + M","83","","SN","SN75.jpg","forget","old","12","1","start","left","","","",""
"html-keyboard-response","34","134880","0.0-2.0-2.0-0.12","guqu6a3tq61bu3c","practice_no_cue","5e401a29d96ada000bdf57b4","5f60e3c0a3b16e07647b2ff9","5f61dbf95de76119658c681b","false","null","<span style=""color: black; font-size: 48px"">M + N</span>","null","","","","resp_prompt","","","","","","","","","","","","","","","",""
"categorize-image","35","136242","0.0-2.0-2.0-1.12","guqu6a3tq61bu3c","practice_no_cue","5e401a29d96ada000bdf57b4","5f60e3c0a3b16e07647b2ff9","5f61dbf95de76119658c681b","true","859.4049999956042","./Stimuli/ImagesPractice/LM239.jpg","83","","","","test","true","M + N","83","","LM","LM239.jpg","remember","old","13","1","start","left","","","",""
"html-keyboard-response","36","136947","0.0-2.0-2.0-0.13","guqu6a3tq61bu3c","practice_no_cue","5e401a29d96ada000bdf57b4","5f60e3c0a3b16e07647b2ff9","5f61dbf95de76119658c681b","false","null","<span style=""color: black; font-size: 48px"">N + M</span>","null","","","","resp_prompt","","","","","","","","","","","","","","","",""
"categorize-image","37","138488","0.0-2.0-2.0-1.13","guqu6a3tq61bu3c","practice_no_cue","5e401a29d96ada000bdf57b4","5f60e3c0a3b16e07647b2ff9","5f61dbf95de76119658c681b","true","1036.0750000108965","./Stimuli/ImagesPractice/LM55.jpg","76","","","","test","true","N + M","76","","LM","LM55.jpg","forget","old","14","1","start","right","","","",""
"html-keyboard-response","38","139190","0.0-2.0-2.0-0.14","guqu6a3tq61bu3c","practice_no_cue","5e401a29d96ada000bdf57b4","5f60e3c0a3b16e07647b2ff9","5f61dbf95de76119658c681b","false","null","<span style=""color: black; font-size: 48px"">M + N</span>","null","","","","resp_prompt","","","","","","","","","","","","","","","",""
"categorize-image","39","140787","0.0-2.0-2.0-1.14","guqu6a3tq61bu3c","practice_no_cue","5e401a29d96ada000bdf57b4","5f60e3c0a3b16e07647b2ff9","5f61dbf95de76119658c681b","true","1089.110000000801","./Stimuli/ImagesPractice/LN17.jpg","76","","","","test","true","M + N","76","","LN","LN17.jpg","forget","old","15","1","start","right","","","",""
"html-keyboard-response","40","141490","0.0-2.0-2.0-0.15","guqu6a3tq61bu3c","practice_no_cue","5e401a29d96ada000bdf57b4","5f60e3c0a3b16e07647b2ff9","5f61dbf95de76119658c681b","false","null","<span style=""color: black; font-size: 48px"">M + N</span>","null","","","","resp_prompt","","","","","","","","","","","","","","","",""
"categorize-image","41","143136","0.0-2.0-2.0-1.15","guqu6a3tq61bu3c","practice_no_cue","5e401a29d96ada000bdf57b4","5f60e3c0a3b16e07647b2ff9","5f61dbf95de76119658c681b","true","1142.9849999840371","./Stimuli/ImagesPractice/SM35.jpg","83","","","","test","true","M + N","83","","SM","SM35.jpg","remember","old","16","1","start","left","","","",""
"html-keyboard-response","42","149127","0.0-2.0-3.0","guqu6a3tq61bu3c","break","5e401a29d96ada000bdf57b4","5f60e3c0a3b16e07647b2ff9","5f61dbf95de76119658c681b","false","5988.140000030398","<p style='font-size: 32px;'>Break</><br><br><br><br><br><p style='font-size: 24px;'>In the last block, you committed 3 errors and did not respond in time on 0 trials.
</p><p style='font-size: 24px;'>Try to respond as fast and accurately as possible in the next block as well! </p><p style='font-size: 24px;'>Press SPACE to continue.</p>","32","","","","","","","","","","","","","","","","","","","",""
"html-keyboard-response","43","152013","0.0-2.0-4.0","guqu6a3tq61bu3c","instructions","5e401a29d96ada000bdf57b4","5f60e3c0a3b16e07647b2ff9","5f61dbf95de76119658c681b","false","2883.9850000222214","<div align=left> Great!<br><br>Are you ready to continue?<br><br>If you want to reread the instructions and redo the practice trials, <br>please press „Z“. <br><br>Press SPACE to CONTINUE with the experiment when you are ready. </div>","32","","","","","","","","","","","","","","","","","","","",""
"html-keyboard-response","44","179752","0.0-3.0-0.0","guqu6a3tq61bu3c","instructions","5e401a29d96ada000bdf57b4","5f60e3c0a3b16e07647b2ff9","5f61dbf95de76119658c681b","false","27736.679999972694","<div align=left>Great!<br> <strong>Attention</strong>! You will now receive a second, additional task! <br><br>To this point it was you <strong>first task</strong> to correctly <strong>classify objects</strong>. <br><br>As mentioned in the beginning, we aim to examine how well humans can remember previously learned information.<br>We would like to find out whether our memory improves if we only remember information that is relevant to us. <br><br>Therefore, your <strong>second task</strong> will be to <strong>remember</strong> the pictures you are to categorize. <br> After the learning phase, there will be a memory test phase, in which you will be asked to indicate whether you have seen a picture before or not. <br>Some, but not all pictures shown in the learning phase will appear in the memory test phase.<br>After classifying a picture, you will be told whether you should remember it for the memory test phase or not. <br>Thus, some pictures can be forgotten, whereas others have to be remembered. <br><br>Note: From now on, feedback will only be displayed if you responded incorrectly or not in time.<br><br>Press SPACE to continue.</div>","32","","","","","","","","","","","","","","","","","","","",""
"html-keyboard-response","45","190449","0.0-3.0-1.0","guqu6a3tq61bu3c","instructions","5e401a29d96ada000bdf57b4","5f60e3c0a3b16e07647b2ff9","5f61dbf95de76119658c681b","false","10695.039999962319","<div align=left>In the following part, you will thus have to remember only some pictures. <br>Immediately after seeing and classifying the picture, a symbol will be displayed, indicating whether you should remember or forget the previous picture. <br><br>A <span style='color: dodgerblue; font-size: 28px'>O</span> indicates REMEMBER. That means, you have to remember this picture, because it will be tested later. <br><br>A <span style='color: darkorange; font-size:28px'>Ø</span> indicates FORGET. You do not have to remember this picture. <br><br> As you will have to remember a lot of pictures, it will be hard for you to remember all of them. <br>It will put you at an advantage if you instantly forget the pictures you are not asked to remember. <br> This will make it easier for you to remember the pictures that will be tested afterwards. <br><br>Press SPACE to continue.</div>","32","","","","","","","","","","","","","","","","","","","",""
"html-keyboard-response","46","192843","0.0-3.0-2.0","guqu6a3tq61bu3c","instructions","5e401a29d96ada000bdf57b4","5f60e3c0a3b16e07647b2ff9","5f61dbf95de76119658c681b","false","2391.185000014957","<div align=left> Now you have the chance to practice both tasks together.<br><br>Remember: <br> <br><li>Please place your index fingers on the <strong>'S'</strong> and <strong>'L'</strong> keys <br>to respond as fast and accurately as possible.</li><li>Every picture can be classified as either mechanical or non-mechanical.</li><li>If you do not respond in time or commit an error, you will receive a corresponding feedback. <br>Please try to respond as <strong> fast </strong> and as <strong> accurately as possible </strong>.</li><li> Please remember only the to-be-remembered <span style='color: dodgerblue; font-size: 28px'>O</span> pictures. <br></li><li> Please minimize distractions and stay focused. </li><br><br>Press SPACE to START</div>","32","","","","","","","","","","","","","","","","","","","",""
"html-keyboard-response","47","193548","0.0-3.0-3.0-0.0","guqu6a3tq61bu3c","practice_cue","5e401a29d96ada000bdf57b4","5f60e3c0a3b16e07647b2ff9","5f61dbf95de76119658c681b","false","null","<span style=""color: black; font-size: 48px"">M + N</span>","null","","","","resp_prompt","","","","","","","","","","","","","","","",""
"categorize-image","48","194071","0.0-3.0-3.0-1.0","guqu6a3tq61bu3c","practice_cue","5e401a29d96ada000bdf57b4","5f60e3c0a3b16e07647b2ff9","5f61dbf95de76119658c681b","true","516.875000030268","./Stimuli/ImagesPractice/SM37.jpg","83","","","","test","true","M + N","83","","SM","SM37.jpg","forget","old","17","2","practice_forget","left","","","",""
"html-keyboard-response","49","196075","0.0-3.0-3.0-3.0","guqu6a3tq61bu3c","practice_cue","5e401a29d96ada000bdf57b4","5f60e3c0a3b16e07647b2ff9","5f61dbf95de76119658c681b","false","null","<div style=""align-items: center; display: flex; color: darkorange; font-size: 90px""><b>ø</b></div>","null","","","","forget_cue","","","","","","","","","","","","","","","",""
"html-keyboard-response","50","196778","0.0-3.0-3.0-0.1","guqu6a3tq61bu3c","practice_cue","5e401a29d96ada000bdf57b4","5f60e3c0a3b16e07647b2ff9","5f61dbf95de76119658c681b","false","null","<span style=""color: black; font-size: 48px"">N + M</span>","null","","","","resp_prompt","","","","","","","","","","","","","","","",""
"categorize-image","51","197520","0.0-3.0-3.0-1.1","guqu6a3tq61bu3c","practice_cue","5e401a29d96ada000bdf57b4","5f60e3c0a3b16e07647b2ff9","5f61dbf95de76119658c681b","true","736.2250000005588","./Stimuli/ImagesPractice/SN221.jpg","83","","","","test","true","N + M","83","","SN","SN221.jpg","remember","old","18","2","practice_forget","left","","","",""
"html-keyboard-response","52","199525","0.0-3.0-3.0-3.1","guqu6a3tq61bu3c","practice_cue","5e401a29d96ada000bdf57b4","5f60e3c0a3b16e07647b2ff9","5f61dbf95de76119658c681b","false","null","<div style=""align-items: center; display: flex; color: dodgerblue; font-size: 90px""><b>o</b></div>","null","","","","forget_cue","","","","","","","","","","","","","","","",""
"html-keyboard-response","53","200227","0.0-3.0-3.0-0.2","guqu6a3tq61bu3c","practice_cue","5e401a29d96ada000bdf57b4","5f60e3c0a3b16e07647b2ff9","5f61dbf95de76119658c681b","false","null","<span style=""color: black; font-size: 48px"">M + N</span>","null","","","","resp_prompt","","","","","","","","","","","","","","","",""
"categorize-image","54","200905","0.0-3.0-3.0-1.2","guqu6a3tq61bu3c","practice_cue","5e401a29d96ada000bdf57b4","5f60e3c0a3b16e07647b2ff9","5f61dbf95de76119658c681b","true","672.6950000156648","./Stimuli/ImagesPractice/SM97.jpg","83","","","","test","true","M + N","83","","SM","SM97.jpg","forget","old","19","2","practice_forget","left","","","",""
"html-keyboard-response","55","202909","0.0-3.0-3.0-3.2","guqu6a3tq61bu3c","practice_cue","5e401a29d96ada000bdf57b4","5f60e3c0a3b16e07647b2ff9","5f61dbf95de76119658c681b","false","null","<div style=""align-items: center; display: flex; color: darkorange; font-size: 90px""><b>ø</b></div>","null","","","","forget_cue","","","","","","","","","","","","","","","",""
"html-keyboard-response","56","203614","0.0-3.0-3.0-0.3","guqu6a3tq61bu3c","practice_cue","5e401a29d96ada000bdf57b4","5f60e3c0a3b16e07647b2ff9","5f61dbf95de76119658c681b","false","null","<span style=""color: black; font-size: 48px"">M + N</span>","null","","","","resp_prompt","","","","","","","","","","","","","","","",""
"categorize-image","57","204654","0.0-3.0-3.0-1.3","guqu6a3tq61bu3c","practice_cue","5e401a29d96ada000bdf57b4","5f60e3c0a3b16e07647b2ff9","5f61dbf95de76119658c681b","true","1033.835000009276","./Stimuli/ImagesPractice/LM147.jpg","83","","","","test","true","M + N","83","","LM","LM147.jpg","forget","old","20","2","practice_forget","left","","","",""
"html-keyboard-response","58","206657","0.0-3.0-3.0-3.3","guqu6a3tq61bu3c","practice_cue","5e401a29d96ada000bdf57b4","5f60e3c0a3b16e07647b2ff9","5f61dbf95de76119658c681b","false","null","<div style=""align-items: center; display: flex; color: darkorange; font-size: 90px""><b>ø</b></div>","null","","","","forget_cue","","","","","","","","","","","","","","","",""
"html-keyboard-response","59","207361","0.0-3.0-3.0-0.4","guqu6a3tq61bu3c","practice_cue","5e401a29d96ada000bdf57b4","5f60e3c0a3b16e07647b2ff9","5f61dbf95de76119658c681b","false","null","<span style=""color: black; font-size: 48px"">N + M</span>","null","","","","resp_prompt","","","","","","","","","","","","","","","",""
"categorize-image","60","208403","0.0-3.0-3.0-1.4","guqu6a3tq61bu3c","practice_cue","5e401a29d96ada000bdf57b4","5f60e3c0a3b16e07647b2ff9","5f61dbf95de76119658c681b","true","1035.9049999970011","./Stimuli/ImagesPractice/LM55.jpg","76","","","","test","true","N + M","76","","LM","LM55.jpg","forget","old","21","2","practice_forget","right","","","",""
"html-keyboard-response","61","210410","0.0-3.0-3.0-3.4","guqu6a3tq61bu3c","practice_cue","5e401a29d96ada000bdf57b4","5f60e3c0a3b16e07647b2ff9","5f61dbf95de76119658c681b","false","null","<div style=""align-items: center; display: flex; color: darkorange; font-size: 90px""><b>ø</b></div>","null","","","","forget_cue","","","","","","","","","","","","","","","",""
"html-keyboard-response","62","211112","0.0-3.0-3.0-0.5","guqu6a3tq61bu3c","practice_cue","5e401a29d96ada000bdf57b4","5f60e3c0a3b16e07647b2ff9","5f61dbf95de76119658c681b","false","null","<span style=""color: black; font-size: 48px"">N + M</span>","null","","","","resp_prompt","","","","","","","","","","","","","","","",""
"categorize-image","63","211902","0.0-3.0-3.0-1.5","guqu6a3tq61bu3c","practice_cue","5e401a29d96ada000bdf57b4","5f60e3c0a3b16e07647b2ff9","5f61dbf95de76119658c681b","true","786.1750000156462","./Stimuli/ImagesPractice/LN72.jpg","83","","","","test","true","N + M","83","","LN","LN72.jpg","remember","old","22","2","practice_forget","left","","","",""
"html-keyboard-response","64","213906","0.0-3.0-3.0-3.5","guqu6a3tq61bu3c","practice_cue","5e401a29d96ada000bdf57b4","5f60e3c0a3b16e07647b2ff9","5f61dbf95de76119658c681b","false","null","<div style=""align-items: center; display: flex; color: dodgerblue; font-size: 90px""><b>o</b></div>","null","","","","forget_cue","","","","","","","","","","","","","","","",""
"html-keyboard-response","65","214609","0.0-3.0-3.0-0.6","guqu6a3tq61bu3c","practice_cue","5e401a29d96ada000bdf57b4","5f60e3c0a3b16e07647b2ff9","5f61dbf95de76119658c681b","false","null","<span style=""color: black; font-size: 48px"">N + M</span>","null","","","","resp_prompt","","","","","","","","","","","","","","","",""
"categorize-image","66","215391","0.0-3.0-3.0-1.6","guqu6a3tq61bu3c","practice_cue","5e401a29d96ada000bdf57b4","5f60e3c0a3b16e07647b2ff9","5f61dbf95de76119658c681b","true","776.0199999902397","./Stimuli/ImagesPractice/LN15.jpg","83","","","","test","true","N + M","83","","LN","LN15.jpg","forget","old","23","2","practice_forget","left","","","",""
"html-keyboard-response","67","217396","0.0-3.0-3.0-3.6","guqu6a3tq61bu3c","practice_cue","5e401a29d96ada000bdf57b4","5f60e3c0a3b16e07647b2ff9","5f61dbf95de76119658c681b","false","null","<div style=""align-items: center; display: flex; color: darkorange; font-size: 90px""><b>ø</b></div>","null","","","","forget_cue","","","","","","","","","","","","","","","",""
"html-keyboard-response","68","218099","0.0-3.0-3.0-0.7","guqu6a3tq61bu3c","practice_cue","5e401a29d96ada000bdf57b4","5f60e3c0a3b16e07647b2ff9","5f61dbf95de76119658c681b","false","null","<span style=""color: black; font-size: 48px"">N + M</span>","null","","","","resp_prompt","","","","","","","","","","","","","","","",""
"categorize-image","69","219150","0.0-3.0-3.0-1.7","guqu6a3tq61bu3c","practice_cue","5e401a29d96ada000bdf57b4","5f60e3c0a3b16e07647b2ff9","5f61dbf95de76119658c681b","true","1045.3749999869615","./Stimuli/ImagesPractice/SM62.jpg","76","","","","test","true","N + M","76","","SM","SM62.jpg","remember","old","24","2","practice_forget","right","","","",""
"html-keyboard-response","70","221151","0.0-3.0-3.0-3.7","guqu6a3tq61bu3c","practice_cue","5e401a29d96ada000bdf57b4","5f60e3c0a3b16e07647b2ff9","5f61dbf95de76119658c681b","false","null","<div style=""align-items: center; display: flex; color: dodgerblue; font-size: 90px""><b>o</b></div>","null","","","","forget_cue","","","","","","","","","","","","","","","",""
"html-keyboard-response","71","221853","0.0-3.0-3.0-0.8","guqu6a3tq61bu3c","practice_cue","5e401a29d96ada000bdf57b4","5f60e3c0a3b16e07647b2ff9","5f61dbf95de76119658c681b","false","null","<span style=""color: black; font-size: 48px"">N + M</span>","null","","","","resp_prompt","","","","","","","","","","","","","","","",""
"categorize-image","72","223437","0.0-3.0-3.0-1.8","guqu6a3tq61bu3c","practice_cue","5e401a29d96ada000bdf57b4","5f60e3c0a3b16e07647b2ff9","5f61dbf95de76119658c681b","true","1578.3350000274368","./Stimuli/ImagesPractice/SN222.jpg","83","","","","test","true","N + M","83","","SN","SN222.jpg","forget","old","25","2","practice_forget","left","","","",""
"html-keyboard-response","73","225439","0.0-3.0-3.0-3.8","guqu6a3tq61bu3c","practice_cue","5e401a29d96ada000bdf57b4","5f60e3c0a3b16e07647b2ff9","5f61dbf95de76119658c681b","false","null","<div style=""align-items: center; display: flex; color: darkorange; font-size: 90px""><b>ø</b></div>","null","","","","forget_cue","","","","","","","","","","","","","","","",""
"html-keyboard-response","74","226141","0.0-3.0-3.0-0.9","guqu6a3tq61bu3c","practice_cue","5e401a29d96ada000bdf57b4","5f60e3c0a3b16e07647b2ff9","5f61dbf95de76119658c681b","false","null","<span style=""color: black; font-size: 48px"">M + N</span>","null","","","","resp_prompt","","","","","","","","","","","","","","","",""
"categorize-image","75","227016","0.0-3.0-3.0-1.9","guqu6a3tq61bu3c","practice_cue","5e401a29d96ada000bdf57b4","5f60e3c0a3b16e07647b2ff9","5f61dbf95de76119658c681b","true","868.784999998752","./Stimuli/ImagesPractice/LM224.jpg","83","","","","test","true","M + N","83","","LM","LM224.jpg","remember","old","26","2","practice_forget","left","","","",""
"html-keyboard-response","76","229023","0.0-3.0-3.0-3.9","guqu6a3tq61bu3c","practice_cue","5e401a29d96ada000bdf57b4","5f60e3c0a3b16e07647b2ff9","5f61dbf95de76119658c681b","false","null","<div style=""align-items: center; display: flex; color: dodgerblue; font-size: 90px""><b>o</b></div>","null","","","","forget_cue","","","","","","","","","","","","","","","",""
"html-keyboard-response","77","229727","0.0-3.0-3.0-0.10","guqu6a3tq61bu3c","practice_cue","5e401a29d96ada000bdf57b4","5f60e3c0a3b16e07647b2ff9","5f61dbf95de76119658c681b","false","null","<span style=""color: black; font-size: 48px"">M + N</span>","null","","","","resp_prompt","","","","","","","","","","","","","","","",""
"categorize-image","78","230537","0.0-3.0-3.0-1.10","guqu6a3tq61bu3c","practice_cue","5e401a29d96ada000bdf57b4","5f60e3c0a3b16e07647b2ff9","5f61dbf95de76119658c681b","true","799.6999999741092","./Stimuli/ImagesPractice/LM239.jpg","83","","","","test","true","M + N","83","","LM","LM239.jpg","remember","old","27","2","practice_forget","left","","","",""
"html-keyboard-response","79","232543","0.0-3.0-3.0-3.10","guqu6a3tq61bu3c","practice_cue","5e401a29d96ada000bdf57b4","5f60e3c0a3b16e07647b2ff9","5f61dbf95de76119658c681b","false","null","<div style=""align-items: center; display: flex; color: dodgerblue; font-size: 90px""><b>o</b></div>","null","","","","forget_cue","","","","","","","","","","","","","","","",""
"html-keyboard-response","80","233248","0.0-3.0-3.0-0.11","guqu6a3tq61bu3c","practice_cue","5e401a29d96ada000bdf57b4","5f60e3c0a3b16e07647b2ff9","5f61dbf95de76119658c681b","false","null","<span style=""color: black; font-size: 48px"">M + N</span>","null","","","","resp_prompt","","","","","","","","","","","","","","","",""
"categorize-image","81","234902","0.0-3.0-3.0-1.11","guqu6a3tq61bu3c","practice_cue","5e401a29d96ada000bdf57b4","5f60e3c0a3b16e07647b2ff9","5f61dbf95de76119658c681b","true","1647.4550000275485","./Stimuli/ImagesPractice/LN17.jpg","76","","","","test","true","M + N","76","","LN","LN17.jpg","forget","old","28","2","practice_forget","right","","","",""
"html-keyboard-response","82","236906","0.0-3.0-3.0-3.11","guqu6a3tq61bu3c","practice_cue","5e401a29d96ada000bdf57b4","5f60e3c0a3b16e07647b2ff9","5f61dbf95de76119658c681b","false","null","<div style=""align-items: center; display: flex; color: darkorange; font-size: 90px""><b>ø</b></div>","null","","","","forget_cue","","","","","","","","","","","","","","","",""
"html-keyboard-response","83","237611","0.0-3.0-3.0-0.12","guqu6a3tq61bu3c","practice_cue","5e401a29d96ada000bdf57b4","5f60e3c0a3b16e07647b2ff9","5f61dbf95de76119658c681b","false","null","<span style=""color: black; font-size: 48px"">N + M</span>","null","","","","resp_prompt","","","","","","","","","","","","","","","",""
"categorize-image","84","238652","0.0-3.0-3.0-1.12","guqu6a3tq61bu3c","practice_cue","5e401a29d96ada000bdf57b4","5f60e3c0a3b16e07647b2ff9","5f61dbf95de76119658c681b","true","1034.8150000208989","./Stimuli/ImagesPractice/LM143.jpg","76","","","","test","true","N + M","76","","LM","LM143.jpg","remember","old","29","2","practice_forget","right","","","",""
"html-keyboard-response","85","240660","0.0-3.0-3.0-3.12","guqu6a3tq61bu3c","practice_cue","5e401a29d96ada000bdf57b4","5f60e3c0a3b16e07647b2ff9","5f61dbf95de76119658c681b","false","null","<div style=""align-items: center; display: flex; color: dodgerblue; font-size: 90px""><b>o</b></div>","null","","","","forget_cue","","","","","","","","","","","","","","","",""
"html-keyboard-response","86","241364","0.0-3.0-3.0-0.13","guqu6a3tq61bu3c","practice_cue","5e401a29d96ada000bdf57b4","5f60e3c0a3b16e07647b2ff9","5f61dbf95de76119658c681b","false","null","<span style=""color: black; font-size: 48px"">M + N</span>","null","","","","resp_prompt","","","","","","","","","","","","","","","",""
"categorize-image","87","242348","0.0-3.0-3.0-1.13","guqu6a3tq61bu3c","practice_cue","5e401a29d96ada000bdf57b4","5f60e3c0a3b16e07647b2ff9","5f61dbf95de76119658c681b","true","978.5150000243448","./Stimuli/ImagesPractice/SM61.jpg","83","","","","test","true","M + N","83","","SM","SM61.jpg","remember","old","30","2","practice_forget","left","","","",""
"html-keyboard-response","88","244351","0.0-3.0-3.0-3.13","guqu6a3tq61bu3c","practice_cue","5e401a29d96ada000bdf57b4","5f60e3c0a3b16e07647b2ff9","5f61dbf95de76119658c681b","false","null","<div style=""align-items: center; display: flex; color: dodgerblue; font-size: 90px""><b>o</b></div>","null","","","","forget_cue","","","","","","","","","","","","","","","",""
"html-keyboard-response","89","245055","0.0-3.0-3.0-0.14","guqu6a3tq61bu3c","practice_cue","5e401a29d96ada000bdf57b4","5f60e3c0a3b16e07647b2ff9","5f61dbf95de76119658c681b","false","null","<span style=""color: black; font-size: 48px"">M + N</span>","null","","","","resp_prompt","","","","","","","","","","","","","","","",""
"categorize-image","90","246082","0.0-3.0-3.0-1.14","guqu6a3tq61bu3c","practice_cue","5e401a29d96ada000bdf57b4","5f60e3c0a3b16e07647b2ff9","5f61dbf95de76119658c681b","true","1020.5749999731779","./Stimuli/ImagesPractice/SM35.jpg","83","","","","test","true","M + N","83","","SM","SM35.jpg","remember","old","31","2","practice_forget","left","","","",""
"html-keyboard-response","91","248087","0.0-3.0-3.0-3.14","guqu6a3tq61bu3c","practice_cue","5e401a29d96ada000bdf57b4","5f60e3c0a3b16e07647b2ff9","5f61dbf95de76119658c681b","false","null","<div style=""align-items: center; display: flex; color: dodgerblue; font-size: 90px""><b>o</b></div>","null","","","","forget_cue","","","","","","","","","","","","","","","",""
"html-keyboard-response","92","248790","0.0-3.0-3.0-0.15","guqu6a3tq61bu3c","practice_cue","5e401a29d96ada000bdf57b4","5f60e3c0a3b16e07647b2ff9","5f61dbf95de76119658c681b","false","null","<span style=""color: black; font-size: 48px"">N + M</span>","null","","","","resp_prompt","","","","","","","","","","","","","","","",""
"categorize-image","93","249942","0.0-3.0-3.0-1.15","guqu6a3tq61bu3c","practice_cue","5e401a29d96ada000bdf57b4","5f60e3c0a3b16e07647b2ff9","5f61dbf95de76119658c681b","true","1146.3799999910407","./Stimuli/ImagesPractice/SN75.jpg","83","","","","test","true","N + M","83","","SN","SN75.jpg","forget","old","32","2","practice_forget","left","","","",""
"html-keyboard-response","94","251948","0.0-3.0-3.0-3.15","guqu6a3tq61bu3c","practice_cue","5e401a29d96ada000bdf57b4","5f60e3c0a3b16e07647b2ff9","5f61dbf95de76119658c681b","false","null","<div style=""align-items: center; display: flex; color: darkorange; font-size: 90px""><b>ø</b></div>","null","","","","forget_cue","","","","","","","","","","","","","","","",""
"html-keyboard-response","95","254405","0.0-3.0-4.0","guqu6a3tq61bu3c","break","5e401a29d96ada000bdf57b4","5f60e3c0a3b16e07647b2ff9","5f61dbf95de76119658c681b","false","2454.589999979362","<p style='font-size: 32px;'>Break</><br><br><br><br><br><p style='font-size: 24px;'>In the last block, you committed 0 errors and did not respond in time on 0 trials.
</p><p style='font-size: 24px;'>Try to respond as fast and accurately as possible in the next block as well! </p><p style='font-size: 24px;'>Press SPACE to continue.</p>","32","","","","","","","","","","","","","","","","","","","",""
"html-keyboard-response","96","278011","0.0-3.0-5.0","guqu6a3tq61bu3c","instructions","5e401a29d96ada000bdf57b4","5f60e3c0a3b16e07647b2ff9","5f61dbf95de76119658c681b","false","23604.664999991655","<div align=left> Now, to practice, we kindly ask you to remember as many of the to-be-remembered pictures<br>of the previous learning phase as possible.<br><br>The pictures you were instructed to remember were the pictures followed by a <span style='color: dodgerblue; font-size: 28px'>O</span>.<br><br>In this memory test phase, you will also see some new pictures.<br>It is your task to remember whether you were presented with this specific picture in this study so far or not.<br>If you recognize an object (you have already seen it in this study), it is an OLD object. <br>If you do not recognize an object (you have NOT seen it in this study), it is a NEW object. <br><strong> Attention</strong>: As already mentioned, <span style='color: darkorange; font-size:28px'>Ø</span>-pictures will <strong>never</strong> appear in this memory test (neither as new objects). <br><br>Press SPACE to continue. </div>","32","","","","","","","","","","","","","","","","","","","",""
"html-keyboard-response","97","294412","0.0-3.0-6.0","guqu6a3tq61bu3c","instructions","5e401a29d96ada000bdf57b4","5f60e3c0a3b16e07647b2ff9","5f61dbf95de76119658c681b","false","16397.850000008475","<div align=left> M and N no longer will appear on the left/right of the fixation cross. <br>Instead there will be a note at the bottom of the left or right side  <br>indicating which key you should press for an old or new object:  <br> <br>Press the <strong>right</strong> key to classify an object as <strong>old</strong> and press the <strong>left</strong>, to classify an object as <strong>new</strong>.<br>Please classify the objects as new/old by again placing your index finger on the 'S' and 'L' keys <br>and press them accordingly.<br><br><strong>Old:</strong> This object has been presented before. <br><strong>New:</strong> This object has <strong>not</strong> been presented.<br><br>Now please put your right and left index fingers on the 'S' and 'L' keys of your keyboard. <br>Please respond as fast and as accurately as possible!<br><br>Press SPACE to continue. </div>","32","","","","","","","","","","","","","","","","","","","",""
"categorize-image","98","296626","0.0-3.0-7.0-0.0","guqu6a3tq61bu3c","practice_recog","5e401a29d96ada000bdf57b4","5f60e3c0a3b16e07647b2ff9","5f61dbf95de76119658c681b","true","1704.1800000006333","./Stimuli/ImagesPractice/SM35.jpg","76","","","","test","true","","76","","SM","SM35.jpg","","old","33","3","practice_recog","right","","","",""
"categorize-image","99","298443","0.0-3.0-7.0-0.1","guqu6a3tq61bu3c","practice_recog","5e401a29d96ada000bdf57b4","5f60e3c0a3b16e07647b2ff9","5f61dbf95de76119658c681b","true","1312.5449999934062","./Stimuli/ImagesPractice/LN109.jpg","83","","","","test","true","","83","","LN","LN109.jpg","","new","34","3","practice_recog","left","","","",""
"categorize-image","100","299930","0.0-3.0-7.0-0.2","guqu6a3tq61bu3c","practice_recog","5e401a29d96ada000bdf57b4","5f60e3c0a3b16e07647b2ff9","5f61dbf95de76119658c681b","true","983.5350000066683","./Stimuli/ImagesPractice/LM230.jpg","83","","","","test","true","","83","","LM","LM230.jpg","","new","35","3","practice_recog","left","","","",""
"categorize-image","101","301450","0.0-3.0-7.0-0.3","guqu6a3tq61bu3c","practice_recog","5e401a29d96ada000bdf57b4","5f60e3c0a3b16e07647b2ff9","5f61dbf95de76119658c681b","true","1015.1199999963865","./Stimuli/ImagesPractice/SN221.jpg","76","","","","test","true","","76","","SN","SN221.jpg","","old","36","3","practice_recog","right","","","",""
"categorize-image","102","303108","0.0-3.0-7.0-0.4","guqu6a3tq61bu3c","practice_recog","5e401a29d96ada000bdf57b4","5f60e3c0a3b16e07647b2ff9","5f61dbf95de76119658c681b","true","1152.7600000263192","./Stimuli/ImagesPractice/LN2.jpg","76","","","","test","false","","83","","LN","LN2.jpg","","new","37","3","practice_recog","right","","","",""
"categorize-image","103","304618","0.0-3.0-7.0-0.5","guqu6a3tq61bu3c","practice_recog","5e401a29d96ada000bdf57b4","5f60e3c0a3b16e07647b2ff9","5f61dbf95de76119658c681b","true","1004.7500000218861","./Stimuli/ImagesPractice/SM61.jpg","83","","","","test","false","","76","","SM","SM61.jpg","","old","38","3","practice_recog","left","","","",""
"categorize-image","104","306367","0.0-3.0-7.0-0.6","guqu6a3tq61bu3c","practice_recog","5e401a29d96ada000bdf57b4","5f60e3c0a3b16e07647b2ff9","5f61dbf95de76119658c681b","true","1242.8250000230037","./Stimuli/ImagesPractice/SN76.jpg","83","","","","test","true","","83","","SN","SN76.jpg","","new","39","3","practice_recog","left","","","",""
"categorize-image","105","307975","0.0-3.0-7.0-0.7","guqu6a3tq61bu3c","practice_recog","5e401a29d96ada000bdf57b4","5f60e3c0a3b16e07647b2ff9","5f61dbf95de76119658c681b","true","1101.1600000201724","./Stimuli/ImagesPractice/SM98.jpg","83","","","","test","true","","83","","SM","SM98.jpg","","new","40","3","practice_recog","left","","","",""
"categorize-image","106","309321","0.0-3.0-7.0-0.8","guqu6a3tq61bu3c","practice_recog","5e401a29d96ada000bdf57b4","5f60e3c0a3b16e07647b2ff9","5f61dbf95de76119658c681b","true","841.7749999789521","./Stimuli/ImagesPractice/LN72.jpg","76","","","","test","true","","76","","LN","LN72.jpg","","old","41","3","practice_recog","right","","","",""
"categorize-image","107","310848","0.0-3.0-7.0-0.9","guqu6a3tq61bu3c","practice_recog","5e401a29d96ada000bdf57b4","5f60e3c0a3b16e07647b2ff9","5f61dbf95de76119658c681b","true","1018.8499999931082","./Stimuli/ImagesPractice/LN4.jpg","76","","","","test","false","","83","","LN","LN4.jpg","","new","42","3","practice_recog","right","","","",""
"categorize-image","108","313131","0.0-3.0-7.0-0.10","guqu6a3tq61bu3c","practice_recog","5e401a29d96ada000bdf57b4","5f60e3c0a3b16e07647b2ff9","5f61dbf95de76119658c681b","true","1779.5899999910034","./Stimuli/ImagesPractice/LM143.jpg","76","","","","test","true","","76","","LM","LM143.jpg","","old","43","3","practice_recog","right","","","",""
"categorize-image","109","314824","0.0-3.0-7.0-0.11","guqu6a3tq61bu3c","practice_recog","5e401a29d96ada000bdf57b4","5f60e3c0a3b16e07647b2ff9","5f61dbf95de76119658c681b","true","1189.5099999965169","./Stimuli/ImagesPractice/LM224.jpg","76","","","","test","true","","76","","LM","LM224.jpg","","old","44","3","practice_recog","right","","","",""
"categorize-image","110","316284","0.0-3.0-7.0-0.12","guqu6a3tq61bu3c","practice_recog","5e401a29d96ada000bdf57b4","5f60e3c0a3b16e07647b2ff9","5f61dbf95de76119658c681b","true","956.0550000169314","./Stimuli/ImagesPractice/SM62.jpg","83","","","","test","false","","76","","SM","SM62.jpg","","old","45","3","practice_recog","left","","","",""
"categorize-image","111","317898","0.0-3.0-7.0-0.13","guqu6a3tq61bu3c","practice_recog","5e401a29d96ada000bdf57b4","5f60e3c0a3b16e07647b2ff9","5f61dbf95de76119658c681b","true","1109.6849999739788","./Stimuli/ImagesPractice/LM239.jpg","76","","","","test","true","","76","","LM","LM239.jpg","","old","46","3","practice_recog","right","","","",""
"categorize-image","112","319388","0.0-3.0-7.0-0.14","guqu6a3tq61bu3c","practice_recog","5e401a29d96ada000bdf57b4","5f60e3c0a3b16e07647b2ff9","5f61dbf95de76119658c681b","true","984.0550000080839","./Stimuli/ImagesPractice/SN220.jpg","83","","","","test","true","","83","","SN","SN220.jpg","","new","47","3","practice_recog","left","","","",""
"categorize-image","113","320812","0.0-3.0-7.0-0.15","guqu6a3tq61bu3c","practice_recog","5e401a29d96ada000bdf57b4","5f60e3c0a3b16e07647b2ff9","5f61dbf95de76119658c681b","true","920.3400000114925","./Stimuli/ImagesPractice/SN205.jpg","83","","","","test","true","","83","","SN","SN205.jpg","","new","48","3","practice_recog","left","","","",""
"html-keyboard-response","114","327351","0.0-3.0-8.0","guqu6a3tq61bu3c","instructions","5e401a29d96ada000bdf57b4","5f60e3c0a3b16e07647b2ff9","5f61dbf95de76119658c681b","false","6536.980000033509","<div align=left> Great!<br><br>Are you ready to continue?<br>If you want to reread the instructions and redo the practice trials, please <br>press „Z“.<br><br>You can proceed when you are ready.<br><br>After the presentation of each object, you will receive an instruction whether to <br>remember or to forget the object.<br>We will test your memory of the following pictures only at the very end of <br>the experiment after all learning blocks are completed. <br><br>Press SPACE to CONTINUE when you are ready. </div>","32","","","","","","","","","","","","","","","","","","","",""
"html-keyboard-response","115","329528","0.0-4.0-0.0","guqu6a3tq61bu3c","instructions","5e401a29d96ada000bdf57b4","5f60e3c0a3b16e07647b2ff9","5f61dbf95de76119658c681b","false","2174.3099999730475","<div align=left> The actual experiment is about to start.<br>The practice trials are over!<br><br>Please always respond both fast and accurately!<br><br>Remember: <br> <br><li> Please place your index fingers on the <strong>'S'</strong> and <strong>'L'</strong> keys <br>to respond as fast and accurately as possible.</li><li> Every picture can be classified as either mechanical or non-mechanical.</li><li> If you do not respond in time or commit an error, you will receive a corresponding feedback.<br> Please try to respond as <strong> fast </strong> and as <strong> accurately as possible </strong>.</li><li> Remember the <span style='color: dodgerblue; font-size: 28px'>O</span> pictures. <br></li><li> Please minimize distractions and stay focused. </li><br><br>Press SPACE to START.</div>","32","","","","","","","","","","","","","","","","","","","",""
"html-keyboard-response","116","330231","0.0-4.0-1.0-0.0","guqu6a3tq61bu3c","prime","5e401a29d96ada000bdf57b4","5f60e3c0a3b16e07647b2ff9","5f61dbf95de76119658c681b","false","null","<span style=""color: black; font-size: 48px"">N + M</span>","null","","","","resp_prompt","","","","","","","","","","","","","","","",""
"categorize-image","117","331348","0.0-4.0-1.0-1.0","guqu6a3tq61bu3c","prime","5e401a29d96ada000bdf57b4","5f60e3c0a3b16e07647b2ff9","5f61dbf95de76119658c681b","true","1111.5850000060163","./Stimuli/SelectedImages/LM/LM157.bmp","76","","","","test","true","N + M","76","switch","LM","LM157.bmp","remember","","49","3","prime1","right","","","",""
"html-keyboard-response","118","333353","0.0-4.0-1.0-3.0","guqu6a3tq61bu3c","prime","5e401a29d96ada000bdf57b4","5f60e3c0a3b16e07647b2ff9","5f61dbf95de76119658c681b","false","null","<div style=""align-items: center; display: flex; color: dodgerblue; font-size: 90px""><b>o</b></div>","null","","","","forget_cue","","","","","","","","","","","","","","","",""
"html-keyboard-response","119","334060","0.0-4.0-1.0-0.1","guqu6a3tq61bu3c","prime","5e401a29d96ada000bdf57b4","5f60e3c0a3b16e07647b2ff9","5f61dbf95de76119658c681b","false","null","<span style=""color: black; font-size: 48px"">M + N</span>","null","","","","resp_prompt","","","","","","","","","","","","","","","",""
"categorize-image","120","335039","0.0-4.0-1.0-1.1","guqu6a3tq61bu3c","prime","5e401a29d96ada000bdf57b4","5f60e3c0a3b16e07647b2ff9","5f61dbf95de76119658c681b","true","973.279999976512","./Stimuli/SelectedImages/SM/SM106.bmp","83","","","","test","true","M + N","83","repetition","SM","SM106.bmp","remember","","50","3","prime1","left","","","",""
"html-keyboard-response","121","337042","0.0-4.0-1.0-3.1","guqu6a3tq61bu3c","prime","5e401a29d96ada000bdf57b4","5f60e3c0a3b16e07647b2ff9","5f61dbf95de76119658c681b","false","null","<div style=""align-items: center; display: flex; color: dodgerblue; font-size: 90px""><b>o</b></div>","null","","","","forget_cue","","","","","","","","","","","","","","","",""
"html-keyboard-response","122","337746","0.0-4.0-1.0-0.2","guqu6a3tq61bu3c","prime","5e401a29d96ada000bdf57b4","5f60e3c0a3b16e07647b2ff9","5f61dbf95de76119658c681b","false","null","<span style=""color: black; font-size: 48px"">M + N</span>","null","","","","resp_prompt","","","","","","","","","","","","","","","",""
"categorize-image","123","338596","0.0-4.0-1.0-1.2","guqu6a3tq61bu3c","prime","5e401a29d96ada000bdf57b4","5f60e3c0a3b16e07647b2ff9","5f61dbf95de76119658c681b","true","844.9849999742582","./Stimuli/SelectedImages/SM/SM184.bmp","83","","","","test","true","M + N","83","switch","SM","SM184.bmp","forget","","51","3","prime1","left","","","",""
"html-keyboard-response","124","340598","0.0-4.0-1.0-3.2","guqu6a3tq61bu3c","prime","5e401a29d96ada000bdf57b4","5f60e3c0a3b16e07647b2ff9","5f61dbf95de76119658c681b","false","null","<div style=""align-items: center; display: flex; color: darkorange; font-size: 90px""><b>ø</b></div>","null","","","","forget_cue","","","","","","","","","","","","","","","",""
"html-keyboard-response","125","341300","0.0-4.0-1.0-0.3","guqu6a3tq61bu3c","prime","5e401a29d96ada000bdf57b4","5f60e3c0a3b16e07647b2ff9","5f61dbf95de76119658c681b","false","null","<span style=""color: black; font-size: 48px"">M + N</span>","null","","","","resp_prompt","","","","","","","","","","","","","","","",""
"categorize-image","126","342653","0.0-4.0-1.0-1.3","guqu6a3tq61bu3c","prime","5e401a29d96ada000bdf57b4","5f60e3c0a3b16e07647b2ff9","5f61dbf95de76119658c681b","true","1347.0950000337325","./Stimuli/SelectedImages/SM/SM207.bmp","83","","","","test","true","M + N","83","switch","SM","SM207.bmp","remember","","52","3","prime1","left","","","",""
"html-keyboard-response","127","344657","0.0-4.0-1.0-3.3","guqu6a3tq61bu3c","prime","5e401a29d96ada000bdf57b4","5f60e3c0a3b16e07647b2ff9","5f61dbf95de76119658c681b","false","null","<div style=""align-items: center; display: flex; color: dodgerblue; font-size: 90px""><b>o</b></div>","null","","","","forget_cue","","","","","","","","","","","","","","","",""
"html-keyboard-response","128","345361","0.0-4.0-1.0-0.4","guqu6a3tq61bu3c","prime","5e401a29d96ada000bdf57b4","5f60e3c0a3b16e07647b2ff9","5f61dbf95de76119658c681b","false","null","<span style=""color: black; font-size: 48px"">N + M</span>","null","","","","resp_prompt","","","","","","","","","","","","","","","",""
"categorize-image","129","347375","0.0-4.0-1.0-1.4","guqu6a3tq61bu3c","prime","5e401a29d96ada000bdf57b4","5f60e3c0a3b16e07647b2ff9","5f61dbf95de76119658c681b","true","null","./Stimuli/SelectedImages/LN/LN131.bmp","null","","","","test","false","N + M","83","repetition","LN","LN131.bmp","forget","","53","3","prime1","too_slow","","","",""
"html-keyboard-response","130","347880","0.0-4.0-1.0-2.4-0.4","guqu6a3tq61bu3c","prime","5e401a29d96ada000bdf57b4","5f60e3c0a3b16e07647b2ff9","5f61dbf95de76119658c681b","false","null","<span style=""color: red; font-size: 48px"">Too slow!</span>","null","","","","feedback","","","","","","","","","","","","","","","",""
"html-keyboard-response","131","349884","0.0-4.0-1.0-3.4","guqu6a3tq61bu3c","prime","5e401a29d96ada000bdf57b4","5f60e3c0a3b16e07647b2ff9","5f61dbf95de76119658c681b","false","null","<div style=""align-items: center; display: flex; color: darkorange; font-size: 90px""><b>ø</b></div>","null","","","","forget_cue","","","","","","","","","","","","","","","",""
"html-keyboard-response","132","350588","0.0-4.0-1.0-0.5","guqu6a3tq61bu3c","prime","5e401a29d96ada000bdf57b4","5f60e3c0a3b16e07647b2ff9","5f61dbf95de76119658c681b","false","null","<span style=""color: black; font-size: 48px"">N + M</span>","null","","","","resp_prompt","","","","","","","","","","","","","","","",""
"categorize-image","133","351420","0.0-4.0-1.0-1.5","guqu6a3tq61bu3c","prime","5e401a29d96ada000bdf57b4","5f60e3c0a3b16e07647b2ff9","5f61dbf95de76119658c681b","true","825.8550000027753","./Stimuli/SelectedImages/SM/SM76.bmp","76","","","","test","true","N + M","76","repetition","SM","SM76.bmp","remember","","54","3","prime1","right","","","",""
"html-keyboard-response","134","353422","0.0-4.0-1.0-3.5","guqu6a3tq61bu3c","prime","5e401a29d96ada000bdf57b4","5f60e3c0a3b16e07647b2ff9","5f61dbf95de76119658c681b","false","null","<div style=""align-items: center; display: flex; color: dodgerblue; font-size: 90px""><b>o</b></div>","null","","","","forget_cue","","","","","","","","","","","","","","","",""
"html-keyboard-response","135","354126","0.0-4.0-1.0-0.6","guqu6a3tq61bu3c","prime","5e401a29d96ada000bdf57b4","5f60e3c0a3b16e07647b2ff9","5f61dbf95de76119658c681b","false","null","<span style=""color: black; font-size: 48px"">N + M</span>","null","","","","resp_prompt","","","","","","","","","","","","","","","",""
"categorize-image","136","355516","0.0-4.0-1.0-1.6","guqu6a3tq61bu3c","prime","5e401a29d96ada000bdf57b4","5f60e3c0a3b16e07647b2ff9","5f61dbf95de76119658c681b","true","1384.4549999921583","./Stimuli/SelectedImages/SN/SN93.bmp","83","","","","test","true","N + M","83","repetition","SN","SN93.bmp","remember","","55","3","prime1","left","","","",""
"html-keyboard-response","137","357519","0.0-4.0-1.0-3.6","guqu6a3tq61bu3c","prime","5e401a29d96ada000bdf57b4","5f60e3c0a3b16e07647b2ff9","5f61dbf95de76119658c681b","false","null","<div style=""align-items: center; display: flex; color: dodgerblue; font-size: 90px""><b>o</b></div>","null","","","","forget_cue","","","","","","","","","","","","","","","",""
"html-keyboard-response","138","358222","0.0-4.0-1.0-0.7","guqu6a3tq61bu3c","prime","5e401a29d96ada000bdf57b4","5f60e3c0a3b16e07647b2ff9","5f61dbf95de76119658c681b","false","null","<span style=""color: black; font-size: 48px"">M + N</span>","null","","","","resp_prompt","","","","","","","","","","","","","","","",""
"categorize-image","139","359452","0.0-4.0-1.0-1.7","guqu6a3tq61bu3c","prime","5e401a29d96ada000bdf57b4","5f60e3c0a3b16e07647b2ff9","5f61dbf95de76119658c681b","true","1225.0350000103936","./Stimuli/SelectedImages/LN/LN101.bmp","76","","","","test","true","M + N","76","switch","LN","LN101.bmp","remember","","56","3","prime1","right","","","",""
"html-keyboard-response","140","361458","0.0-4.0-1.0-3.7","guqu6a3tq61bu3c","prime","5e401a29d96ada000bdf57b4","5f60e3c0a3b16e07647b2ff9","5f61dbf95de76119658c681b","false","null","<div style=""align-items: center; display: flex; color: dodgerblue; font-size: 90px""><b>o</b></div>","null","","","","forget_cue","","","","","","","","","","","","","","","",""
"html-keyboard-response","141","362160","0.0-4.0-1.0-0.8","guqu6a3tq61bu3c","prime","5e401a29d96ada000bdf57b4","5f60e3c0a3b16e07647b2ff9","5f61dbf95de76119658c681b","false","null","<span style=""color: black; font-size: 48px"">M + N</span>","null","","","","resp_prompt","","","","","","","","","","","","","","","",""
"categorize-image","142","363578","0.0-4.0-1.0-1.8","guqu6a3tq61bu3c","prime","5e401a29d96ada000bdf57b4","5f60e3c0a3b16e07647b2ff9","5f61dbf95de76119658c681b","true","1411.649999965448","./Stimuli/SelectedImages/LN/LN42.bmp","76","","","","test","true","M + N","76","repetition","LN","LN42.bmp","remember","","57","3","prime1","right","","","",""
"html-keyboard-response","143","365585","0.0-4.0-1.0-3.8","guqu6a3tq61bu3c","prime","5e401a29d96ada000bdf57b4","5f60e3c0a3b16e07647b2ff9","5f61dbf95de76119658c681b","false","null","<div style=""align-items: center; display: flex; color: dodgerblue; font-size: 90px""><b>o</b></div>","null","","","","forget_cue","","","","","","","","","","","","","","","",""
"html-keyboard-response","144","366290","0.0-4.0-1.0-0.9","guqu6a3tq61bu3c","prime","5e401a29d96ada000bdf57b4","5f60e3c0a3b16e07647b2ff9","5f61dbf95de76119658c681b","false","null","<span style=""color: black; font-size: 48px"">N + M</span>","null","","","","resp_prompt","","","","","","","","","","","","","","","",""
"categorize-image","145","367120","0.0-4.0-1.0-1.9","guqu6a3tq61bu3c","prime","5e401a29d96ada000bdf57b4","5f60e3c0a3b16e07647b2ff9","5f61dbf95de76119658c681b","true","824.1150000249036","./Stimuli/SelectedImages/SM/SM17.bmp","76","","","","test","true","N + M","76","repetition","SM","SM17.bmp","forget","","58","3","prime1","right","","","",""
"html-keyboard-response","146","369121","0.0-4.0-1.0-3.9","guqu6a3tq61bu3c","prime","5e401a29d96ada000bdf57b4","5f60e3c0a3b16e07647b2ff9","5f61dbf95de76119658c681b","false","null","<div style=""align-items: center; display: flex; color: darkorange; font-size: 90px""><b>ø</b></div>","null","","","","forget_cue","","","","","","","","","","","","","","","",""
"html-keyboard-response","147","369827","0.0-4.0-1.0-0.10","guqu6a3tq61bu3c","prime","5e401a29d96ada000bdf57b4","5f60e3c0a3b16e07647b2ff9","5f61dbf95de76119658c681b","false","null","<span style=""color: black; font-size: 48px"">N + M</span>","null","","","","resp_prompt","","","","","","","","","","","","","","","",""
"categorize-image","148","371768","0.0-4.0-1.0-1.10","guqu6a3tq61bu3c","prime","5e401a29d96ada000bdf57b4","5f60e3c0a3b16e07647b2ff9","5f61dbf95de76119658c681b","true","1935.590000008233","./Stimuli/SelectedImages/LM/LM100.bmp","76","","","","test","true","N + M","76","switch","LM","LM100.bmp","remember","","59","3","prime1","right","","","",""
"html-keyboard-response","149","373771","0.0-4.0-1.0-3.10","guqu6a3tq61bu3c","prime","5e401a29d96ada000bdf57b4","5f60e3c0a3b16e07647b2ff9","5f61dbf95de76119658c681b","false","null","<div style=""align-items: center; display: flex; color: dodgerblue; font-size: 90px""><b>o</b></div>","null","","","","forget_cue","","","","","","","","","","","","","","","",""
"html-keyboard-response","150","374473","0.0-4.0-1.0-0.11","guqu6a3tq61bu3c","prime","5e401a29d96ada000bdf57b4","5f60e3c0a3b16e07647b2ff9","5f61dbf95de76119658c681b","false","null","<span style=""color: black; font-size: 48px"">N + M</span>","null","","","","resp_prompt","","","","","","","","","","","","","","","",""
"categorize-image","151","375217","0.0-4.0-1.0-1.11","guqu6a3tq61bu3c","prime","5e401a29d96ada000bdf57b4","5f60e3c0a3b16e07647b2ff9","5f61dbf95de76119658c681b","true","738.4300000267103","./Stimuli/SelectedImages/LN/LN82.bmp","83","","","","test","true","N + M","83","switch","LN","LN82.bmp","forget","","60","3","prime1","left","","","",""
"html-keyboard-response","152","377222","0.0-4.0-1.0-3.11","guqu6a3tq61bu3c","prime","5e401a29d96ada000bdf57b4","5f60e3c0a3b16e07647b2ff9","5f61dbf95de76119658c681b","false","null","<div style=""align-items: center; display: flex; color: darkorange; font-size: 90px""><b>ø</b></div>","null","","","","forget_cue","","","","","","","","","","","","","","","",""
"html-keyboard-response","153","377927","0.0-4.0-1.0-0.12","guqu6a3tq61bu3c","prime","5e401a29d96ada000bdf57b4","5f60e3c0a3b16e07647b2ff9","5f61dbf95de76119658c681b","false","null","<span style=""color: black; font-size: 48px"">M + N</span>","null","","","","resp_prompt","","","","","","","","","","","","","","","",""
"categorize-image","154","379357","0.0-4.0-1.0-1.12","guqu6a3tq61bu3c","prime","5e401a29d96ada000bdf57b4","5f60e3c0a3b16e07647b2ff9","5f61dbf95de76119658c681b","true","1423.3799999929033","./Stimuli/SelectedImages/SM/SM128.bmp","83","","","","test","true","M + N","83","switch","SM","SM128.bmp","forget","","61","3","prime1","left","","","",""
"html-keyboard-response","155","381359","0.0-4.0-1.0-3.12","guqu6a3tq61bu3c","prime","5e401a29d96ada000bdf57b4","5f60e3c0a3b16e07647b2ff9","5f61dbf95de76119658c681b","false","null","<div style=""align-items: center; display: flex; color: darkorange; font-size: 90px""><b>ø</b></div>","null","","","","forget_cue","","","","","","","","","","","","","","","",""
"html-keyboard-response","156","382062","0.0-4.0-1.0-0.13","guqu6a3tq61bu3c","prime","5e401a29d96ada000bdf57b4","5f60e3c0a3b16e07647b2ff9","5f61dbf95de76119658c681b","false","null","<span style=""color: black; font-size: 48px"">M + N</span>","null","","","","resp_prompt","","","","","","","","","","","","","","","",""
"categorize-image","157","382624","0.0-4.0-1.0-1.13","guqu6a3tq61bu3c","prime","5e401a29d96ada000bdf57b4","5f60e3c0a3b16e07647b2ff9","5f61dbf95de76119658c681b","true","557.3950000107288","./Stimuli/SelectedImages/LN/LN111.bmp","76","","","","test","true","M + N","76","switch","LN","LN111.bmp","forget","","62","3","prime1","right","","","",""
"html-keyboard-response","158","384629","0.0-4.0-1.0-3.13","guqu6a3tq61bu3c","prime","5e401a29d96ada000bdf57b4","5f60e3c0a3b16e07647b2ff9","5f61dbf95de76119658c681b","false","null","<div style=""align-items: center; display: flex; color: darkorange; font-size: 90px""><b>ø</b></div>","null","","","","forget_cue","","","","","","","","","","","","","","","",""
"html-keyboard-response","159","385333","0.0-4.0-1.0-0.14","guqu6a3tq61bu3c","prime","5e401a29d96ada000bdf57b4","5f60e3c0a3b16e07647b2ff9","5f61dbf95de76119658c681b","false","null","<span style=""color: black; font-size: 48px"">M + N</span>","null","","","","resp_prompt","","","","","","","","","","","","","","","",""
"categorize-image","160","386118","0.0-4.0-1.0-1.14","guqu6a3tq61bu3c","prime","5e401a29d96ada000bdf57b4","5f60e3c0a3b16e07647b2ff9","5f61dbf95de76119658c681b","true","779.6749999979511","./Stimuli/SelectedImages/LM/LM57.bmp","83","","","","test","true","M + N","83","repetition","LM","LM57.bmp","forget","","63","3","prime1","left","","","",""
"html-keyboard-response","161","388122","0.0-4.0-1.0-3.14","guqu6a3tq61bu3c","prime","5e401a29d96ada000bdf57b4","5f60e3c0a3b16e07647b2ff9","5f61dbf95de76119658c681b","false","null","<div style=""align-items: center; display: flex; color: darkorange; font-size: 90px""><b>ø</b></div>","null","","","","forget_cue","","","","","","","","","","","","","","","",""
"html-keyboard-response","162","388827","0.0-4.0-1.0-0.15","guqu6a3tq61bu3c","prime","5e401a29d96ada000bdf57b4","5f60e3c0a3b16e07647b2ff9","5f61dbf95de76119658c681b","false","null","<span style=""color: black; font-size: 48px"">M + N</span>","null","","","","resp_prompt","","","","","","","","","","","","","","","",""
"categorize-image","163","390346","0.0-4.0-1.0-1.15","guqu6a3tq61bu3c","prime","5e401a29d96ada000bdf57b4","5f60e3c0a3b16e07647b2ff9","5f61dbf95de76119658c681b","true","1513.1249999976717","./Stimuli/SelectedImages/LN/LN92.bmp","76","","","","test","true","M + N","76","repetition","LN","LN92.bmp","remember","","64","3","prime1","right","","","",""
"html-keyboard-response","164","392349","0.0-4.0-1.0-3.15","guqu6a3tq61bu3c","prime","5e401a29d96ada000bdf57b4","5f60e3c0a3b16e07647b2ff9","5f61dbf95de76119658c681b","false","null","<div style=""align-items: center; display: flex; color: dodgerblue; font-size: 90px""><b>o</b></div>","null","","","","forget_cue","","","","","","","","","","","","","","","",""
"html-keyboard-response","165","393051","0.0-4.0-1.0-0.16","guqu6a3tq61bu3c","prime","5e401a29d96ada000bdf57b4","5f60e3c0a3b16e07647b2ff9","5f61dbf95de76119658c681b","false","null","<span style=""color: black; font-size: 48px"">N + M</span>","null","","","","resp_prompt","","","","","","","","","","","","","","","",""
"categorize-image","166","393853","0.0-4.0-1.0-1.16","guqu6a3tq61bu3c","prime","5e401a29d96ada000bdf57b4","5f60e3c0a3b16e07647b2ff9","5f61dbf95de76119658c681b","true","796.4299999875948","./Stimuli/SelectedImages/LN/LN28.bmp","83","","","","test","true","N + M","83","repetition","LN","LN28.bmp","forget","","65","3","prime1","left","","","",""
"html-keyboard-response","167","395857","0.0-4.0-1.0-3.16","guqu6a3tq61bu3c","prime","5e401a29d96ada000bdf57b4","5f60e3c0a3b16e07647b2ff9","5f61dbf95de76119658c681b","false","null","<div style=""align-items: center; display: flex; color: darkorange; font-size: 90px""><b>ø</b></div>","null","","","","forget_cue","","","","","","","","","","","","","","","",""
"html-keyboard-response","168","396563","0.0-4.0-1.0-0.17","guqu6a3tq61bu3c","prime","5e401a29d96ada000bdf57b4","5f60e3c0a3b16e07647b2ff9","5f61dbf95de76119658c681b","false","null","<span style=""color: black; font-size: 48px"">M + N</span>","null","","","","resp_prompt","","","","","","","","","","","","","","","",""
"categorize-image","169","397700","0.0-4.0-1.0-1.17","guqu6a3tq61bu3c","prime","5e401a29d96ada000bdf57b4","5f60e3c0a3b16e07647b2ff9","5f61dbf95de76119658c681b","true","1130.944999982603","./Stimuli/SelectedImages/LM/LM51.bmp","83","","","","test","true","M + N","83","switch","LM","LM51.bmp","forget","","66","3","prime1","left","","","",""
"html-keyboard-response","170","399702","0.0-4.0-1.0-3.17","guqu6a3tq61bu3c","prime","5e401a29d96ada000bdf57b4","5f60e3c0a3b16e07647b2ff9","5f61dbf95de76119658c681b","false","null","<div style=""align-items: center; display: flex; color: darkorange; font-size: 90px""><b>ø</b></div>","null","","","","forget_cue","","","","","","","","","","","","","","","",""
"html-keyboard-response","171","400405","0.0-4.0-1.0-0.18","guqu6a3tq61bu3c","prime","5e401a29d96ada000bdf57b4","5f60e3c0a3b16e07647b2ff9","5f61dbf95de76119658c681b","false","null","<span style=""color: black; font-size: 48px"">M + N</span>","null","","","","resp_prompt","","","","","","","","","","","","","","","",""
"categorize-image","172","401017","0.0-4.0-1.0-1.18","guqu6a3tq61bu3c","prime","5e401a29d96ada000bdf57b4","5f60e3c0a3b16e07647b2ff9","5f61dbf95de76119658c681b","true","606.6499999724329","./Stimuli/SelectedImages/SN/SN182.bmp","76","","","","test","true","M + N","76","switch","SN","SN182.bmp","remember","","67","3","prime1","right","","","",""
"html-keyboard-response","173","403020","0.0-4.0-1.0-3.18","guqu6a3tq61bu3c","prime","5e401a29d96ada000bdf57b4","5f60e3c0a3b16e07647b2ff9","5f61dbf95de76119658c681b","false","null","<div style=""align-items: center; display: flex; color: dodgerblue; font-size: 90px""><b>o</b></div>","null","","","","forget_cue","","","","","","","","","","","","","","","",""
"html-keyboard-response","174","403722","0.0-4.0-1.0-0.19","guqu6a3tq61bu3c","prime","5e401a29d96ada000bdf57b4","5f60e3c0a3b16e07647b2ff9","5f61dbf95de76119658c681b","false","null","<span style=""color: black; font-size: 48px"">M + N</span>","null","","","","resp_prompt","","","","","","","","","","","","","","","",""
"categorize-image","175","404780","0.0-4.0-1.0-1.19","guqu6a3tq61bu3c","prime","5e401a29d96ada000bdf57b4","5f60e3c0a3b16e07647b2ff9","5f61dbf95de76119658c681b","true","1052.6649999665096","./Stimuli/SelectedImages/LN/LN149.bmp","76","","","","test","true","M + N","76","repetition","LN","LN149.bmp","forget","","68","3","prime1","right","","","",""
"html-keyboard-response","176","406784","0.0-4.0-1.0-3.19","guqu6a3tq61bu3c","prime","5e401a29d96ada000bdf57b4","5f60e3c0a3b16e07647b2ff9","5f61dbf95de76119658c681b","false","null","<div style=""align-items: center; display: flex; color: darkorange; font-size: 90px""><b>ø</b></div>","null","","","","forget_cue","","","","","","","","","","","","","","","",""
"html-keyboard-response","177","407487","0.0-4.0-1.0-0.20","guqu6a3tq61bu3c","prime","5e401a29d96ada000bdf57b4","5f60e3c0a3b16e07647b2ff9","5f61dbf95de76119658c681b","false","null","<span style=""color: black; font-size: 48px"">N + M</span>","null","","","","resp_prompt","","","","","","","","","","","","","","","",""
"categorize-image","178","408635","0.0-4.0-1.0-1.20","guqu6a3tq61bu3c","prime","5e401a29d96ada000bdf57b4","5f60e3c0a3b16e07647b2ff9","5f61dbf95de76119658c681b","true","1141.4799999911338","./Stimuli/SelectedImages/SN/SN140.bmp","83","","","","test","true","N + M","83","repetition","SN","SN140.bmp","remember","","69","3","prime1","left","","","",""
"html-keyboard-response","179","410640","0.0-4.0-1.0-3.20","guqu6a3tq61bu3c","prime","5e401a29d96ada000bdf57b4","5f60e3c0a3b16e07647b2ff9","5f61dbf95de76119658c681b","false","null","<div style=""align-items: center; display: flex; color: dodgerblue; font-size: 90px""><b>o</b></div>","null","","","","forget_cue","","","","","","","","","","","","","","","",""
"html-keyboard-response","180","411342","0.0-4.0-1.0-0.21","guqu6a3tq61bu3c","prime","5e401a29d96ada000bdf57b4","5f60e3c0a3b16e07647b2ff9","5f61dbf95de76119658c681b","false","null","<span style=""color: black; font-size: 48px"">M + N</span>","null","","","","resp_prompt","","","","","","","","","","","","","","","",""
"categorize-image","181","412107","0.0-4.0-1.0-1.21","guqu6a3tq61bu3c","prime","5e401a29d96ada000bdf57b4","5f60e3c0a3b16e07647b2ff9","5f61dbf95de76119658c681b","true","759.5250000013039","./Stimuli/SelectedImages/SN/SN18.bmp","76","","","","test","true","M + N","76","repetition","SN","SN18.bmp","remember","","70","3","prime1","right","","","",""
"html-keyboard-response","182","414110","0.0-4.0-1.0-3.21","guqu6a3tq61bu3c","prime","5e401a29d96ada000bdf57b4","5f60e3c0a3b16e07647b2ff9","5f61dbf95de76119658c681b","false","null","<div style=""align-items: center; display: flex; color: dodgerblue; font-size: 90px""><b>o</b></div>","null","","","","forget_cue","","","","","","","","","","","","","","","",""
"html-keyboard-response","183","414814","0.0-4.0-1.0-0.22","guqu6a3tq61bu3c","prime","5e401a29d96ada000bdf57b4","5f60e3c0a3b16e07647b2ff9","5f61dbf95de76119658c681b","false","null","<span style=""color: black; font-size: 48px"">M + N</span>","null","","","","resp_prompt","","","","","","","","","","","","","","","",""
"categorize-image","184","415451","0.0-4.0-1.0-1.22","guqu6a3tq61bu3c","prime","5e401a29d96ada000bdf57b4","5f60e3c0a3b16e07647b2ff9","5f61dbf95de76119658c681b","true","632.2500000242144","./Stimuli/SelectedImages/SN/SN111.bmp","76","","","","test","true","M + N","76","switch","SN","SN111.bmp","remember","","71","3","prime1","right","","","",""
"html-keyboard-response","185","417454","0.0-4.0-1.0-3.22","guqu6a3tq61bu3c","prime","5e401a29d96ada000bdf57b4","5f60e3c0a3b16e07647b2ff9","5f61dbf95de76119658c681b","false","null","<div style=""align-items: center; display: flex; color: dodgerblue; font-size: 90px""><b>o</b></div>","null","","","","forget_cue","","","","","","","","","","","","","","","",""
"html-keyboard-response","186","418156","0.0-4.0-1.0-0.23","guqu6a3tq61bu3c","prime","5e401a29d96ada000bdf57b4","5f60e3c0a3b16e07647b2ff9","5f61dbf95de76119658c681b","false","null","<span style=""color: black; font-size: 48px"">N + M</span>","null","","","","resp_prompt","","","","","","","","","","","","","","","",""
"categorize-image","187","419846","0.0-4.0-1.0-1.23","guqu6a3tq61bu3c","prime","5e401a29d96ada000bdf57b4","5f60e3c0a3b16e07647b2ff9","5f61dbf95de76119658c681b","true","1683.9100000215694","./Stimuli/SelectedImages/SN/SN60.bmp","83","","","","test","true","N + M","83","switch","SN","SN60.bmp","forget","","72","3","prime1","left","","","",""
"html-keyboard-response","188","421851","0.0-4.0-1.0-3.23","guqu6a3tq61bu3c","prime","5e401a29d96ada000bdf57b4","5f60e3c0a3b16e07647b2ff9","5f61dbf95de76119658c681b","false","null","<div style=""align-items: center; display: flex; color: darkorange; font-size: 90px""><b>ø</b></div>","null","","","","forget_cue","","","","","","","","","","","","","","","",""
"html-keyboard-response","189","422554","0.0-4.0-1.0-0.24","guqu6a3tq61bu3c","prime","5e401a29d96ada000bdf57b4","5f60e3c0a3b16e07647b2ff9","5f61dbf95de76119658c681b","false","null","<span style=""color: black; font-size: 48px"">M + N</span>","null","","","","resp_prompt","","","","","","","","","","","","","","","",""
"categorize-image","190","423355","0.0-4.0-1.0-1.24","guqu6a3tq61bu3c","prime","5e401a29d96ada000bdf57b4","5f60e3c0a3b16e07647b2ff9","5f61dbf95de76119658c681b","true","794.5100000360981","./Stimuli/SelectedImages/LN/LN59.bmp","76","","","","test","true","M + N","76","switch","LN","LN59.bmp","remember","","73","3","prime1","right","","","",""
"html-keyboard-response","191","425363","0.0-4.0-1.0-3.24","guqu6a3tq61bu3c","prime","5e401a29d96ada000bdf57b4","5f60e3c0a3b16e07647b2ff9","5f61dbf95de76119658c681b","false","null","<div style=""align-items: center; display: flex; color: dodgerblue; font-size: 90px""><b>o</b></div>","null","","","","forget_cue","","","","","","","","","","","","","","","",""
"html-keyboard-response","192","426064","0.0-4.0-1.0-0.25","guqu6a3tq61bu3c","prime","5e401a29d96ada000bdf57b4","5f60e3c0a3b16e07647b2ff9","5f61dbf95de76119658c681b","false","null","<span style=""color: black; font-size: 48px"">M + N</span>","null","","","","resp_prompt","","","","","","","","","","","","","","","",""
"categorize-image","193","426599","0.0-4.0-1.0-1.25","guqu6a3tq61bu3c","prime","5e401a29d96ada000bdf57b4","5f60e3c0a3b16e07647b2ff9","5f61dbf95de76119658c681b","true","527.9999999911524","./Stimuli/SelectedImages/SM/SM78.bmp","83","","","","test","true","M + N","83","repetition","SM","SM78.bmp","forget","","74","3","prime1","left","","","",""
"html-keyboard-response","194","428604","0.0-4.0-1.0-3.25","guqu6a3tq61bu3c","prime","5e401a29d96ada000bdf57b4","5f60e3c0a3b16e07647b2ff9","5f61dbf95de76119658c681b","false","null","<div style=""align-items: center; display: flex; color: darkorange; font-size: 90px""><b>ø</b></div>","null","","","","forget_cue","","","","","","","","","","","","","","","",""
"html-keyboard-response","195","429308","0.0-4.0-1.0-0.26","guqu6a3tq61bu3c","prime","5e401a29d96ada000bdf57b4","5f60e3c0a3b16e07647b2ff9","5f61dbf95de76119658c681b","false","null","<span style=""color: black; font-size: 48px"">N + M</span>","null","","","","resp_prompt","","","","","","","","","","","","","","","",""
"categorize-image","196","430329","0.0-4.0-1.0-1.26","guqu6a3tq61bu3c","prime","5e401a29d96ada000bdf57b4","5f60e3c0a3b16e07647b2ff9","5f61dbf95de76119658c681b","true","1014.9249999667518","./Stimuli/SelectedImages/LN/LN177.bmp","83","","","","test","true","N + M","83","repetition","LN","LN177.bmp","remember","","75","3","prime1","left","","","",""
"html-keyboard-response","197","432334","0.0-4.0-1.0-3.26","guqu6a3tq61bu3c","prime","5e401a29d96ada000bdf57b4","5f60e3c0a3b16e07647b2ff9","5f61dbf95de76119658c681b","false","null","<div style=""align-items: center; display: flex; color: dodgerblue; font-size: 90px""><b>o</b></div>","null","","","","forget_cue","","","","","","","","","","","","","","","",""
"html-keyboard-response","198","433036","0.0-4.0-1.0-0.27","guqu6a3tq61bu3c","prime","5e401a29d96ada000bdf57b4","5f60e3c0a3b16e07647b2ff9","5f61dbf95de76119658c681b","false","null","<span style=""color: black; font-size: 48px"">M + N</span>","null","","","","resp_prompt","","","","","","","","","","","","","","","",""
"categorize-image","199","433715","0.0-4.0-1.0-1.27","guqu6a3tq61bu3c","prime","5e401a29d96ada000bdf57b4","5f60e3c0a3b16e07647b2ff9","5f61dbf95de76119658c681b","true","672.4800000083633","./Stimuli/SelectedImages/SN/SN240.bmp","76","","","","test","true","M + N","76","repetition","SN","SN240.bmp","remember","","76","3","prime1","right","","","",""
"html-keyboard-response","200","435717","0.0-4.0-1.0-3.27","guqu6a3tq61bu3c","prime","5e401a29d96ada000bdf57b4","5f60e3c0a3b16e07647b2ff9","5f61dbf95de76119658c681b","false","null","<div style=""align-items: center; display: flex; color: dodgerblue; font-size: 90px""><b>o</b></div>","null","","","","forget_cue","","","","","","","","","","","","","","","",""
"html-keyboard-response","201","436420","0.0-4.0-1.0-0.28","guqu6a3tq61bu3c","prime","5e401a29d96ada000bdf57b4","5f60e3c0a3b16e07647b2ff9","5f61dbf95de76119658c681b","false","null","<span style=""color: black; font-size: 48px"">N + M</span>","null","","","","resp_prompt","","","","","","","","","","","","","","","",""
"categorize-image","202","438022","0.0-4.0-1.0-1.28","guqu6a3tq61bu3c","prime","5e401a29d96ada000bdf57b4","5f60e3c0a3b16e07647b2ff9","5f61dbf95de76119658c681b","true","1596.5549999964423","./Stimuli/SelectedImages/SN/SN49.bmp","83","","","","test","true","N + M","83","repetition","SN","SN49.bmp","forget","","77","3","prime1","left","","","",""
"html-keyboard-response","203","440025","0.0-4.0-1.0-3.28","guqu6a3tq61bu3c","prime","5e401a29d96ada000bdf57b4","5f60e3c0a3b16e07647b2ff9","5f61dbf95de76119658c681b","false","null","<div style=""align-items: center; display: flex; color: darkorange; font-size: 90px""><b>ø</b></div>","null","","","","forget_cue","","","","","","","","","","","","","","","",""
"html-keyboard-response","204","440727","0.0-4.0-1.0-0.29","guqu6a3tq61bu3c","prime","5e401a29d96ada000bdf57b4","5f60e3c0a3b16e07647b2ff9","5f61dbf95de76119658c681b","false","null","<span style=""color: black; font-size: 48px"">N + M</span>","null","","","","resp_prompt","","","","","","","","","","","","","","","",""
"categorize-image","205","441457","0.0-4.0-1.0-1.29","guqu6a3tq61bu3c","prime","5e401a29d96ada000bdf57b4","5f60e3c0a3b16e07647b2ff9","5f61dbf95de76119658c681b","true","724.6799999848008","./Stimuli/SelectedImages/SM/SM205.bmp","76","","","","test","true","N + M","76","repetition","SM","SM205.bmp","remember","","78","3","prime1","right","","","",""
"html-keyboard-response","206","443460","0.0-4.0-1.0-3.29","guqu6a3tq61bu3c","prime","5e401a29d96ada000bdf57b4","5f60e3c0a3b16e07647b2ff9","5f61dbf95de76119658c681b","false","null","<div style=""align-items: center; display: flex; color: dodgerblue; font-size: 90px""><b>o</b></div>","null","","","","forget_cue","","","","","","","","","","","","","","","",""
"html-keyboard-response","207","444165","0.0-4.0-1.0-0.30","guqu6a3tq61bu3c","prime","5e401a29d96ada000bdf57b4","5f60e3c0a3b16e07647b2ff9","5f61dbf95de76119658c681b","false","null","<span style=""color: black; font-size: 48px"">M + N</span>","null","","","","resp_prompt","","","","","","","","","","","","","","","",""
"categorize-image","208","445605","0.0-4.0-1.0-1.30","guqu6a3tq61bu3c","prime","5e401a29d96ada000bdf57b4","5f60e3c0a3b16e07647b2ff9","5f61dbf95de76119658c681b","true","1434.880000015255","./Stimuli/SelectedImages/LM/LM58.bmp","83","","","","test","true","M + N","83","repetition","LM","LM58.bmp","remember","","79","3","prime1","left","","","",""
"html-keyboard-response","209","447612","0.0-4.0-1.0-3.30","guqu6a3tq61bu3c","prime","5e401a29d96ada000bdf57b4","5f60e3c0a3b16e07647b2ff9","5f61dbf95de76119658c681b","false","null","<div style=""align-items: center; display: flex; color: dodgerblue; font-size: 90px""><b>o</b></div>","null","","","","forget_cue","","","","","","","","","","","","","","","",""
"html-keyboard-response","210","448314","0.0-4.0-1.0-0.31","guqu6a3tq61bu3c","prime","5e401a29d96ada000bdf57b4","5f60e3c0a3b16e07647b2ff9","5f61dbf95de76119658c681b","false","null","<span style=""color: black; font-size: 48px"">N + M</span>","null","","","","resp_prompt","","","","","","","","","","","","","","","",""
"categorize-image","211","449432","0.0-4.0-1.0-1.31","guqu6a3tq61bu3c","prime","5e401a29d96ada000bdf57b4","5f60e3c0a3b16e07647b2ff9","5f61dbf95de76119658c681b","true","1112.314999976661","./Stimuli/SelectedImages/SN/SN181.bmp","83","","","","test","true","N + M","83","switch","SN","SN181.bmp","remember","","80","3","prime1","left","","","",""
"html-keyboard-response","212","451434","0.0-4.0-1.0-3.31","guqu6a3tq61bu3c","prime","5e401a29d96ada000bdf57b4","5f60e3c0a3b16e07647b2ff9","5f61dbf95de76119658c681b","false","null","<div style=""align-items: center; display: flex; color: dodgerblue; font-size: 90px""><b>o</b></div>","null","","","","forget_cue","","","","","","","","","","","","","","","",""
"html-keyboard-response","213","452138","0.0-4.0-1.0-0.32","guqu6a3tq61bu3c","prime","5e401a29d96ada000bdf57b4","5f60e3c0a3b16e07647b2ff9","5f61dbf95de76119658c681b","false","null","<span style=""color: black; font-size: 48px"">N + M</span>","null","","","","resp_prompt","","","","","","","","","","","","","","","",""
"categorize-image","214","452855","0.0-4.0-1.0-1.32","guqu6a3tq61bu3c","prime","5e401a29d96ada000bdf57b4","5f60e3c0a3b16e07647b2ff9","5f61dbf95de76119658c681b","true","710.6700000003912","./Stimuli/SelectedImages/SN/SN128.bmp","83","","","","test","true","N + M","83","switch","SN","SN128.bmp","forget","","81","3","prime1","left","","","",""
"html-keyboard-response","215","454857","0.0-4.0-1.0-3.32","guqu6a3tq61bu3c","prime","5e401a29d96ada000bdf57b4","5f60e3c0a3b16e07647b2ff9","5f61dbf95de76119658c681b","false","null","<div style=""align-items: center; display: flex; color: darkorange; font-size: 90px""><b>ø</b></div>","null","","","","forget_cue","","","","","","","","","","","","","","","",""
"html-keyboard-response","216","455559","0.0-4.0-1.0-0.33","guqu6a3tq61bu3c","prime","5e401a29d96ada000bdf57b4","5f60e3c0a3b16e07647b2ff9","5f61dbf95de76119658c681b","false","null","<span style=""color: black; font-size: 48px"">N + M</span>","null","","","","resp_prompt","","","","","","","","","","","","","","","",""
"categorize-image","217","457282","0.0-4.0-1.0-1.33","guqu6a3tq61bu3c","prime","5e401a29d96ada000bdf57b4","5f60e3c0a3b16e07647b2ff9","5f61dbf95de76119658c681b","true","1717.1400000224821","./Stimuli/SelectedImages/LM/LM48.bmp","76","","","","test","true","N + M","76","switch","LM","LM48.bmp","forget","","82","3","prime1","right","","","",""
"html-keyboard-response","218","459287","0.0-4.0-1.0-3.33","guqu6a3tq61bu3c","prime","5e401a29d96ada000bdf57b4","5f60e3c0a3b16e07647b2ff9","5f61dbf95de76119658c681b","false","null","<div style=""align-items: center; display: flex; color: darkorange; font-size: 90px""><b>ø</b></div>","null","","","","forget_cue","","","","","","","","","","","","","","","",""
"html-keyboard-response","219","459991","0.0-4.0-1.0-0.34","guqu6a3tq61bu3c","prime","5e401a29d96ada000bdf57b4","5f60e3c0a3b16e07647b2ff9","5f61dbf95de76119658c681b","false","null","<span style=""color: black; font-size: 48px"">N + M</span>","null","","","","resp_prompt","","","","","","","","","","","","","","","",""
"categorize-image","220","460563","0.0-4.0-1.0-1.34","guqu6a3tq61bu3c","prime","5e401a29d96ada000bdf57b4","5f60e3c0a3b16e07647b2ff9","5f61dbf95de76119658c681b","true","567.6300000050105","./Stimuli/SelectedImages/LM/LM209.bmp","76","","","","test","true","N + M","76","repetition","LM","LM209.bmp","forget","","83","3","prime1","right","","","",""
"html-keyboard-response","221","462567","0.0-4.0-1.0-3.34","guqu6a3tq61bu3c","prime","5e401a29d96ada000bdf57b4","5f60e3c0a3b16e07647b2ff9","5f61dbf95de76119658c681b","false","null","<div style=""align-items: center; display: flex; color: darkorange; font-size: 90px""><b>ø</b></div>","null","","","","forget_cue","","","","","","","","","","","","","","","",""
"html-keyboard-response","222","463270","0.0-4.0-1.0-0.35","guqu6a3tq61bu3c","prime","5e401a29d96ada000bdf57b4","5f60e3c0a3b16e07647b2ff9","5f61dbf95de76119658c681b","false","null","<span style=""color: black; font-size: 48px"">N + M</span>","null","","","","resp_prompt","","","","","","","","","","","","","","","",""
"categorize-image","223","464173","0.0-4.0-1.0-1.35","guqu6a3tq61bu3c","prime","5e401a29d96ada000bdf57b4","5f60e3c0a3b16e07647b2ff9","5f61dbf95de76119658c681b","true","896.8450000393204","./Stimuli/SelectedImages/LM/LM103.bmp","76","","","","test","true","N + M","76","repetition","LM","LM103.bmp","remember","","84","3","prime1","right","","","",""
"html-keyboard-response","224","466176","0.0-4.0-1.0-3.35","guqu6a3tq61bu3c","prime","5e401a29d96ada000bdf57b4","5f60e3c0a3b16e07647b2ff9","5f61dbf95de76119658c681b","false","null","<div style=""align-items: center; display: flex; color: dodgerblue; font-size: 90px""><b>o</b></div>","null","","","","forget_cue","","","","","","","","","","","","","","","",""
"html-keyboard-response","225","466881","0.0-4.0-1.0-0.36","guqu6a3tq61bu3c","prime","5e401a29d96ada000bdf57b4","5f60e3c0a3b16e07647b2ff9","5f61dbf95de76119658c681b","false","null","<span style=""color: black; font-size: 48px"">N + M</span>","null","","","","resp_prompt","","","","","","","","","","","","","","","",""
"categorize-image","226","467919","0.0-4.0-1.0-1.36","guqu6a3tq61bu3c","prime","5e401a29d96ada000bdf57b4","5f60e3c0a3b16e07647b2ff9","5f61dbf95de76119658c681b","true","1032.3999999673106","./Stimuli/SelectedImages/LM/LM150.bmp","76","","","","test","true","N + M","76","repetition","LM","LM150.bmp","forget","","85","3","prime1","right","","","",""
"html-keyboard-response","227","469925","0.0-4.0-1.0-3.36","guqu6a3tq61bu3c","prime","5e401a29d96ada000bdf57b4","5f60e3c0a3b16e07647b2ff9","5f61dbf95de76119658c681b","false","null","<div style=""align-items: center; display: flex; color: darkorange; font-size: 90px""><b>ø</b></div>","null","","","","forget_cue","","","","","","","","","","","","","","","",""
"html-keyboard-response","228","470629","0.0-4.0-1.0-0.37","guqu6a3tq61bu3c","prime","5e401a29d96ada000bdf57b4","5f60e3c0a3b16e07647b2ff9","5f61dbf95de76119658c681b","false","null","<span style=""color: black; font-size: 48px"">N + M</span>","null","","","","resp_prompt","","","","","","","","","","","","","","","",""
"categorize-image","229","471600","0.0-4.0-1.0-1.37","guqu6a3tq61bu3c","prime","5e401a29d96ada000bdf57b4","5f60e3c0a3b16e07647b2ff9","5f61dbf95de76119658c681b","true","964.8499999893829","./Stimuli/SelectedImages/SN/SN27.bmp","83","","","","test","true","N + M","83","switch","SN","SN27.bmp","remember","","86","3","prime1","left","","","",""
"html-keyboard-response","230","473601","0.0-4.0-1.0-3.37","guqu6a3tq61bu3c","prime","5e401a29d96ada000bdf57b4","5f60e3c0a3b16e07647b2ff9","5f61dbf95de76119658c681b","false","null","<div style=""align-items: center; display: flex; color: dodgerblue; font-size: 90px""><b>o</b></div>","null","","","","forget_cue","","","","","","","","","","","","","","","",""
"html-keyboard-response","231","474303","0.0-4.0-1.0-0.38","guqu6a3tq61bu3c","prime","5e401a29d96ada000bdf57b4","5f60e3c0a3b16e07647b2ff9","5f61dbf95de76119658c681b","false","null","<span style=""color: black; font-size: 48px"">M + N</span>","null","","","","resp_prompt","","","","","","","","","","","","","","","",""
"categorize-image","232","475347","0.0-4.0-1.0-1.38","guqu6a3tq61bu3c","prime","5e401a29d96ada000bdf57b4","5f60e3c0a3b16e07647b2ff9","5f61dbf95de76119658c681b","true","1040.0400000507943","./Stimuli/SelectedImages/SM/SM148.bmp","83","","","","test","true","M + N","83","repetition","SM","SM148.bmp","forget","","87","3","prime1","left","","","",""
"html-keyboard-response","233","477349","0.0-4.0-1.0-3.38","guqu6a3tq61bu3c","prime","5e401a29d96ada000bdf57b4","5f60e3c0a3b16e07647b2ff9","5f61dbf95de76119658c681b","false","null","<div style=""align-items: center; display: flex; color: darkorange; font-size: 90px""><b>ø</b></div>","null","","","","forget_cue","","","","","","","","","","","","","","","",""
"html-keyboard-response","234","478054","0.0-4.0-1.0-0.39","guqu6a3tq61bu3c","prime","5e401a29d96ada000bdf57b4","5f60e3c0a3b16e07647b2ff9","5f61dbf95de76119658c681b","false","null","<span style=""color: black; font-size: 48px"">M + N</span>","null","","","","resp_prompt","","","","","","","","","","","","","","","",""
"categorize-image","235","479297","0.0-4.0-1.0-1.39","guqu6a3tq61bu3c","prime","5e401a29d96ada000bdf57b4","5f60e3c0a3b16e07647b2ff9","5f61dbf95de76119658c681b","true","1232.3249999899417","./Stimuli/SelectedImages/LM/LM179.bmp","83","","","","test","true","M + N","83","switch","LM","LM179.bmp","remember","","88","3","prime1","left","","","",""
"html-keyboard-response","236","481299","0.0-4.0-1.0-3.39","guqu6a3tq61bu3c","prime","5e401a29d96ada000bdf57b4","5f60e3c0a3b16e07647b2ff9","5f61dbf95de76119658c681b","false","null","<div style=""align-items: center; display: flex; color: dodgerblue; font-size: 90px""><b>o</b></div>","null","","","","forget_cue","","","","","","","","","","","","","","","",""
"html-keyboard-response","237","482005","0.0-4.0-1.0-0.40","guqu6a3tq61bu3c","prime","5e401a29d96ada000bdf57b4","5f60e3c0a3b16e07647b2ff9","5f61dbf95de76119658c681b","false","null","<span style=""color: black; font-size: 48px"">M + N</span>","null","","","","resp_prompt","","","","","","","","","","","","","","","",""
"categorize-image","238","482848","0.0-4.0-1.0-1.40","guqu6a3tq61bu3c","prime","5e401a29d96ada000bdf57b4","5f60e3c0a3b16e07647b2ff9","5f61dbf95de76119658c681b","true","836.669999989681","./Stimuli/SelectedImages/SM/SM108.bmp","83","","","","test","true","M + N","83","switch","SM","SM108.bmp","remember","","89","3","prime1","left","","","",""
"html-keyboard-response","239","484850","0.0-4.0-1.0-3.40","guqu6a3tq61bu3c","prime","5e401a29d96ada000bdf57b4","5f60e3c0a3b16e07647b2ff9","5f61dbf95de76119658c681b","false","null","<div style=""align-items: center; display: flex; color: dodgerblue; font-size: 90px""><b>o</b></div>","null","","","","forget_cue","","","","","","","","","","","","","","","",""
"html-keyboard-response","240","485552","0.0-4.0-1.0-0.41","guqu6a3tq61bu3c","prime","5e401a29d96ada000bdf57b4","5f60e3c0a3b16e07647b2ff9","5f61dbf95de76119658c681b","false","null","<span style=""color: black; font-size: 48px"">N + M</span>","null","","","","resp_prompt","","","","","","","","","","","","","","","",""
"categorize-image","241","487005","0.0-4.0-1.0-1.41","guqu6a3tq61bu3c","prime","5e401a29d96ada000bdf57b4","5f60e3c0a3b16e07647b2ff9","5f61dbf95de76119658c681b","true","1447.0349999610335","./Stimuli/SelectedImages/SM/SM74.bmp","76","","","","test","true","N + M","76","switch","SM","SM74.bmp","remember","","90","3","prime1","right","","","",""
"html-keyboard-response","242","489010","0.0-4.0-1.0-3.41","guqu6a3tq61bu3c","prime","5e401a29d96ada000bdf57b4","5f60e3c0a3b16e07647b2ff9","5f61dbf95de76119658c681b","false","null","<div style=""align-items: center; display: flex; color: dodgerblue; font-size: 90px""><b>o</b></div>","null","","","","forget_cue","","","","","","","","","","","","","","","",""
"html-keyboard-response","243","489717","0.0-4.0-1.0-0.42","guqu6a3tq61bu3c","prime","5e401a29d96ada000bdf57b4","5f60e3c0a3b16e07647b2ff9","5f61dbf95de76119658c681b","false","null","<span style=""color: black; font-size: 48px"">M + N</span>","null","","","","resp_prompt","","","","","","","","","","","","","","","",""
"categorize-image","244","490676","0.0-4.0-1.0-1.42","guqu6a3tq61bu3c","prime","5e401a29d96ada000bdf57b4","5f60e3c0a3b16e07647b2ff9","5f61dbf95de76119658c681b","true","953.3299999893643","./Stimuli/SelectedImages/SN/SN187.bmp","76","","","","test","true","M + N","76","switch","SN","SN187.bmp","forget","","91","3","prime1","right","","","",""
"html-keyboard-response","245","492679","0.0-4.0-1.0-3.42","guqu6a3tq61bu3c","prime","5e401a29d96ada000bdf57b4","5f60e3c0a3b16e07647b2ff9","5f61dbf95de76119658c681b","false","null","<div style=""align-items: center; display: flex; color: darkorange; font-size: 90px""><b>ø</b></div>","null","","","","forget_cue","","","","","","","","","","","","","","","",""
"html-keyboard-response","246","493384","0.0-4.0-1.0-0.43","guqu6a3tq61bu3c","prime","5e401a29d96ada000bdf57b4","5f60e3c0a3b16e07647b2ff9","5f61dbf95de76119658c681b","false","null","<span style=""color: black; font-size: 48px"">N + M</span>","null","","","","resp_prompt","","","","","","","","","","","","","","","",""
"categorize-image","247","494182","0.0-4.0-1.0-1.43","guqu6a3tq61bu3c","prime","5e401a29d96ada000bdf57b4","5f60e3c0a3b16e07647b2ff9","5f61dbf95de76119658c681b","true","792.1450000139885","./Stimuli/SelectedImages/SN/SN155.bmp","83","","","","test","true","N + M","83","repetition","SN","SN155.bmp","forget","","92","3","prime1","left","","","",""
"html-keyboard-response","248","496185","0.0-4.0-1.0-3.43","guqu6a3tq61bu3c","prime","5e401a29d96ada000bdf57b4","5f60e3c0a3b16e07647b2ff9","5f61dbf95de76119658c681b","false","null","<div style=""align-items: center; display: flex; color: darkorange; font-size: 90px""><b>ø</b></div>","null","","","","forget_cue","","","","","","","","","","","","","","","",""
"html-keyboard-response","249","496889","0.0-4.0-1.0-0.44","guqu6a3tq61bu3c","prime","5e401a29d96ada000bdf57b4","5f60e3c0a3b16e07647b2ff9","5f61dbf95de76119658c681b","false","null","<span style=""color: black; font-size: 48px"">M + N</span>","null","","","","resp_prompt","","","","","","","","","","","","","","","",""
"categorize-image","250","497570","0.0-4.0-1.0-1.44","guqu6a3tq61bu3c","prime","5e401a29d96ada000bdf57b4","5f60e3c0a3b16e07647b2ff9","5f61dbf95de76119658c681b","true","675.3950000274926","./Stimuli/SelectedImages/SN/SN179.bmp","76","","","","test","true","M + N","76","repetition","SN","SN179.bmp","forget","","93","3","prime1","right","","","",""
"html-keyboard-response","251","499573","0.0-4.0-1.0-3.44","guqu6a3tq61bu3c","prime","5e401a29d96ada000bdf57b4","5f60e3c0a3b16e07647b2ff9","5f61dbf95de76119658c681b","false","null","<div style=""align-items: center; display: flex; color: darkorange; font-size: 90px""><b>ø</b></div>","null","","","","forget_cue","","","","","","","","","","","","","","","",""
"html-keyboard-response","252","500278","0.0-4.0-1.0-0.45","guqu6a3tq61bu3c","prime","5e401a29d96ada000bdf57b4","5f60e3c0a3b16e07647b2ff9","5f61dbf95de76119658c681b","false","null","<span style=""color: black; font-size: 48px"">N + M</span>","null","","","","resp_prompt","","","","","","","","","","","","","","","",""
