"trial_type","trial_index","time_elapsed","internal_node_id","subject","exp_part","prolific_PID","study_ID","session_ID","use","rt","stimulus","key_press","button_pressed","responses","question_order","trial_part","correct","resp_map","correct_resp","probe_condition","category","image","forget_condition","list","trial_num","block_num","block","response","test_part","n_span","sequence","num_spaces"
"pavlovia","0","3","0.0-0.0","1jdohe4tbpuhyph","","5718a9c4dd9ef10013df01f0","5f60e3c0a3b16e07647b2ff9","5f61dc0462ed4e04b2663bae","false","","","","","","","","","","","","","","","","","","","","","","",""
"html-keyboard-response","1","17509","0.0-1.0-0.0-0.0","1jdohe4tbpuhyph","welcome","5718a9c4dd9ef10013df01f0","5f60e3c0a3b16e07647b2ff9","5f61dc0462ed4e04b2663bae","false","17504.60000000021","<div align=left>Dear participant, <br> thank you for participating in an online study of the Cognition, Action, and Sustainability Unit of the University of Freiburg! <br> <br>The aim of this study is to examine our ability to remember previously learned information. <br>Our goal is to find out, whether our memory improves, when we only remember information that is relevant to us. <br>The experiment will take about 35 minutes to complete. <br> <br>Please, note that you can only participate in this study if you are using a device with a keyboard (PC, Laptop etc.) <br>and not if you are using a mobile device such as a tablet or smartphone.<br> <br>Press 'SPACE' to proceed to the experiment. </div>","32","","","","","","","","","","","","","","","","","","","",""
"html-keyboard-response","2","34674","0.0-1.0-0.0-1.0","1jdohe4tbpuhyph","welcome","5718a9c4dd9ef10013df01f0","5f60e3c0a3b16e07647b2ff9","5f61dc0462ed4e04b2663bae","false","17163.71000000072","<div align=left><strong> Time Course of this experiment: </strong> <br><br> <strong> 1.</strong>  First, please fill in some information regarding your demographic data. <br><br> <strong> 2.</strong>  Next, your task will be to classify everyday objects. <br>In addition, you will be asked to remember certain objects and recall them later. <br>Working on these tasks requires your undivided attention and concentration.<br>It is therefore essential that you eliminate any sources of distraction in your  <br>environment and ensure that you will not be disturbed. <br><br><strong> 3.</strong>  At the end of the experiment, you will be asked to answer a few additional questions. <br> <br><strong> Important:</strong> After finishing the experiment, only close the browser window <br> by clicking on the 'end the experiment'-button when you are asked to do so. <br>Closing the browser window prematurely will make the allocation of your participation credit impossible. <br><br> Press 'SPACE' to start the experiment. </div>","32","","","","","","","","","","","","","","","","","","","",""
"html-button-response","3","38099","0.0-1.0-0.0-2.0","1jdohe4tbpuhyph","welcome","5718a9c4dd9ef10013df01f0","5f60e3c0a3b16e07647b2ff9","5f61dc0462ed4e04b2663bae","true","3421.054999998887","<div align=left><strong> Informed consent </strong>  <br>The aim of our research is to better understand human behavior and mental processes. <br>In the following study your behavior (e.g. choices, reaction times) will be studied. <br> <br><strong> Voluntariness and Anonymity </strong> <br>Your participation in this study is  <strong> voluntary</strong>.<br>You may withdraw your consent to participate at any time without providing a reason for doing so and without fear of prejudice. <br><br>As no personal data will be collected, <strong>your data and your person cannot be connected after data collection</strong> – the data-set is anonymous. <br>Respectively, deletion of your data will not be possible after data collection has been completed, as we cannot retrace your data-set.<br>The results and anonymized data collected in this study will be published as a scientific publication. <br>This will happen in an <strong>anonymized format</strong>, so that no data can be traced back to a specific person. <br> <br>The anonymized data of this study will be made available to other researchers and/or in a data archive on the Internet as a means of transparency and to enable subsequent re-use. By doing so, this study follows the recommendations of the Deutsche Forschungsgemeinschaft (DFG, German Research Foundation) and Deutsche Gesellschaft für Psychologie (DGPS, German Psychological Society) regarding quality assurance in research.<br>If you have any questions now or after the experiment, please contact our team (experiments@cs.uni-freiburg.de).<br><br><br>I hereby declare, that I understand the above described conditions of participation and I agree to participate under these conditions. <br><br> </div>","","0","","","","","","","","","","","","","","","","","","",""
"html-keyboard-response","4","52676","0.0-1.0-0.0-3.0","1jdohe4tbpuhyph","welcome","5718a9c4dd9ef10013df01f0","5f60e3c0a3b16e07647b2ff9","5f61dc0462ed4e04b2663bae","false","14575.230000000374","<div align=left><strong> General information concerning the experiment </strong>  <br> <br>Please follow the instructions:<ol> <li><strong> Do not leave this tab (your browser window) during the experiment and do not reload this tab! </strong>  <br>If you do switch tabs/windows during the experiment (to check your mail or visit another website, for example), <br>the experiment will end automatically and you will <strong>not receive credit</strong> for your participation. <br>Repeated participation or resumption of the experiment is impossible.</li> <br><li>Please close all other programs for the duration of your participation. </li> <br><li>Please mute or turn off your phone and put it out of your reach. </li> <br><li>Please also take off any disturbing accessories (such as wristwatches, bracelets, etc.). </li> <br><li>If you have music playing in the background, please turn it off now. </li> <br></ol>Thank you! <br>Press 'SPACE' to continue. </div>","32","","","","","","","","","","","","","","","","","","","",""
"survey-text","5","56402","0.0-1.0-1.0-0.0","1jdohe4tbpuhyph","demographics","5718a9c4dd9ef10013df01f0","5f60e3c0a3b16e07647b2ff9","5f61dc0462ed4e04b2663bae","true","3720.6499999992957","","","","{""age"":""35""}","","","","","","","","","","","","","","","","","",""
"survey-multi-choice","6","78223","0.0-1.0-1.0-1.0","1jdohe4tbpuhyph","demographics","5718a9c4dd9ef10013df01f0","5f60e3c0a3b16e07647b2ff9","5f61dc0462ed4e04b2663bae","true","21818.570000001273","","","","{""gender"":""female"",""school"":""high school"",""education"":""High school graduate, diploma or equivalent""}","[0,1,2]","","","","","","","","","","","","","","","","",""
"html-keyboard-response","7","91921","0.0-1.0-2.0","1jdohe4tbpuhyph","instructions","5718a9c4dd9ef10013df01f0","5f60e3c0a3b16e07647b2ff9","5f61dc0462ed4e04b2663bae","false","13695.995000000039","<div align=left> The experiment is now about to start: <br> <br>In the following part, you will be presented pictures of everyday objects. <br>Your first task is to <strong>classify these objects. </strong> <br> <br> You will classify them either as mechanical or non-mechanical objects. <br> <br>Objects that include any kind of technical mechanism (for example, wheels, switches, levers, <br> electronic components) fall under the category of <strong>mechanical</strong> objects. <br>Only objects without any kind of technical mechanism should be classified as <strong>non-mechanical</strong>. <br><br>Press 'SPACE' to continue. </div>","32","","","","","","","","","","","","","","","","","","","",""
"html-keyboard-response","8","144980","0.0-2.0-0.0","1jdohe4tbpuhyph","instructions","5718a9c4dd9ef10013df01f0","5f60e3c0a3b16e07647b2ff9","5f61dc0462ed4e04b2663bae","false","53057.5800000006","<div align=justify>You will classify the objects using the <strong>'S'</strong> and the <strong>'L'</strong> keys on your keyboard.<br>For doing so, please place your <strong>left index finger</strong> on the <strong>'S'</strong> key and place your <strong>right index finger</strong> on the <strong>'L'</strong> key. <br><br> Each trial starts with an instruction, indicating which key ('S'/'L') you need to press to classify <br>the object as mechanical (letter M) or non-mechanical (letter N).<br>The instruction <strong>M + N</strong> indicates that, in the current trial, by pressing the left key ('S') you classify the displayed object as mechanical (M) <br> and by pressing the right key ('L') you classify the object as non-mechanical (N). <br>The instruction <strong>N + M</strong> on the other hand indicates that by pressing the left key ('S') you classify the displayed object as non-mechanical (N) <br> and by pressing the right key ('L') you classify the object as mechanical (M). <br><br>Please press the key corresponding to the correct classification as fast as possible as soon as the object is displayed and try to avoid making mistakes.<br>If you do not respond within a 2 second window, a corresponding feedback will be displayed and the next trial will start.<br> The experiment is divided into multiple blocks to give you the opportunity to take a break after each block. <br>First, you can now practice this task. <br><br>Please place your <strong>LEFT INDEX FINGER</strong> on the 'S' key and your <strong>RIGHT INDEX FINGER</strong> on the 'L' key now. <br><br>Press SPACE to continue.</div>","32","","","","","","","","","","","","","","","","","","","",""
"html-keyboard-response","9","146831","0.0-2.0-1.0","1jdohe4tbpuhyph","instructions","5718a9c4dd9ef10013df01f0","5f60e3c0a3b16e07647b2ff9","5f61dc0462ed4e04b2663bae","false","1847.714999999851","<div align=left> You will now have time to practice this task.<br><br>Remember: <br> <br><li>Please place your index fingers on the <strong>'S'</strong> and <strong>'L'</strong> keys <br>to respond as fast and accurately as possible.</li><li>Every picture can be classified as either mechanical or non-mechanical.</li><li>If you do not respond in time or commit an error, you will receive a corresponding feedback. </li><li> Please try to respond as <strong> fast </strong> and as <strong> accurately as possible </strong> .<br><li>To ensure optimal results, please minimize distractions and stay focused. </li><br><br>Press SPACE to continue.</div>","32","","","","","","","","","","","","","","","","","","","",""
"html-keyboard-response","10","147536","0.0-2.0-2.0-0.0","1jdohe4tbpuhyph","practice_no_cue","5718a9c4dd9ef10013df01f0","5f60e3c0a3b16e07647b2ff9","5f61dc0462ed4e04b2663bae","false","null","<span style=""color: black; font-size: 48px"">N + M</span>","null","","","","resp_prompt","","","","","","","","","","","","","","","",""
"categorize-image","11","148261","0.0-2.0-2.0-1.0","1jdohe4tbpuhyph","practice_no_cue","5718a9c4dd9ef10013df01f0","5f60e3c0a3b16e07647b2ff9","5f61dc0462ed4e04b2663bae","true","220.49999999944703","./Stimuli/ImagesPractice/SM97.jpg","76","","","","test","true","N + M","76","","SM","SM97.jpg","remember","old","1","1","start","right","","","",""
"html-keyboard-response","12","148964","0.0-2.0-2.0-0.1","1jdohe4tbpuhyph","practice_no_cue","5718a9c4dd9ef10013df01f0","5f60e3c0a3b16e07647b2ff9","5f61dc0462ed4e04b2663bae","false","null","<span style=""color: black; font-size: 48px"">N + M</span>","null","","","","resp_prompt","","","","","","","","","","","","","","","",""
"categorize-image","13","149655","0.0-2.0-2.0-1.1","1jdohe4tbpuhyph","practice_no_cue","5718a9c4dd9ef10013df01f0","5f60e3c0a3b16e07647b2ff9","5f61dc0462ed4e04b2663bae","true","187.31000000116182","./Stimuli/ImagesPractice/SM62.jpg","76","","","","test","true","N + M","76","","SM","SM62.jpg","remember","old","2","1","start","right","","","",""
"html-keyboard-response","14","150357","0.0-2.0-2.0-0.2","1jdohe4tbpuhyph","practice_no_cue","5718a9c4dd9ef10013df01f0","5f60e3c0a3b16e07647b2ff9","5f61dc0462ed4e04b2663bae","false","null","<span style=""color: black; font-size: 48px"">N + M</span>","null","","","","resp_prompt","","","","","","","","","","","","","","","",""
"categorize-image","15","150939","0.0-2.0-2.0-1.2","1jdohe4tbpuhyph","practice_no_cue","5718a9c4dd9ef10013df01f0","5f60e3c0a3b16e07647b2ff9","5f61dc0462ed4e04b2663bae","true","79.29500000135158","./Stimuli/ImagesPractice/LN2.jpg","76","","","","test","false","N + M","83","","LN","LN2.jpg","forget","old","3","1","start","right","","","",""
"html-keyboard-response","16","151641","0.0-2.0-2.0-0.3","1jdohe4tbpuhyph","practice_no_cue","5718a9c4dd9ef10013df01f0","5f60e3c0a3b16e07647b2ff9","5f61dc0462ed4e04b2663bae","false","null","<span style=""color: black; font-size: 48px"">N + M</span>","null","","","","resp_prompt","","","","","","","","","","","","","","","",""
"categorize-image","17","152336","0.0-2.0-2.0-1.3","1jdohe4tbpuhyph","practice_no_cue","5718a9c4dd9ef10013df01f0","5f60e3c0a3b16e07647b2ff9","5f61dc0462ed4e04b2663bae","true","191.7899999989313","./Stimuli/ImagesPractice/LM230.jpg","76","","","","test","true","N + M","76","","LM","LM230.jpg","forget","old","4","1","start","right","","","",""
"html-keyboard-response","18","153038","0.0-2.0-2.0-0.4","1jdohe4tbpuhyph","practice_no_cue","5718a9c4dd9ef10013df01f0","5f60e3c0a3b16e07647b2ff9","5f61dc0462ed4e04b2663bae","false","null","<span style=""color: black; font-size: 48px"">M + N</span>","null","","","","resp_prompt","","","","","","","","","","","","","","","",""
"categorize-image","19","154061","0.0-2.0-2.0-1.4","1jdohe4tbpuhyph","practice_no_cue","5718a9c4dd9ef10013df01f0","5f60e3c0a3b16e07647b2ff9","5f61dc0462ed4e04b2663bae","true","518.690000000759","./Stimuli/ImagesPractice/SN75.jpg","83","","","","test","false","M + N","76","","SN","SN75.jpg","remember","old","5","1","start","left","","","",""
"html-keyboard-response","20","154764","0.0-2.0-2.0-0.5","1jdohe4tbpuhyph","practice_no_cue","5718a9c4dd9ef10013df01f0","5f60e3c0a3b16e07647b2ff9","5f61dc0462ed4e04b2663bae","false","null","<span style=""color: black; font-size: 48px"">M + N</span>","null","","","","resp_prompt","","","","","","","","","","","","","","","",""
"categorize-image","21","155716","0.0-2.0-2.0-1.5","1jdohe4tbpuhyph","practice_no_cue","5718a9c4dd9ef10013df01f0","5f60e3c0a3b16e07647b2ff9","5f61dc0462ed4e04b2663bae","true","449.7150000006659","./Stimuli/ImagesPractice/SM98.jpg","76","","","","test","false","M + N","83","","SM","SM98.jpg","remember","old","6","1","start","right","","","",""
"html-keyboard-response","22","156418","0.0-2.0-2.0-0.6","1jdohe4tbpuhyph","practice_no_cue","5718a9c4dd9ef10013df01f0","5f60e3c0a3b16e07647b2ff9","5f61dc0462ed4e04b2663bae","false","null","<span style=""color: black; font-size: 48px"">M + N</span>","null","","","","resp_prompt","","","","","","","","","","","","","","","",""
"categorize-image","23","157205","0.0-2.0-2.0-1.6","1jdohe4tbpuhyph","practice_no_cue","5718a9c4dd9ef10013df01f0","5f60e3c0a3b16e07647b2ff9","5f61dc0462ed4e04b2663bae","true","282.3299999999872","./Stimuli/ImagesPractice/LN17.jpg","83","","","","test","false","M + N","76","","LN","LN17.jpg","forget","old","7","1","start","left","","","",""
"html-keyboard-response","24","157910","0.0-2.0-2.0-0.7","1jdohe4tbpuhyph","practice_no_cue","5718a9c4dd9ef10013df01f0","5f60e3c0a3b16e07647b2ff9","5f61dc0462ed4e04b2663bae","false","null","<span style=""color: black; font-size: 48px"">N + M</span>","null","","","","resp_prompt","","","","","","","","","","","","","","","",""
"categorize-image","25","159126","0.0-2.0-2.0-1.7","1jdohe4tbpuhyph","practice_no_cue","5718a9c4dd9ef10013df01f0","5f60e3c0a3b16e07647b2ff9","5f61dc0462ed4e04b2663bae","true","711.9750000001513","./Stimuli/ImagesPractice/LM55.jpg","76","","","","test","true","N + M","76","","LM","LM55.jpg","forget","old","8","1","start","right","","","",""
"html-keyboard-response","26","159829","0.0-2.0-2.0-0.8","1jdohe4tbpuhyph","practice_no_cue","5718a9c4dd9ef10013df01f0","5f60e3c0a3b16e07647b2ff9","5f61dc0462ed4e04b2663bae","false","null","<span style=""color: black; font-size: 48px"">M + N</span>","null","","","","resp_prompt","","","","","","","","","","","","","","","",""
"categorize-image","27","161083","0.0-2.0-2.0-1.8","1jdohe4tbpuhyph","practice_no_cue","5718a9c4dd9ef10013df01f0","5f60e3c0a3b16e07647b2ff9","5f61dc0462ed4e04b2663bae","true","749.8049999994691","./Stimuli/ImagesPractice/SN220.jpg","83","","","","test","false","M + N","76","","SN","SN220.jpg","forget","old","9","1","start","left","","","",""
"html-keyboard-response","28","161785","0.0-2.0-2.0-0.9","1jdohe4tbpuhyph","practice_no_cue","5718a9c4dd9ef10013df01f0","5f60e3c0a3b16e07647b2ff9","5f61dc0462ed4e04b2663bae","false","null","<span style=""color: black; font-size: 48px"">M + N</span>","null","","","","resp_prompt","","","","","","","","","","","","","","","",""
"categorize-image","29","163443","0.0-2.0-2.0-1.9","1jdohe4tbpuhyph","practice_no_cue","5718a9c4dd9ef10013df01f0","5f60e3c0a3b16e07647b2ff9","5f61dc0462ed4e04b2663bae","true","1153.8749999999418","./Stimuli/ImagesPractice/LM143.jpg","76","","","","test","false","M + N","83","","LM","LM143.jpg","remember","old","10","1","start","right","","","",""
"html-keyboard-response","30","164146","0.0-2.0-2.0-0.10","1jdohe4tbpuhyph","practice_no_cue","5718a9c4dd9ef10013df01f0","5f60e3c0a3b16e07647b2ff9","5f61dc0462ed4e04b2663bae","false","null","<span style=""color: black; font-size: 48px"">N + M</span>","null","","","","resp_prompt","","","","","","","","","","","","","","","",""
"categorize-image","31","165105","0.0-2.0-2.0-1.10","1jdohe4tbpuhyph","practice_no_cue","5718a9c4dd9ef10013df01f0","5f60e3c0a3b16e07647b2ff9","5f61dc0462ed4e04b2663bae","true","455.21500000177184","./Stimuli/ImagesPractice/LN109.jpg","76","","","","test","false","N + M","83","","LN","LN109.jpg","remember","old","11","1","start","right","","","",""
"html-keyboard-response","32","165808","0.0-2.0-2.0-0.11","1jdohe4tbpuhyph","practice_no_cue","5718a9c4dd9ef10013df01f0","5f60e3c0a3b16e07647b2ff9","5f61dc0462ed4e04b2663bae","false","null","<span style=""color: black; font-size: 48px"">M + N</span>","null","","","","resp_prompt","","","","","","","","","","","","","","","",""
"categorize-image","33","166647","0.0-2.0-2.0-1.11","1jdohe4tbpuhyph","practice_no_cue","5718a9c4dd9ef10013df01f0","5f60e3c0a3b16e07647b2ff9","5f61dc0462ed4e04b2663bae","true","336.62000000002445","./Stimuli/ImagesPractice/LN72.jpg","83","","","","test","false","M + N","76","","LN","LN72.jpg","forget","old","12","1","start","left","","","",""
"html-keyboard-response","34","167350","0.0-2.0-2.0-0.12","1jdohe4tbpuhyph","practice_no_cue","5718a9c4dd9ef10013df01f0","5f60e3c0a3b16e07647b2ff9","5f61dc0462ed4e04b2663bae","false","null","<span style=""color: black; font-size: 48px"">M + N</span>","null","","","","resp_prompt","","","","","","","","","","","","","","","",""
"categorize-image","35","168019","0.0-2.0-2.0-1.12","1jdohe4tbpuhyph","practice_no_cue","5718a9c4dd9ef10013df01f0","5f60e3c0a3b16e07647b2ff9","5f61dc0462ed4e04b2663bae","true","165.2700000013283","./Stimuli/ImagesPractice/LM147.jpg","83","","","","test","true","M + N","83","","LM","LM147.jpg","remember","old","13","1","start","left","","","",""
"html-keyboard-response","36","168721","0.0-2.0-2.0-0.13","1jdohe4tbpuhyph","practice_no_cue","5718a9c4dd9ef10013df01f0","5f60e3c0a3b16e07647b2ff9","5f61dc0462ed4e04b2663bae","false","null","<span style=""color: black; font-size: 48px"">N + M</span>","null","","","","resp_prompt","","","","","","","","","","","","","","","",""
"categorize-image","37","170072","0.0-2.0-2.0-1.13","1jdohe4tbpuhyph","practice_no_cue","5718a9c4dd9ef10013df01f0","5f60e3c0a3b16e07647b2ff9","5f61dc0462ed4e04b2663bae","true","847.9950000000827","./Stimuli/ImagesPractice/SN76.jpg","83","","","","test","true","N + M","83","","SN","SN76.jpg","remember","old","14","1","start","left","","","",""
"html-keyboard-response","38","170774","0.0-2.0-2.0-0.14","1jdohe4tbpuhyph","practice_no_cue","5718a9c4dd9ef10013df01f0","5f60e3c0a3b16e07647b2ff9","5f61dc0462ed4e04b2663bae","false","null","<span style=""color: black; font-size: 48px"">M + N</span>","null","","","","resp_prompt","","","","","","","","","","","","","","","",""
"categorize-image","39","171967","0.0-2.0-2.0-1.14","1jdohe4tbpuhyph","practice_no_cue","5718a9c4dd9ef10013df01f0","5f60e3c0a3b16e07647b2ff9","5f61dc0462ed4e04b2663bae","true","688.954999999638","./Stimuli/ImagesPractice/SM35.jpg","76","","","","test","false","M + N","83","","SM","SM35.jpg","forget","old","15","1","start","right","","","",""
"html-keyboard-response","40","172669","0.0-2.0-2.0-0.15","1jdohe4tbpuhyph","practice_no_cue","5718a9c4dd9ef10013df01f0","5f60e3c0a3b16e07647b2ff9","5f61dc0462ed4e04b2663bae","false","null","<span style=""color: black; font-size: 48px"">N + M</span>","null","","","","resp_prompt","","","","","","","","","","","","","","","",""
"categorize-image","41","173436","0.0-2.0-2.0-1.15","1jdohe4tbpuhyph","practice_no_cue","5718a9c4dd9ef10013df01f0","5f60e3c0a3b16e07647b2ff9","5f61dc0462ed4e04b2663bae","true","263.32999999975436","./Stimuli/ImagesPractice/SM61.jpg","83","","","","test","false","N + M","76","","SM","SM61.jpg","forget","old","16","1","start","left","","","",""
"html-keyboard-response","42","177099","0.0-2.0-3.0","1jdohe4tbpuhyph","break","5718a9c4dd9ef10013df01f0","5f60e3c0a3b16e07647b2ff9","5f61dc0462ed4e04b2663bae","false","3658.7700000000186","<p style='font-size: 32px;'>Break</><br><br><br><br><br><p style='font-size: 24px;'>In the last block, you committed 10 errors and did not respond in time on 0 trials.
</p><p style='font-size: 24px;'>Try to respond as fast and accurately as possible in the next block as well! </p><p style='font-size: 24px;'>Press SPACE to continue.</p>","32","","","","","","","","","","","","","","","","","","","",""
"html-keyboard-response","43","181417","0.0-2.0-4.0","1jdohe4tbpuhyph","instructions","5718a9c4dd9ef10013df01f0","5f60e3c0a3b16e07647b2ff9","5f61dc0462ed4e04b2663bae","false","4316.329999999667","<div align=left> Great!<br><br>Are you ready to continue?<br><br>If you want to reread the instructions and redo the practice trials, <br>please press „Z“. <br><br>Press SPACE to CONTINUE with the experiment when you are ready. </div>","90","","","","","","","","","","","","","","","","","","","",""
"html-keyboard-response","44","188564","0.0-2.1-0.1","1jdohe4tbpuhyph","instructions","5718a9c4dd9ef10013df01f0","5f60e3c0a3b16e07647b2ff9","5f61dc0462ed4e04b2663bae","false","7142.985000000423","<div align=justify>You will classify the objects using the <strong>'S'</strong> and the <strong>'L'</strong> keys on your keyboard.<br>For doing so, please place your <strong>left index finger</strong> on the <strong>'S'</strong> key and place your <strong>right index finger</strong> on the <strong>'L'</strong> key. <br><br> Each trial starts with an instruction, indicating which key ('S'/'L') you need to press to classify <br>the object as mechanical (letter M) or non-mechanical (letter N).<br>The instruction <strong>M + N</strong> indicates that, in the current trial, by pressing the left key ('S') you classify the displayed object as mechanical (M) <br> and by pressing the right key ('L') you classify the object as non-mechanical (N). <br>The instruction <strong>N + M</strong> on the other hand indicates that by pressing the left key ('S') you classify the displayed object as non-mechanical (N) <br> and by pressing the right key ('L') you classify the object as mechanical (M). <br><br>Please press the key corresponding to the correct classification as fast as possible as soon as the object is displayed and try to avoid making mistakes.<br>If you do not respond within a 2 second window, a corresponding feedback will be displayed and the next trial will start.<br> The experiment is divided into multiple blocks to give you the opportunity to take a break after each block. <br>First, you can now practice this task. <br><br>Please place your <strong>LEFT INDEX FINGER</strong> on the 'S' key and your <strong>RIGHT INDEX FINGER</strong> on the 'L' key now. <br><br>Press SPACE to continue.</div>","32","","","","","","","","","","","","","","","","","","","",""
"html-keyboard-response","45","191132","0.0-2.1-1.1","1jdohe4tbpuhyph","instructions","5718a9c4dd9ef10013df01f0","5f60e3c0a3b16e07647b2ff9","5f61dc0462ed4e04b2663bae","false","2566.034999999858","<div align=left> You will now have time to practice this task.<br><br>Remember: <br> <br><li>Please place your index fingers on the <strong>'S'</strong> and <strong>'L'</strong> keys <br>to respond as fast and accurately as possible.</li><li>Every picture can be classified as either mechanical or non-mechanical.</li><li>If you do not respond in time or commit an error, you will receive a corresponding feedback. </li><li> Please try to respond as <strong> fast </strong> and as <strong> accurately as possible </strong> .<br><li>To ensure optimal results, please minimize distractions and stay focused. </li><br><br>Press SPACE to continue.</div>","32","","","","","","","","","","","","","","","","","","","",""
"html-keyboard-response","46","191835","0.0-2.1-2.1-0.16","1jdohe4tbpuhyph","practice_no_cue","5718a9c4dd9ef10013df01f0","5f60e3c0a3b16e07647b2ff9","5f61dc0462ed4e04b2663bae","false","null","<span style=""color: black; font-size: 48px"">N + M</span>","null","","","","resp_prompt","","","","","","","","","","","","","","","",""
"categorize-image","47","193081","0.0-2.1-2.1-1.16","1jdohe4tbpuhyph","practice_no_cue","5718a9c4dd9ef10013df01f0","5f60e3c0a3b16e07647b2ff9","5f61dc0462ed4e04b2663bae","true","741.0799999997835","./Stimuli/ImagesPractice/LM230.jpg","76","","","","test","true","N + M","76","","LM","LM230.jpg","forget","old","17","2","practice_forget","right","","","",""
"html-keyboard-response","48","193783","0.0-2.1-2.1-0.17","1jdohe4tbpuhyph","practice_no_cue","5718a9c4dd9ef10013df01f0","5f60e3c0a3b16e07647b2ff9","5f61dc0462ed4e04b2663bae","false","null","<span style=""color: black; font-size: 48px"">N + M</span>","null","","","","resp_prompt","","","","","","","","","","","","","","","",""
"categorize-image","49","194823","0.0-2.1-2.1-1.17","1jdohe4tbpuhyph","practice_no_cue","5718a9c4dd9ef10013df01f0","5f60e3c0a3b16e07647b2ff9","5f61dc0462ed4e04b2663bae","true","535.8200000009674","./Stimuli/ImagesPractice/SM97.jpg","76","","","","test","true","N + M","76","","SM","SM97.jpg","remember","old","18","2","practice_forget","right","","","",""
"html-keyboard-response","50","195526","0.0-2.1-2.1-0.18","1jdohe4tbpuhyph","practice_no_cue","5718a9c4dd9ef10013df01f0","5f60e3c0a3b16e07647b2ff9","5f61dc0462ed4e04b2663bae","false","null","<span style=""color: black; font-size: 48px"">N + M</span>","null","","","","resp_prompt","","","","","","","","","","","","","","","",""
"categorize-image","51","196705","0.0-2.1-2.1-1.18","1jdohe4tbpuhyph","practice_no_cue","5718a9c4dd9ef10013df01f0","5f60e3c0a3b16e07647b2ff9","5f61dc0462ed4e04b2663bae","true","677.3700000012177","./Stimuli/ImagesPractice/SM61.jpg","83","","","","test","false","N + M","76","","SM","SM61.jpg","forget","old","19","2","practice_forget","left","","","",""
"html-keyboard-response","52","197408","0.0-2.1-2.1-0.19","1jdohe4tbpuhyph","practice_no_cue","5718a9c4dd9ef10013df01f0","5f60e3c0a3b16e07647b2ff9","5f61dc0462ed4e04b2663bae","false","null","<span style=""color: black; font-size: 48px"">N + M</span>","null","","","","resp_prompt","","","","","","","","","","","","","","","",""
"categorize-image","53","198525","0.0-2.1-2.1-1.19","1jdohe4tbpuhyph","practice_no_cue","5718a9c4dd9ef10013df01f0","5f60e3c0a3b16e07647b2ff9","5f61dc0462ed4e04b2663bae","true","614.6250000001746","./Stimuli/ImagesPractice/SM62.jpg","83","","","","test","false","N + M","76","","SM","SM62.jpg","remember","old","20","2","practice_forget","left","","","",""
"html-keyboard-response","54","199226","0.0-2.1-2.1-0.20","1jdohe4tbpuhyph","practice_no_cue","5718a9c4dd9ef10013df01f0","5f60e3c0a3b16e07647b2ff9","5f61dc0462ed4e04b2663bae","false","null","<span style=""color: black; font-size: 48px"">M + N</span>","null","","","","resp_prompt","","","","","","","","","","","","","","","",""
"categorize-image","55","200108","0.0-2.1-2.1-1.20","1jdohe4tbpuhyph","practice_no_cue","5718a9c4dd9ef10013df01f0","5f60e3c0a3b16e07647b2ff9","5f61dc0462ed4e04b2663bae","true","379.5149999987334","./Stimuli/ImagesPractice/LM143.jpg","83","","","","test","true","M + N","83","","LM","LM143.jpg","remember","old","21","2","practice_forget","left","","","",""
"html-keyboard-response","56","200811","0.0-2.1-2.1-0.21","1jdohe4tbpuhyph","practice_no_cue","5718a9c4dd9ef10013df01f0","5f60e3c0a3b16e07647b2ff9","5f61dc0462ed4e04b2663bae","false","null","<span style=""color: black; font-size: 48px"">M + N</span>","null","","","","resp_prompt","","","","","","","","","","","","","","","",""
"categorize-image","57","201887","0.0-2.1-2.1-1.21","1jdohe4tbpuhyph","practice_no_cue","5718a9c4dd9ef10013df01f0","5f60e3c0a3b16e07647b2ff9","5f61dc0462ed4e04b2663bae","true","572.5399999992223","./Stimuli/ImagesPractice/SM35.jpg","76","","","","test","false","M + N","83","","SM","SM35.jpg","forget","old","22","2","practice_forget","right","","","",""
"html-keyboard-response","58","202589","0.0-2.1-2.1-0.22","1jdohe4tbpuhyph","practice_no_cue","5718a9c4dd9ef10013df01f0","5f60e3c0a3b16e07647b2ff9","5f61dc0462ed4e04b2663bae","false","null","<span style=""color: black; font-size: 48px"">M + N</span>","null","","","","resp_prompt","","","","","","","","","","","","","","","",""
"categorize-image","59","203409","0.0-2.1-2.1-1.22","1jdohe4tbpuhyph","practice_no_cue","5718a9c4dd9ef10013df01f0","5f60e3c0a3b16e07647b2ff9","5f61dc0462ed4e04b2663bae","true","318.35999999928754","./Stimuli/ImagesPractice/SN75.jpg","76","","","","test","true","M + N","76","","SN","SN75.jpg","remember","old","23","2","practice_forget","right","","","",""
"html-keyboard-response","60","204111","0.0-2.1-2.1-0.23","1jdohe4tbpuhyph","practice_no_cue","5718a9c4dd9ef10013df01f0","5f60e3c0a3b16e07647b2ff9","5f61dc0462ed4e04b2663bae","false","null","<span style=""color: black; font-size: 48px"">N + M</span>","null","","","","resp_prompt","","","","","","","","","","","","","","","",""
"categorize-image","61","204966","0.0-2.1-2.1-1.23","1jdohe4tbpuhyph","practice_no_cue","5718a9c4dd9ef10013df01f0","5f60e3c0a3b16e07647b2ff9","5f61dc0462ed4e04b2663bae","true","351.3099999999977","./Stimuli/ImagesPractice/LN2.jpg","83","","","","test","true","N + M","83","","LN","LN2.jpg","forget","old","24","2","practice_forget","left","","","",""
"html-keyboard-response","62","205669","0.0-2.1-2.1-0.24","1jdohe4tbpuhyph","practice_no_cue","5718a9c4dd9ef10013df01f0","5f60e3c0a3b16e07647b2ff9","5f61dc0462ed4e04b2663bae","false","null","<span style=""color: black; font-size: 48px"">M + N</span>","null","","","","resp_prompt","","","","","","","","","","","","","","","",""
"categorize-image","63","206478","0.0-2.1-2.1-1.24","1jdohe4tbpuhyph","practice_no_cue","5718a9c4dd9ef10013df01f0","5f60e3c0a3b16e07647b2ff9","5f61dc0462ed4e04b2663bae","true","305.6149999992922","./Stimuli/ImagesPractice/LM147.jpg","83","","","","test","true","M + N","83","","LM","LM147.jpg","remember","old","25","2","practice_forget","left","","","",""
"html-keyboard-response","64","207180","0.0-2.1-2.1-0.25","1jdohe4tbpuhyph","practice_no_cue","5718a9c4dd9ef10013df01f0","5f60e3c0a3b16e07647b2ff9","5f61dc0462ed4e04b2663bae","false","null","<span style=""color: black; font-size: 48px"">M + N</span>","null","","","","resp_prompt","","","","","","","","","","","","","","","",""
"categorize-image","65","207929","0.0-2.1-2.1-1.25","1jdohe4tbpuhyph","practice_no_cue","5718a9c4dd9ef10013df01f0","5f60e3c0a3b16e07647b2ff9","5f61dc0462ed4e04b2663bae","true","244.6949999994249","./Stimuli/ImagesPractice/LN72.jpg","76","","","","test","true","M + N","76","","LN","LN72.jpg","forget","old","26","2","practice_forget","right","","","",""
"html-keyboard-response","66","208631","0.0-2.1-2.1-0.26","1jdohe4tbpuhyph","practice_no_cue","5718a9c4dd9ef10013df01f0","5f60e3c0a3b16e07647b2ff9","5f61dc0462ed4e04b2663bae","false","null","<span style=""color: black; font-size: 48px"">M + N</span>","null","","","","resp_prompt","","","","","","","","","","","","","","","",""
"categorize-image","67","209429","0.0-2.1-2.1-1.26","1jdohe4tbpuhyph","practice_no_cue","5718a9c4dd9ef10013df01f0","5f60e3c0a3b16e07647b2ff9","5f61dc0462ed4e04b2663bae","true","293.77000000025146","./Stimuli/ImagesPractice/SN220.jpg","76","","","","test","true","M + N","76","","SN","SN220.jpg","forget","old","27","2","practice_forget","right","","","",""
"html-keyboard-response","68","210131","0.0-2.1-2.1-0.27","1jdohe4tbpuhyph","practice_no_cue","5718a9c4dd9ef10013df01f0","5f60e3c0a3b16e07647b2ff9","5f61dc0462ed4e04b2663bae","false","null","<span style=""color: black; font-size: 48px"">N + M</span>","null","","","","resp_prompt","","","","","","","","","","","","","","","",""
"categorize-image","69","210805","0.0-2.1-2.1-1.27","1jdohe4tbpuhyph","practice_no_cue","5718a9c4dd9ef10013df01f0","5f60e3c0a3b16e07647b2ff9","5f61dc0462ed4e04b2663bae","true","170.50500000006286","./Stimuli/ImagesPractice/SN76.jpg","76","","","","test","false","N + M","83","","SN","SN76.jpg","remember","old","28","2","practice_forget","right","","","",""
"html-keyboard-response","70","211507","0.0-2.1-2.1-0.28","1jdohe4tbpuhyph","practice_no_cue","5718a9c4dd9ef10013df01f0","5f60e3c0a3b16e07647b2ff9","5f61dc0462ed4e04b2663bae","false","null","<span style=""color: black; font-size: 48px"">M + N</span>","null","","","","resp_prompt","","","","","","","","","","","","","","","",""
"categorize-image","71","212257","0.0-2.1-2.1-1.28","1jdohe4tbpuhyph","practice_no_cue","5718a9c4dd9ef10013df01f0","5f60e3c0a3b16e07647b2ff9","5f61dc0462ed4e04b2663bae","true","245.36999999874388","./Stimuli/ImagesPractice/LN17.jpg","83","","","","test","false","M + N","76","","LN","LN17.jpg","forget","old","29","2","practice_forget","left","","","",""
"html-keyboard-response","72","212959","0.0-2.1-2.1-0.29","1jdohe4tbpuhyph","practice_no_cue","5718a9c4dd9ef10013df01f0","5f60e3c0a3b16e07647b2ff9","5f61dc0462ed4e04b2663bae","false","null","<span style=""color: black; font-size: 48px"">N + M</span>","null","","","","resp_prompt","","","","","","","","","","","","","","","",""
"categorize-image","73","213705","0.0-2.1-2.1-1.29","1jdohe4tbpuhyph","practice_no_cue","5718a9c4dd9ef10013df01f0","5f60e3c0a3b16e07647b2ff9","5f61dc0462ed4e04b2663bae","true","241.97500000079162","./Stimuli/ImagesPractice/LM55.jpg","76","","","","test","true","N + M","76","","LM","LM55.jpg","forget","old","30","2","practice_forget","right","","","",""
"html-keyboard-response","74","214408","0.0-2.1-2.1-0.30","1jdohe4tbpuhyph","practice_no_cue","5718a9c4dd9ef10013df01f0","5f60e3c0a3b16e07647b2ff9","5f61dc0462ed4e04b2663bae","false","null","<span style=""color: black; font-size: 48px"">N + M</span>","null","","","","resp_prompt","","","","","","","","","","","","","","","",""
"categorize-image","75","215207","0.0-2.1-2.1-1.30","1jdohe4tbpuhyph","practice_no_cue","5718a9c4dd9ef10013df01f0","5f60e3c0a3b16e07647b2ff9","5f61dc0462ed4e04b2663bae","true","295.4000000008964","./Stimuli/ImagesPractice/LN109.jpg","76","","","","test","false","N + M","83","","LN","LN109.jpg","remember","old","31","2","practice_forget","right","","","",""
"html-keyboard-response","76","215909","0.0-2.1-2.1-0.31","1jdohe4tbpuhyph","practice_no_cue","5718a9c4dd9ef10013df01f0","5f60e3c0a3b16e07647b2ff9","5f61dc0462ed4e04b2663bae","false","null","<span style=""color: black; font-size: 48px"">M + N</span>","null","","","","resp_prompt","","","","","","","","","","","","","","","",""
"categorize-image","77","216638","0.0-2.1-2.1-1.31","1jdohe4tbpuhyph","practice_no_cue","5718a9c4dd9ef10013df01f0","5f60e3c0a3b16e07647b2ff9","5f61dc0462ed4e04b2663bae","true","225.8849999998347","./Stimuli/ImagesPractice/SM98.jpg","76","","","","test","false","M + N","83","","SM","SM98.jpg","remember","old","32","2","practice_forget","right","","","",""
"html-keyboard-response","78","218518","0.0-2.1-3.1","1jdohe4tbpuhyph","break","5718a9c4dd9ef10013df01f0","5f60e3c0a3b16e07647b2ff9","5f61dc0462ed4e04b2663bae","false","1872.8850000006496","<p style='font-size: 32px;'>Break</><br><br><br><br><br><p style='font-size: 24px;'>In the last block, you committed 7 errors and did not respond in time on 0 trials.
</p><p style='font-size: 24px;'>Try to respond as fast and accurately as possible in the next block as well! </p><p style='font-size: 24px;'>Press SPACE to continue.</p>","32","","","","","","","","","","","","","","","","","","","",""
"html-keyboard-response","79","219997","0.0-2.1-4.1","1jdohe4tbpuhyph","instructions","5718a9c4dd9ef10013df01f0","5f60e3c0a3b16e07647b2ff9","5f61dc0462ed4e04b2663bae","false","1478.0000000009604","<div align=left> Great!<br><br>Are you ready to continue?<br><br>If you want to reread the instructions and redo the practice trials, <br>please press „Z“. <br><br>Press SPACE to CONTINUE with the experiment when you are ready. </div>","32","","","","","","","","","","","","","","","","","","","",""
"html-keyboard-response","80","240286","0.0-3.0-0.0","1jdohe4tbpuhyph","instructions","5718a9c4dd9ef10013df01f0","5f60e3c0a3b16e07647b2ff9","5f61dc0462ed4e04b2663bae","false","20287.1049999994","<div align=left>Great!<br> <strong>Attention</strong>! You will now receive a second, additional task! <br><br>To this point it was you <strong>first task</strong> to correctly <strong>classify objects</strong>. <br><br>As mentioned in the beginning, we aim to examine how well humans can remember previously learned information.<br>We would like to find out whether our memory improves if we only remember information that is relevant to us. <br><br>Therefore, your <strong>second task</strong> will be to <strong>remember</strong> the pictures you are to categorize. <br> After the learning phase, there will be a memory test phase, in which you will be asked to indicate whether you have seen a picture before or not. <br>Some, but not all pictures shown in the learning phase will appear in the memory test phase.<br>After classifying a picture, you will be told whether you should remember it for the memory test phase or not. <br>Thus, some pictures can be forgotten, whereas others have to be remembered. <br><br>Note: From now on, feedback will only be displayed if you responded incorrectly or not in time.<br><br>Press SPACE to continue.</div>","32","","","","","","","","","","","","","","","","","","","",""
"html-keyboard-response","81","256934","0.0-3.0-1.0","1jdohe4tbpuhyph","instructions","5718a9c4dd9ef10013df01f0","5f60e3c0a3b16e07647b2ff9","5f61dc0462ed4e04b2663bae","false","16645.83999999924","<div align=left>In the following part, you will thus have to remember only some pictures. <br>Immediately after seeing and classifying the picture, a symbol will be displayed, indicating whether you should remember or forget the previous picture. <br><br>A <span style='color: dodgerblue; font-size: 28px'>O</span> indicates REMEMBER. That means, you have to remember this picture, because it will be tested later. <br><br>A <span style='color: darkorange; font-size:28px'>Ø</span> indicates FORGET. You do not have to remember this picture. <br><br> As you will have to remember a lot of pictures, it will be hard for you to remember all of them. <br>It will put you at an advantage if you instantly forget the pictures you are not asked to remember. <br> This will make it easier for you to remember the pictures that will be tested afterwards. <br><br>Press SPACE to continue.</div>","32","","","","","","","","","","","","","","","","","","","",""
"html-keyboard-response","82","269776","0.0-3.0-2.0","1jdohe4tbpuhyph","instructions","5718a9c4dd9ef10013df01f0","5f60e3c0a3b16e07647b2ff9","5f61dc0462ed4e04b2663bae","false","12840.734999999753","<div align=left> Now you have the chance to practice both tasks together.<br><br>Remember: <br> <br><li>Please place your index fingers on the <strong>'S'</strong> and <strong>'L'</strong> keys <br>to respond as fast and accurately as possible.</li><li>Every picture can be classified as either mechanical or non-mechanical.</li><li>If you do not respond in time or commit an error, you will receive a corresponding feedback. <br>Please try to respond as <strong> fast </strong> and as <strong> accurately as possible </strong>.</li><li> Please remember only the to-be-remembered <span style='color: dodgerblue; font-size: 28px'>O</span> pictures. <br></li><li> Please minimize distractions and stay focused. </li><br><br>Press SPACE to START</div>","32","","","","","","","","","","","","","","","","","","","",""
"html-keyboard-response","83","270479","0.0-3.0-3.0-0.0","1jdohe4tbpuhyph","practice_cue","5718a9c4dd9ef10013df01f0","5f60e3c0a3b16e07647b2ff9","5f61dc0462ed4e04b2663bae","false","null","<span style=""color: black; font-size: 48px"">M + N</span>","null","","","","resp_prompt","","","","","","","","","","","","","","","",""
"categorize-image","84","270822","0.0-3.0-3.0-1.0","1jdohe4tbpuhyph","practice_cue","5718a9c4dd9ef10013df01f0","5f60e3c0a3b16e07647b2ff9","5f61dc0462ed4e04b2663bae","true","335.8150000003516","./Stimuli/ImagesPractice/SM35.jpg","76","","","","test","false","M + N","83","","SM","SM35.jpg","forget","old","33","3","practice_forget","right","","","",""
"html-keyboard-response","85","271325","0.0-3.0-3.0-2.0-0.0","1jdohe4tbpuhyph","practice_cue","5718a9c4dd9ef10013df01f0","5f60e3c0a3b16e07647b2ff9","5f61dc0462ed4e04b2663bae","false","null","<span style=""color: red; font-size: 48px"">Error!</span>","null","","","","feedback","","","","","","","","","","","","","","","",""
"html-keyboard-response","86","273327","0.0-3.0-3.0-3.0","1jdohe4tbpuhyph","practice_cue","5718a9c4dd9ef10013df01f0","5f60e3c0a3b16e07647b2ff9","5f61dc0462ed4e04b2663bae","false","null","<div style=""align-items: center; display: flex; color: darkorange; font-size: 90px""><b>ø</b></div>","null","","","","forget_cue","","","","","","","","","","","","","","","",""
"html-keyboard-response","87","274029","0.0-3.0-3.0-0.1","1jdohe4tbpuhyph","practice_cue","5718a9c4dd9ef10013df01f0","5f60e3c0a3b16e07647b2ff9","5f61dc0462ed4e04b2663bae","false","null","<span style=""color: black; font-size: 48px"">N + M</span>","null","","","","resp_prompt","","","","","","","","","","","","","","","",""
"categorize-image","88","274312","0.0-3.0-3.0-1.1","1jdohe4tbpuhyph","practice_cue","5718a9c4dd9ef10013df01f0","5f60e3c0a3b16e07647b2ff9","5f61dc0462ed4e04b2663bae","true","276.7250000015483","./Stimuli/ImagesPractice/SM62.jpg","76","","","","test","true","N + M","76","","SM","SM62.jpg","remember","old","34","3","practice_forget","right","","","",""
"html-keyboard-response","89","276314","0.0-3.0-3.0-3.1","1jdohe4tbpuhyph","practice_cue","5718a9c4dd9ef10013df01f0","5f60e3c0a3b16e07647b2ff9","5f61dc0462ed4e04b2663bae","false","null","<div style=""align-items: center; display: flex; color: dodgerblue; font-size: 90px""><b>o</b></div>","null","","","","forget_cue","","","","","","","","","","","","","","","",""
"html-keyboard-response","90","277016","0.0-3.0-3.0-0.2","1jdohe4tbpuhyph","practice_cue","5718a9c4dd9ef10013df01f0","5f60e3c0a3b16e07647b2ff9","5f61dc0462ed4e04b2663bae","false","null","<span style=""color: black; font-size: 48px"">M + N</span>","null","","","","resp_prompt","","","","","","","","","","","","","","","",""
"categorize-image","91","277272","0.0-3.0-3.0-1.2","1jdohe4tbpuhyph","practice_cue","5718a9c4dd9ef10013df01f0","5f60e3c0a3b16e07647b2ff9","5f61dc0462ed4e04b2663bae","true","251.57000000035623","./Stimuli/ImagesPractice/LN72.jpg","83","","","","test","false","M + N","76","","LN","LN72.jpg","forget","old","35","3","practice_forget","left","","","",""
"html-keyboard-response","92","277774","0.0-3.0-3.0-2.2-0.2","1jdohe4tbpuhyph","practice_cue","5718a9c4dd9ef10013df01f0","5f60e3c0a3b16e07647b2ff9","5f61dc0462ed4e04b2663bae","false","null","<span style=""color: red; font-size: 48px"">Error!</span>","null","","","","feedback","","","","","","","","","","","","","","","",""
"html-keyboard-response","93","279777","0.0-3.0-3.0-3.2","1jdohe4tbpuhyph","practice_cue","5718a9c4dd9ef10013df01f0","5f60e3c0a3b16e07647b2ff9","5f61dc0462ed4e04b2663bae","false","null","<div style=""align-items: center; display: flex; color: darkorange; font-size: 90px""><b>ø</b></div>","null","","","","forget_cue","","","","","","","","","","","","","","","",""
"html-keyboard-response","94","280479","0.0-3.0-3.0-0.3","1jdohe4tbpuhyph","practice_cue","5718a9c4dd9ef10013df01f0","5f60e3c0a3b16e07647b2ff9","5f61dc0462ed4e04b2663bae","false","null","<span style=""color: black; font-size: 48px"">M + N</span>","null","","","","resp_prompt","","","","","","","","","","","","","","","",""
"categorize-image","95","280896","0.0-3.0-3.0-1.3","1jdohe4tbpuhyph","practice_cue","5718a9c4dd9ef10013df01f0","5f60e3c0a3b16e07647b2ff9","5f61dc0462ed4e04b2663bae","true","410.9649999990943","./Stimuli/ImagesPractice/SN220.jpg","76","","","","test","true","M + N","76","","SN","SN220.jpg","forget","old","36","3","practice_forget","right","","","",""
"html-keyboard-response","96","282898","0.0-3.0-3.0-3.3","1jdohe4tbpuhyph","practice_cue","5718a9c4dd9ef10013df01f0","5f60e3c0a3b16e07647b2ff9","5f61dc0462ed4e04b2663bae","false","null","<div style=""align-items: center; display: flex; color: darkorange; font-size: 90px""><b>ø</b></div>","null","","","","forget_cue","","","","","","","","","","","","","","","",""
"html-keyboard-response","97","283600","0.0-3.0-3.0-0.4","1jdohe4tbpuhyph","practice_cue","5718a9c4dd9ef10013df01f0","5f60e3c0a3b16e07647b2ff9","5f61dc0462ed4e04b2663bae","false","null","<span style=""color: black; font-size: 48px"">N + M</span>","null","","","","resp_prompt","","","","","","","","","","","","","","","",""
"categorize-image","98","283881","0.0-3.0-3.0-1.4","1jdohe4tbpuhyph","practice_cue","5718a9c4dd9ef10013df01f0","5f60e3c0a3b16e07647b2ff9","5f61dc0462ed4e04b2663bae","true","275.2049999998999","./Stimuli/ImagesPractice/LM230.jpg","76","","","","test","true","N + M","76","","LM","LM230.jpg","forget","old","37","3","practice_forget","right","","","",""
"html-keyboard-response","99","285882","0.0-3.0-3.0-3.4","1jdohe4tbpuhyph","practice_cue","5718a9c4dd9ef10013df01f0","5f60e3c0a3b16e07647b2ff9","5f61dc0462ed4e04b2663bae","false","null","<div style=""align-items: center; display: flex; color: darkorange; font-size: 90px""><b>ø</b></div>","null","","","","forget_cue","","","","","","","","","","","","","","","",""
"html-keyboard-response","100","286584","0.0-3.0-3.0-0.5","1jdohe4tbpuhyph","practice_cue","5718a9c4dd9ef10013df01f0","5f60e3c0a3b16e07647b2ff9","5f61dc0462ed4e04b2663bae","false","null","<span style=""color: black; font-size: 48px"">M + N</span>","null","","","","resp_prompt","","","","","","","","","","","","","","","",""
"categorize-image","101","286913","0.0-3.0-3.0-1.5","1jdohe4tbpuhyph","practice_cue","5718a9c4dd9ef10013df01f0","5f60e3c0a3b16e07647b2ff9","5f61dc0462ed4e04b2663bae","true","323.1500000001979","./Stimuli/ImagesPractice/LN17.jpg","83","","","","test","false","M + N","76","","LN","LN17.jpg","forget","old","38","3","practice_forget","left","","","",""
"html-keyboard-response","102","287415","0.0-3.0-3.0-2.5-0.5","1jdohe4tbpuhyph","practice_cue","5718a9c4dd9ef10013df01f0","5f60e3c0a3b16e07647b2ff9","5f61dc0462ed4e04b2663bae","false","null","<span style=""color: red; font-size: 48px"">Error!</span>","null","","","","feedback","","","","","","","","","","","","","","","",""
"html-keyboard-response","103","289417","0.0-3.0-3.0-3.5","1jdohe4tbpuhyph","practice_cue","5718a9c4dd9ef10013df01f0","5f60e3c0a3b16e07647b2ff9","5f61dc0462ed4e04b2663bae","false","null","<div style=""align-items: center; display: flex; color: darkorange; font-size: 90px""><b>ø</b></div>","null","","","","forget_cue","","","","","","","","","","","","","","","",""
"html-keyboard-response","104","290118","0.0-3.0-3.0-0.6","1jdohe4tbpuhyph","practice_cue","5718a9c4dd9ef10013df01f0","5f60e3c0a3b16e07647b2ff9","5f61dc0462ed4e04b2663bae","false","null","<span style=""color: black; font-size: 48px"">M + N</span>","null","","","","resp_prompt","","","","","","","","","","","","","","","",""
"categorize-image","105","290837","0.0-3.0-3.0-1.6","1jdohe4tbpuhyph","practice_cue","5718a9c4dd9ef10013df01f0","5f60e3c0a3b16e07647b2ff9","5f61dc0462ed4e04b2663bae","true","712.2650000001304","./Stimuli/ImagesPractice/SM98.jpg","76","","","","test","false","M + N","83","","SM","SM98.jpg","remember","old","39","3","practice_forget","right","","","",""
"html-keyboard-response","106","291339","0.0-3.0-3.0-2.6-0.6","1jdohe4tbpuhyph","practice_cue","5718a9c4dd9ef10013df01f0","5f60e3c0a3b16e07647b2ff9","5f61dc0462ed4e04b2663bae","false","null","<span style=""color: red; font-size: 48px"">Error!</span>","null","","","","feedback","","","","","","","","","","","","","","","",""
"html-keyboard-response","107","293342","0.0-3.0-3.0-3.6","1jdohe4tbpuhyph","practice_cue","5718a9c4dd9ef10013df01f0","5f60e3c0a3b16e07647b2ff9","5f61dc0462ed4e04b2663bae","false","null","<div style=""align-items: center; display: flex; color: dodgerblue; font-size: 90px""><b>o</b></div>","null","","","","forget_cue","","","","","","","","","","","","","","","",""
"html-keyboard-response","108","294043","0.0-3.0-3.0-0.7","1jdohe4tbpuhyph","practice_cue","5718a9c4dd9ef10013df01f0","5f60e3c0a3b16e07647b2ff9","5f61dc0462ed4e04b2663bae","false","null","<span style=""color: black; font-size: 48px"">M + N</span>","null","","","","resp_prompt","","","","","","","","","","","","","","","",""
"categorize-image","109","294894","0.0-3.0-3.0-1.7","1jdohe4tbpuhyph","practice_cue","5718a9c4dd9ef10013df01f0","5f60e3c0a3b16e07647b2ff9","5f61dc0462ed4e04b2663bae","true","846.9199999999255","./Stimuli/ImagesPractice/LM147.jpg","76","","","","test","false","M + N","83","","LM","LM147.jpg","remember","old","40","3","practice_forget","right","","","",""
"html-keyboard-response","110","295395","0.0-3.0-3.0-2.7-0.7","1jdohe4tbpuhyph","practice_cue","5718a9c4dd9ef10013df01f0","5f60e3c0a3b16e07647b2ff9","5f61dc0462ed4e04b2663bae","false","null","<span style=""color: red; font-size: 48px"">Error!</span>","null","","","","feedback","","","","","","","","","","","","","","","",""
"html-keyboard-response","111","297398","0.0-3.0-3.0-3.7","1jdohe4tbpuhyph","practice_cue","5718a9c4dd9ef10013df01f0","5f60e3c0a3b16e07647b2ff9","5f61dc0462ed4e04b2663bae","false","null","<div style=""align-items: center; display: flex; color: dodgerblue; font-size: 90px""><b>o</b></div>","null","","","","forget_cue","","","","","","","","","","","","","","","",""
"html-keyboard-response","112","298100","0.0-3.0-3.0-0.8","1jdohe4tbpuhyph","practice_cue","5718a9c4dd9ef10013df01f0","5f60e3c0a3b16e07647b2ff9","5f61dc0462ed4e04b2663bae","false","null","<span style=""color: black; font-size: 48px"">M + N</span>","null","","","","resp_prompt","","","","","","","","","","","","","","","",""
"categorize-image","113","298622","0.0-3.0-3.0-1.8","1jdohe4tbpuhyph","practice_cue","5718a9c4dd9ef10013df01f0","5f60e3c0a3b16e07647b2ff9","5f61dc0462ed4e04b2663bae","true","516.4899999999325","./Stimuli/ImagesPractice/LM143.jpg","83","","","","test","true","M + N","83","","LM","LM143.jpg","remember","old","41","3","practice_forget","left","","","",""
"html-keyboard-response","114","300625","0.0-3.0-3.0-3.8","1jdohe4tbpuhyph","practice_cue","5718a9c4dd9ef10013df01f0","5f60e3c0a3b16e07647b2ff9","5f61dc0462ed4e04b2663bae","false","null","<div style=""align-items: center; display: flex; color: dodgerblue; font-size: 90px""><b>o</b></div>","null","","","","forget_cue","","","","","","","","","","","","","","","",""
"html-keyboard-response","115","301327","0.0-3.0-3.0-0.9","1jdohe4tbpuhyph","practice_cue","5718a9c4dd9ef10013df01f0","5f60e3c0a3b16e07647b2ff9","5f61dc0462ed4e04b2663bae","false","null","<span style=""color: black; font-size: 48px"">N + M</span>","null","","","","resp_prompt","","","","","","","","","","","","","","","",""
"categorize-image","116","302035","0.0-3.0-3.0-1.9","1jdohe4tbpuhyph","practice_cue","5718a9c4dd9ef10013df01f0","5f60e3c0a3b16e07647b2ff9","5f61dc0462ed4e04b2663bae","true","703.2550000003539","./Stimuli/ImagesPractice/LN109.jpg","76","","","","test","false","N + M","83","","LN","LN109.jpg","remember","old","42","3","practice_forget","right","","","",""
"html-keyboard-response","117","302537","0.0-3.0-3.0-2.9-0.9","1jdohe4tbpuhyph","practice_cue","5718a9c4dd9ef10013df01f0","5f60e3c0a3b16e07647b2ff9","5f61dc0462ed4e04b2663bae","false","null","<span style=""color: red; font-size: 48px"">Error!</span>","null","","","","feedback","","","","","","","","","","","","","","","",""
"html-keyboard-response","118","304540","0.0-3.0-3.0-3.9","1jdohe4tbpuhyph","practice_cue","5718a9c4dd9ef10013df01f0","5f60e3c0a3b16e07647b2ff9","5f61dc0462ed4e04b2663bae","false","null","<div style=""align-items: center; display: flex; color: dodgerblue; font-size: 90px""><b>o</b></div>","null","","","","forget_cue","","","","","","","","","","","","","","","",""
"html-keyboard-response","119","305242","0.0-3.0-3.0-0.10","1jdohe4tbpuhyph","practice_cue","5718a9c4dd9ef10013df01f0","5f60e3c0a3b16e07647b2ff9","5f61dc0462ed4e04b2663bae","false","null","<span style=""color: black; font-size: 48px"">N + M</span>","null","","","","resp_prompt","","","","","","","","","","","","","","","",""
"categorize-image","120","306230","0.0-3.0-3.0-1.10","1jdohe4tbpuhyph","practice_cue","5718a9c4dd9ef10013df01f0","5f60e3c0a3b16e07647b2ff9","5f61dc0462ed4e04b2663bae","true","982.9399999998859","./Stimuli/ImagesPractice/SM61.jpg","76","","","","test","true","N + M","76","","SM","SM61.jpg","forget","old","43","3","practice_forget","right","","","",""
"html-keyboard-response","121","308231","0.0-3.0-3.0-3.10","1jdohe4tbpuhyph","practice_cue","5718a9c4dd9ef10013df01f0","5f60e3c0a3b16e07647b2ff9","5f61dc0462ed4e04b2663bae","false","null","<div style=""align-items: center; display: flex; color: darkorange; font-size: 90px""><b>ø</b></div>","null","","","","forget_cue","","","","","","","","","","","","","","","",""
"html-keyboard-response","122","308933","0.0-3.0-3.0-0.11","1jdohe4tbpuhyph","practice_cue","5718a9c4dd9ef10013df01f0","5f60e3c0a3b16e07647b2ff9","5f61dc0462ed4e04b2663bae","false","null","<span style=""color: black; font-size: 48px"">M + N</span>","null","","","","resp_prompt","","","","","","","","","","","","","","","",""
"categorize-image","123","309581","0.0-3.0-3.0-1.11","1jdohe4tbpuhyph","practice_cue","5718a9c4dd9ef10013df01f0","5f60e3c0a3b16e07647b2ff9","5f61dc0462ed4e04b2663bae","true","642.3649999996996","./Stimuli/ImagesPractice/SN75.jpg","83","","","","test","false","M + N","76","","SN","SN75.jpg","remember","old","44","3","practice_forget","left","","","",""
"html-keyboard-response","124","310083","0.0-3.0-3.0-2.11-0.11","1jdohe4tbpuhyph","practice_cue","5718a9c4dd9ef10013df01f0","5f60e3c0a3b16e07647b2ff9","5f61dc0462ed4e04b2663bae","false","null","<span style=""color: red; font-size: 48px"">Error!</span>","null","","","","feedback","","","","","","","","","","","","","","","",""
"html-keyboard-response","125","312085","0.0-3.0-3.0-3.11","1jdohe4tbpuhyph","practice_cue","5718a9c4dd9ef10013df01f0","5f60e3c0a3b16e07647b2ff9","5f61dc0462ed4e04b2663bae","false","null","<div style=""align-items: center; display: flex; color: dodgerblue; font-size: 90px""><b>o</b></div>","null","","","","forget_cue","","","","","","","","","","","","","","","",""
"html-keyboard-response","126","312786","0.0-3.0-3.0-0.12","1jdohe4tbpuhyph","practice_cue","5718a9c4dd9ef10013df01f0","5f60e3c0a3b16e07647b2ff9","5f61dc0462ed4e04b2663bae","false","null","<span style=""color: black; font-size: 48px"">N + M</span>","null","","","","resp_prompt","","","","","","","","","","","","","","","",""
"categorize-image","127","313609","0.0-3.0-3.0-1.12","1jdohe4tbpuhyph","practice_cue","5718a9c4dd9ef10013df01f0","5f60e3c0a3b16e07647b2ff9","5f61dc0462ed4e04b2663bae","true","816.8549999991083","./Stimuli/ImagesPractice/LM55.jpg","76","","","","test","true","N + M","76","","LM","LM55.jpg","forget","old","45","3","practice_forget","right","","","",""
"html-keyboard-response","128","315610","0.0-3.0-3.0-3.12","1jdohe4tbpuhyph","practice_cue","5718a9c4dd9ef10013df01f0","5f60e3c0a3b16e07647b2ff9","5f61dc0462ed4e04b2663bae","false","null","<div style=""align-items: center; display: flex; color: darkorange; font-size: 90px""><b>ø</b></div>","null","","","","forget_cue","","","","","","","","","","","","","","","",""
"html-keyboard-response","129","316312","0.0-3.0-3.0-0.13","1jdohe4tbpuhyph","practice_cue","5718a9c4dd9ef10013df01f0","5f60e3c0a3b16e07647b2ff9","5f61dc0462ed4e04b2663bae","false","null","<span style=""color: black; font-size: 48px"">N + M</span>","null","","","","resp_prompt","","","","","","","","","","","","","","","",""
"categorize-image","130","317383","0.0-3.0-3.0-1.13","1jdohe4tbpuhyph","practice_cue","5718a9c4dd9ef10013df01f0","5f60e3c0a3b16e07647b2ff9","5f61dc0462ed4e04b2663bae","true","1065.7199999986915","./Stimuli/ImagesPractice/LN2.jpg","83","","","","test","true","N + M","83","","LN","LN2.jpg","forget","old","46","3","practice_forget","left","","","",""
"html-keyboard-response","131","319384","0.0-3.0-3.0-3.13","1jdohe4tbpuhyph","practice_cue","5718a9c4dd9ef10013df01f0","5f60e3c0a3b16e07647b2ff9","5f61dc0462ed4e04b2663bae","false","null","<div style=""align-items: center; display: flex; color: darkorange; font-size: 90px""><b>ø</b></div>","null","","","","forget_cue","","","","","","","","","","","","","","","",""
"html-keyboard-response","132","320085","0.0-3.0-3.0-0.14","1jdohe4tbpuhyph","practice_cue","5718a9c4dd9ef10013df01f0","5f60e3c0a3b16e07647b2ff9","5f61dc0462ed4e04b2663bae","false","null","<span style=""color: black; font-size: 48px"">N + M</span>","null","","","","resp_prompt","","","","","","","","","","","","","","","",""
"categorize-image","133","320687","0.0-3.0-3.0-1.14","1jdohe4tbpuhyph","practice_cue","5718a9c4dd9ef10013df01f0","5f60e3c0a3b16e07647b2ff9","5f61dc0462ed4e04b2663bae","true","595.8600000012666","./Stimuli/ImagesPractice/SN76.jpg","83","","","","test","true","N + M","83","","SN","SN76.jpg","remember","old","47","3","practice_forget","left","","","",""
"html-keyboard-response","134","322689","0.0-3.0-3.0-3.14","1jdohe4tbpuhyph","practice_cue","5718a9c4dd9ef10013df01f0","5f60e3c0a3b16e07647b2ff9","5f61dc0462ed4e04b2663bae","false","null","<div style=""align-items: center; display: flex; color: dodgerblue; font-size: 90px""><b>o</b></div>","null","","","","forget_cue","","","","","","","","","","","","","","","",""
"html-keyboard-response","135","323392","0.0-3.0-3.0-0.15","1jdohe4tbpuhyph","practice_cue","5718a9c4dd9ef10013df01f0","5f60e3c0a3b16e07647b2ff9","5f61dc0462ed4e04b2663bae","false","null","<span style=""color: black; font-size: 48px"">N + M</span>","null","","","","resp_prompt","","","","","","","","","","","","","","","",""
"categorize-image","136","323981","0.0-3.0-3.0-1.15","1jdohe4tbpuhyph","practice_cue","5718a9c4dd9ef10013df01f0","5f60e3c0a3b16e07647b2ff9","5f61dc0462ed4e04b2663bae","true","583.3800000000629","./Stimuli/ImagesPractice/SM97.jpg","76","","","","test","true","N + M","76","","SM","SM97.jpg","remember","old","48","3","practice_forget","right","","","",""
"html-keyboard-response","137","325983","0.0-3.0-3.0-3.15","1jdohe4tbpuhyph","practice_cue","5718a9c4dd9ef10013df01f0","5f60e3c0a3b16e07647b2ff9","5f61dc0462ed4e04b2663bae","false","null","<div style=""align-items: center; display: flex; color: dodgerblue; font-size: 90px""><b>o</b></div>","null","","","","forget_cue","","","","","","","","","","","","","","","",""
"html-keyboard-response","138","329216","0.0-3.0-4.0","1jdohe4tbpuhyph","break","5718a9c4dd9ef10013df01f0","5f60e3c0a3b16e07647b2ff9","5f61dc0462ed4e04b2663bae","false","3230.675000000687","<p style='font-size: 32px;'>Break</><br><br><br><br><br><p style='font-size: 24px;'>In the last block, you committed 7 errors and did not respond in time on 0 trials.
</p><p style='font-size: 24px;'>Try to respond as fast and accurately as possible in the next block as well! </p><p style='font-size: 24px;'>Press SPACE to continue.</p>","32","","","","","","","","","","","","","","","","","","","",""
"html-keyboard-response","139","347159","0.0-3.0-5.0","1jdohe4tbpuhyph","instructions","5718a9c4dd9ef10013df01f0","5f60e3c0a3b16e07647b2ff9","5f61dc0462ed4e04b2663bae","false","17940.60499999975","<div align=left> Now, to practice, we kindly ask you to remember as many of the to-be-remembered pictures<br>of the previous learning phase as possible.<br><br>The pictures you were instructed to remember were the pictures followed by a <span style='color: dodgerblue; font-size: 28px'>O</span>.<br><br>In this memory test phase, you will also see some new pictures.<br>It is your task to remember whether you were presented with this specific picture in this study so far or not.<br>If you recognize an object (you have already seen it in this study), it is an OLD object. <br>If you do not recognize an object (you have NOT seen it in this study), it is a NEW object. <br><strong> Attention</strong>: As already mentioned, <span style='color: darkorange; font-size:28px'>Ø</span>-pictures will <strong>never</strong> appear in this memory test (neither as new objects). <br><br>Press SPACE to continue. </div>","32","","","","","","","","","","","","","","","","","","","",""
"html-keyboard-response","140","368420","0.0-3.0-6.0","1jdohe4tbpuhyph","instructions","5718a9c4dd9ef10013df01f0","5f60e3c0a3b16e07647b2ff9","5f61dc0462ed4e04b2663bae","false","21258.59499999939","<div align=left> M and N no longer will appear on the left/right of the fixation cross. <br>Instead there will be a note at the bottom of the left or right side  <br>indicating which key you should press for an old or new object:  <br> <br>Press the <strong>right</strong> key to classify an object as <strong>old</strong> and press the <strong>left</strong>, to classify an object as <strong>new</strong>.<br>Please classify the objects as new/old by again placing your index finger on the 'S' and 'L' keys <br>and press them accordingly.<br><br><strong>Old:</strong> This object has been presented before. <br><strong>New:</strong> This object has <strong>not</strong> been presented.<br><br>Now please put your right and left index fingers on the 'S' and 'L' keys of your keyboard. <br>Please respond as fast and as accurately as possible!<br><br>Press SPACE to continue. </div>","32","","","","","","","","","","","","","","","","","","","",""
"categorize-image","141","370270","0.0-3.0-7.0-0.0","1jdohe4tbpuhyph","practice_recog","5718a9c4dd9ef10013df01f0","5f60e3c0a3b16e07647b2ff9","5f61dc0462ed4e04b2663bae","true","1343.419999999227","./Stimuli/ImagesPractice/SN221.jpg","83","","","","test","true","","83","","SN","SN221.jpg","","new","49","4","practice_recog","left","","","",""
"categorize-image","142","371890","0.0-3.0-7.0-0.1","1jdohe4tbpuhyph","practice_recog","5718a9c4dd9ef10013df01f0","5f60e3c0a3b16e07647b2ff9","5f61dc0462ed4e04b2663bae","true","1113.654999999213","./Stimuli/ImagesPractice/SM62.jpg","76","","","","test","true","","76","","SM","SM62.jpg","","old","50","4","practice_recog","right","","","",""
"categorize-image","143","373147","0.0-3.0-7.0-0.2","1jdohe4tbpuhyph","practice_recog","5718a9c4dd9ef10013df01f0","5f60e3c0a3b16e07647b2ff9","5f61dc0462ed4e04b2663bae","true","752.8000000002212","./Stimuli/ImagesPractice/SN222.jpg","83","","","","test","true","","83","","SN","SN222.jpg","","new","51","4","practice_recog","left","","","",""
"categorize-image","144","374331","0.0-3.0-7.0-0.3","1jdohe4tbpuhyph","practice_recog","5718a9c4dd9ef10013df01f0","5f60e3c0a3b16e07647b2ff9","5f61dc0462ed4e04b2663bae","true","679.3899999993737","./Stimuli/ImagesPractice/LN4.jpg","83","","","","test","true","","83","","LN","LN4.jpg","","new","52","4","practice_recog","left","","","",""
"categorize-image","145","375598","0.0-3.0-7.0-0.4","1jdohe4tbpuhyph","practice_recog","5718a9c4dd9ef10013df01f0","5f60e3c0a3b16e07647b2ff9","5f61dc0462ed4e04b2663bae","true","763.6600000004983","./Stimuli/ImagesPractice/LM147.jpg","76","","","","test","true","","76","","LM","LM147.jpg","","old","53","4","practice_recog","right","","","",""
"categorize-image","146","376655","0.0-3.0-7.0-0.5","1jdohe4tbpuhyph","practice_recog","5718a9c4dd9ef10013df01f0","5f60e3c0a3b16e07647b2ff9","5f61dc0462ed4e04b2663bae","true","553.2650000004796","./Stimuli/ImagesPractice/SM98.jpg","76","","","","test","true","","76","","SM","SM98.jpg","","old","54","4","practice_recog","right","","","",""
"categorize-image","147","377741","0.0-3.0-7.0-0.6","1jdohe4tbpuhyph","practice_recog","5718a9c4dd9ef10013df01f0","5f60e3c0a3b16e07647b2ff9","5f61dc0462ed4e04b2663bae","true","582.6450000004261","./Stimuli/ImagesPractice/SN205.jpg","83","","","","test","true","","83","","SN","SN205.jpg","","new","55","4","practice_recog","left","","","",""
"categorize-image","148","378754","0.0-3.0-7.0-0.7","1jdohe4tbpuhyph","practice_recog","5718a9c4dd9ef10013df01f0","5f60e3c0a3b16e07647b2ff9","5f61dc0462ed4e04b2663bae","true","508.2899999997462","./Stimuli/ImagesPractice/LN109.jpg","76","","","","test","true","","76","","LN","LN109.jpg","","old","56","4","practice_recog","right","","","",""
"categorize-image","149","379839","0.0-3.0-7.0-0.8","1jdohe4tbpuhyph","practice_recog","5718a9c4dd9ef10013df01f0","5f60e3c0a3b16e07647b2ff9","5f61dc0462ed4e04b2663bae","true","581.5599999987171","./Stimuli/ImagesPractice/LM143.jpg","76","","","","test","true","","76","","LM","LM143.jpg","","old","57","4","practice_recog","right","","","",""
"categorize-image","150","381330","0.0-3.0-7.0-0.9","1jdohe4tbpuhyph","practice_recog","5718a9c4dd9ef10013df01f0","5f60e3c0a3b16e07647b2ff9","5f61dc0462ed4e04b2663bae","true","986.8850000002421","./Stimuli/ImagesPractice/LM224.jpg","83","","","","test","true","","83","","LM","LM224.jpg","","new","58","4","practice_recog","left","","","",""
"categorize-image","151","382662","0.0-3.0-7.0-0.10","1jdohe4tbpuhyph","practice_recog","5718a9c4dd9ef10013df01f0","5f60e3c0a3b16e07647b2ff9","5f61dc0462ed4e04b2663bae","true","828.574999999546","./Stimuli/ImagesPractice/SM37.jpg","83","","","","test","true","","83","","SM","SM37.jpg","","new","59","4","practice_recog","left","","","",""
"categorize-image","152","383660","0.0-3.0-7.0-0.11","1jdohe4tbpuhyph","practice_recog","5718a9c4dd9ef10013df01f0","5f60e3c0a3b16e07647b2ff9","5f61dc0462ed4e04b2663bae","true","494.50500000058673","./Stimuli/ImagesPractice/SN75.jpg","83","","","","test","false","","76","","SN","SN75.jpg","","old","60","4","practice_recog","left","","","",""
"categorize-image","153","384991","0.0-3.0-7.0-0.12","1jdohe4tbpuhyph","practice_recog","5718a9c4dd9ef10013df01f0","5f60e3c0a3b16e07647b2ff9","5f61dc0462ed4e04b2663bae","true","825.3349999994971","./Stimuli/ImagesPractice/LM239.jpg","83","","","","test","true","","83","","LM","LM239.jpg","","new","61","4","practice_recog","left","","","",""
"categorize-image","154","386050","0.0-3.0-7.0-0.13","1jdohe4tbpuhyph","practice_recog","5718a9c4dd9ef10013df01f0","5f60e3c0a3b16e07647b2ff9","5f61dc0462ed4e04b2663bae","true","555.6550000001444","./Stimuli/ImagesPractice/SM97.jpg","76","","","","test","true","","76","","SM","SM97.jpg","","old","62","4","practice_recog","right","","","",""
"categorize-image","155","387217","0.0-3.0-7.0-0.14","1jdohe4tbpuhyph","practice_recog","5718a9c4dd9ef10013df01f0","5f60e3c0a3b16e07647b2ff9","5f61dc0462ed4e04b2663bae","true","663.1500000003143","./Stimuli/ImagesPractice/SN76.jpg","76","","","","test","true","","76","","SN","SN76.jpg","","old","63","4","practice_recog","right","","","",""
"categorize-image","156","388265","0.0-3.0-7.0-0.15","1jdohe4tbpuhyph","practice_recog","5718a9c4dd9ef10013df01f0","5f60e3c0a3b16e07647b2ff9","5f61dc0462ed4e04b2663bae","true","545.494999998482","./Stimuli/ImagesPractice/LN15.jpg","83","","","","test","true","","83","","LN","LN15.jpg","","new","64","4","practice_recog","left","","","",""
"html-keyboard-response","157","392759","0.0-3.0-8.0","1jdohe4tbpuhyph","instructions","5718a9c4dd9ef10013df01f0","5f60e3c0a3b16e07647b2ff9","5f61dc0462ed4e04b2663bae","false","4492.1300000005285","<div align=left> Great!<br><br>Are you ready to continue?<br>If you want to reread the instructions and redo the practice trials, please <br>press „Z“.<br><br>You can proceed when you are ready.<br><br>After the presentation of each object, you will receive an instruction whether to <br>remember or to forget the object.<br>We will test your memory of the following pictures only at the very end of <br>the experiment after all learning blocks are completed. <br><br>Press SPACE to CONTINUE when you are ready. </div>","32","","","","","","","","","","","","","","","","","","","",""
"html-keyboard-response","158","394035","0.0-4.0-0.0","1jdohe4tbpuhyph","instructions","5718a9c4dd9ef10013df01f0","5f60e3c0a3b16e07647b2ff9","5f61dc0462ed4e04b2663bae","false","1273.419999999518","<div align=left> The actual experiment is about to start.<br>The practice trials are over!<br><br>Please always respond both fast and accurately!<br><br>Remember: <br> <br><li> Please place your index fingers on the <strong>'S'</strong> and <strong>'L'</strong> keys <br>to respond as fast and accurately as possible.</li><li> Every picture can be classified as either mechanical or non-mechanical.</li><li> If you do not respond in time or commit an error, you will receive a corresponding feedback.<br> Please try to respond as <strong> fast </strong> and as <strong> accurately as possible </strong>.</li><li> Remember the <span style='color: dodgerblue; font-size: 28px'>O</span> pictures. <br></li><li> Please minimize distractions and stay focused. </li><br><br>Press SPACE to START.</div>","32","","","","","","","","","","","","","","","","","","","",""
"html-keyboard-response","159","394738","0.0-4.0-1.0-0.0","1jdohe4tbpuhyph","prime","5718a9c4dd9ef10013df01f0","5f60e3c0a3b16e07647b2ff9","5f61dc0462ed4e04b2663bae","false","null","<span style=""color: black; font-size: 48px"">M + N</span>","null","","","","resp_prompt","","","","","","","","","","","","","","","",""
"categorize-image","160","395428","0.0-4.0-1.0-1.0","1jdohe4tbpuhyph","prime","5718a9c4dd9ef10013df01f0","5f60e3c0a3b16e07647b2ff9","5f61dc0462ed4e04b2663bae","true","683.564999999362","./Stimuli/SelectedImages/SN/SN182.bmp","76","","","","test","true","M + N","76","switch","SN","SN182.bmp","forget","","65","4","prime1","right","","","",""
"html-keyboard-response","161","397431","0.0-4.0-1.0-3.0","1jdohe4tbpuhyph","prime","5718a9c4dd9ef10013df01f0","5f60e3c0a3b16e07647b2ff9","5f61dc0462ed4e04b2663bae","false","null","<div style=""align-items: center; display: flex; color: darkorange; font-size: 90px""><b>ø</b></div>","null","","","","forget_cue","","","","","","","","","","","","","","","",""
"html-keyboard-response","162","398133","0.0-4.0-1.0-0.1","1jdohe4tbpuhyph","prime","5718a9c4dd9ef10013df01f0","5f60e3c0a3b16e07647b2ff9","5f61dc0462ed4e04b2663bae","false","null","<span style=""color: black; font-size: 48px"">N + M</span>","null","","","","resp_prompt","","","","","","","","","","","","","","","",""
"categorize-image","163","399777","0.0-4.0-1.0-1.1","1jdohe4tbpuhyph","prime","5718a9c4dd9ef10013df01f0","5f60e3c0a3b16e07647b2ff9","5f61dc0462ed4e04b2663bae","true","1638.9099999996834","./Stimuli/SelectedImages/LM/LM209.bmp","83","","","","test","false","N + M","76","switch","LM","LM209.bmp","forget","","66","4","prime1","left","","","",""
"html-keyboard-response","164","400279","0.0-4.0-1.0-2.1-0.1","1jdohe4tbpuhyph","prime","5718a9c4dd9ef10013df01f0","5f60e3c0a3b16e07647b2ff9","5f61dc0462ed4e04b2663bae","false","null","<span style=""color: red; font-size: 48px"">Error!</span>","null","","","","feedback","","","","","","","","","","","","","","","",""
"html-keyboard-response","165","402281","0.0-4.0-1.0-3.1","1jdohe4tbpuhyph","prime","5718a9c4dd9ef10013df01f0","5f60e3c0a3b16e07647b2ff9","5f61dc0462ed4e04b2663bae","false","null","<div style=""align-items: center; display: flex; color: darkorange; font-size: 90px""><b>ø</b></div>","null","","","","forget_cue","","","","","","","","","","","","","","","",""
"html-keyboard-response","166","402983","0.0-4.0-1.0-0.2","1jdohe4tbpuhyph","prime","5718a9c4dd9ef10013df01f0","5f60e3c0a3b16e07647b2ff9","5f61dc0462ed4e04b2663bae","false","null","<span style=""color: black; font-size: 48px"">N + M</span>","null","","","","resp_prompt","","","","","","","","","","","","","","","",""
"categorize-image","167","403807","0.0-4.0-1.0-1.2","1jdohe4tbpuhyph","prime","5718a9c4dd9ef10013df01f0","5f60e3c0a3b16e07647b2ff9","5f61dc0462ed4e04b2663bae","true","819.1750000005704","./Stimuli/SelectedImages/SN/SN111.bmp","83","","","","test","true","N + M","83","switch","SN","SN111.bmp","forget","","67","4","prime1","left","","","",""
"html-keyboard-response","168","405809","0.0-4.0-1.0-3.2","1jdohe4tbpuhyph","prime","5718a9c4dd9ef10013df01f0","5f60e3c0a3b16e07647b2ff9","5f61dc0462ed4e04b2663bae","false","null","<div style=""align-items: center; display: flex; color: darkorange; font-size: 90px""><b>ø</b></div>","null","","","","forget_cue","","","","","","","","","","","","","","","",""
"html-keyboard-response","169","406511","0.0-4.0-1.0-0.3","1jdohe4tbpuhyph","prime","5718a9c4dd9ef10013df01f0","5f60e3c0a3b16e07647b2ff9","5f61dc0462ed4e04b2663bae","false","null","<span style=""color: black; font-size: 48px"">N + M</span>","null","","","","resp_prompt","","","","","","","","","","","","","","","",""
"categorize-image","170","407098","0.0-4.0-1.0-1.3","1jdohe4tbpuhyph","prime","5718a9c4dd9ef10013df01f0","5f60e3c0a3b16e07647b2ff9","5f61dc0462ed4e04b2663bae","true","582.8799999999464","./Stimuli/SelectedImages/SN/SN128.bmp","83","","","","test","true","N + M","83","repetition","SN","SN128.bmp","forget","","68","4","prime1","left","","","",""
"html-keyboard-response","171","409101","0.0-4.0-1.0-3.3","1jdohe4tbpuhyph","prime","5718a9c4dd9ef10013df01f0","5f60e3c0a3b16e07647b2ff9","5f61dc0462ed4e04b2663bae","false","null","<div style=""align-items: center; display: flex; color: darkorange; font-size: 90px""><b>ø</b></div>","null","","","","forget_cue","","","","","","","","","","","","","","","",""
"html-keyboard-response","172","409803","0.0-4.0-1.0-0.4","1jdohe4tbpuhyph","prime","5718a9c4dd9ef10013df01f0","5f60e3c0a3b16e07647b2ff9","5f61dc0462ed4e04b2663bae","false","null","<span style=""color: black; font-size: 48px"">M + N</span>","null","","","","resp_prompt","","","","","","","","","","","","","","","",""
"categorize-image","173","410494","0.0-4.0-1.0-1.4","1jdohe4tbpuhyph","prime","5718a9c4dd9ef10013df01f0","5f60e3c0a3b16e07647b2ff9","5f61dc0462ed4e04b2663bae","true","685.5649999997113","./Stimuli/SelectedImages/SN/SN93.bmp","76","","","","test","true","M + N","76","repetition","SN","SN93.bmp","remember","","69","4","prime1","right","","","",""
"html-keyboard-response","174","412496","0.0-4.0-1.0-3.4","1jdohe4tbpuhyph","prime","5718a9c4dd9ef10013df01f0","5f60e3c0a3b16e07647b2ff9","5f61dc0462ed4e04b2663bae","false","null","<div style=""align-items: center; display: flex; color: dodgerblue; font-size: 90px""><b>o</b></div>","null","","","","forget_cue","","","","","","","","","","","","","","","",""
"html-keyboard-response","175","413198","0.0-4.0-1.0-0.5","1jdohe4tbpuhyph","prime","5718a9c4dd9ef10013df01f0","5f60e3c0a3b16e07647b2ff9","5f61dc0462ed4e04b2663bae","false","null","<span style=""color: black; font-size: 48px"">M + N</span>","null","","","","resp_prompt","","","","","","","","","","","","","","","",""
"categorize-image","176","414456","0.0-4.0-1.0-1.5","1jdohe4tbpuhyph","prime","5718a9c4dd9ef10013df01f0","5f60e3c0a3b16e07647b2ff9","5f61dc0462ed4e04b2663bae","true","1253.2100000007777","./Stimuli/SelectedImages/LM/LM235.bmp","76","","","","test","false","M + N","83","switch","LM","LM235.bmp","remember","","70","4","prime1","right","","","",""
"html-keyboard-response","177","414957","0.0-4.0-1.0-2.5-0.5","1jdohe4tbpuhyph","prime","5718a9c4dd9ef10013df01f0","5f60e3c0a3b16e07647b2ff9","5f61dc0462ed4e04b2663bae","false","null","<span style=""color: red; font-size: 48px"">Error!</span>","null","","","","feedback","","","","","","","","","","","","","","","",""
"html-keyboard-response","178","416959","0.0-4.0-1.0-3.5","1jdohe4tbpuhyph","prime","5718a9c4dd9ef10013df01f0","5f60e3c0a3b16e07647b2ff9","5f61dc0462ed4e04b2663bae","false","null","<div style=""align-items: center; display: flex; color: dodgerblue; font-size: 90px""><b>o</b></div>","null","","","","forget_cue","","","","","","","","","","","","","","","",""
"html-keyboard-response","179","417661","0.0-4.0-1.0-0.6","1jdohe4tbpuhyph","prime","5718a9c4dd9ef10013df01f0","5f60e3c0a3b16e07647b2ff9","5f61dc0462ed4e04b2663bae","false","null","<span style=""color: black; font-size: 48px"">N + M</span>","null","","","","resp_prompt","","","","","","","","","","","","","","","",""
"categorize-image","180","418576","0.0-4.0-1.0-1.6","1jdohe4tbpuhyph","prime","5718a9c4dd9ef10013df01f0","5f60e3c0a3b16e07647b2ff9","5f61dc0462ed4e04b2663bae","true","910.0249999992666","./Stimuli/SelectedImages/LN/LN131.bmp","83","","","","test","true","N + M","83","repetition","LN","LN131.bmp","remember","","71","4","prime1","left","","","",""
"html-keyboard-response","181","420578","0.0-4.0-1.0-3.6","1jdohe4tbpuhyph","prime","5718a9c4dd9ef10013df01f0","5f60e3c0a3b16e07647b2ff9","5f61dc0462ed4e04b2663bae","false","null","<div style=""align-items: center; display: flex; color: dodgerblue; font-size: 90px""><b>o</b></div>","null","","","","forget_cue","","","","","","","","","","","","","","","",""
"html-keyboard-response","182","421280","0.0-4.0-1.0-0.7","1jdohe4tbpuhyph","prime","5718a9c4dd9ef10013df01f0","5f60e3c0a3b16e07647b2ff9","5f61dc0462ed4e04b2663bae","false","null","<span style=""color: black; font-size: 48px"">M + N</span>","null","","","","resp_prompt","","","","","","","","","","","","","","","",""
"categorize-image","183","421866","0.0-4.0-1.0-1.7","1jdohe4tbpuhyph","prime","5718a9c4dd9ef10013df01f0","5f60e3c0a3b16e07647b2ff9","5f61dc0462ed4e04b2663bae","true","579.0099999994854","./Stimuli/SelectedImages/LM/LM51.bmp","83","","","","test","true","M + N","83","repetition","LM","LM51.bmp","remember","","72","4","prime1","left","","","",""
"html-keyboard-response","184","423869","0.0-4.0-1.0-3.7","1jdohe4tbpuhyph","prime","5718a9c4dd9ef10013df01f0","5f60e3c0a3b16e07647b2ff9","5f61dc0462ed4e04b2663bae","false","null","<div style=""align-items: center; display: flex; color: dodgerblue; font-size: 90px""><b>o</b></div>","null","","","","forget_cue","","","","","","","","","","","","","","","",""
"html-keyboard-response","185","424571","0.0-4.0-1.0-0.8","1jdohe4tbpuhyph","prime","5718a9c4dd9ef10013df01f0","5f60e3c0a3b16e07647b2ff9","5f61dc0462ed4e04b2663bae","false","null","<span style=""color: black; font-size: 48px"">M + N</span>","null","","","","resp_prompt","","","","","","","","","","","","","","","",""
"categorize-image","186","426464","0.0-4.0-1.0-1.8","1jdohe4tbpuhyph","prime","5718a9c4dd9ef10013df01f0","5f60e3c0a3b16e07647b2ff9","5f61dc0462ed4e04b2663bae","true","1887.5049999987823","./Stimuli/SelectedImages/SM/SM184.bmp","83","","","","test","true","M + N","83","switch","SM","SM184.bmp","remember","","73","4","prime1","left","","","",""
"html-keyboard-response","187","428465","0.0-4.0-1.0-3.8","1jdohe4tbpuhyph","prime","5718a9c4dd9ef10013df01f0","5f60e3c0a3b16e07647b2ff9","5f61dc0462ed4e04b2663bae","false","null","<div style=""align-items: center; display: flex; color: dodgerblue; font-size: 90px""><b>o</b></div>","null","","","","forget_cue","","","","","","","","","","","","","","","",""
"html-keyboard-response","188","429167","0.0-4.0-1.0-0.9","1jdohe4tbpuhyph","prime","5718a9c4dd9ef10013df01f0","5f60e3c0a3b16e07647b2ff9","5f61dc0462ed4e04b2663bae","false","null","<span style=""color: black; font-size: 48px"">M + N</span>","null","","","","resp_prompt","","","","","","","","","","","","","","","",""
"categorize-image","189","429762","0.0-4.0-1.0-1.9","1jdohe4tbpuhyph","prime","5718a9c4dd9ef10013df01f0","5f60e3c0a3b16e07647b2ff9","5f61dc0462ed4e04b2663bae","true","588.3000000012689","./Stimuli/SelectedImages/LM/LM167.bmp","83","","","","test","true","M + N","83","repetition","LM","LM167.bmp","remember","","74","4","prime1","left","","","",""
"html-keyboard-response","190","431765","0.0-4.0-1.0-3.9","1jdohe4tbpuhyph","prime","5718a9c4dd9ef10013df01f0","5f60e3c0a3b16e07647b2ff9","5f61dc0462ed4e04b2663bae","false","null","<div style=""align-items: center; display: flex; color: dodgerblue; font-size: 90px""><b>o</b></div>","null","","","","forget_cue","","","","","","","","","","","","","","","",""
"html-keyboard-response","191","432467","0.0-4.0-1.0-0.10","1jdohe4tbpuhyph","prime","5718a9c4dd9ef10013df01f0","5f60e3c0a3b16e07647b2ff9","5f61dc0462ed4e04b2663bae","false","null","<span style=""color: black; font-size: 48px"">M + N</span>","null","","","","resp_prompt","","","","","","","","","","","","","","","",""
"categorize-image","192","433215","0.0-4.0-1.0-1.10","1jdohe4tbpuhyph","prime","5718a9c4dd9ef10013df01f0","5f60e3c0a3b16e07647b2ff9","5f61dc0462ed4e04b2663bae","true","741.4399999997695","./Stimuli/SelectedImages/LN/LN101.bmp","76","","","","test","true","M + N","76","switch","LN","LN101.bmp","forget","","75","4","prime1","right","","","",""
"html-keyboard-response","193","435218","0.0-4.0-1.0-3.10","1jdohe4tbpuhyph","prime","5718a9c4dd9ef10013df01f0","5f60e3c0a3b16e07647b2ff9","5f61dc0462ed4e04b2663bae","false","null","<div style=""align-items: center; display: flex; color: darkorange; font-size: 90px""><b>ø</b></div>","null","","","","forget_cue","","","","","","","","","","","","","","","",""
"html-keyboard-response","194","435919","0.0-4.0-1.0-0.11","1jdohe4tbpuhyph","prime","5718a9c4dd9ef10013df01f0","5f60e3c0a3b16e07647b2ff9","5f61dc0462ed4e04b2663bae","false","null","<span style=""color: black; font-size: 48px"">N + M</span>","null","","","","resp_prompt","","","","","","","","","","","","","","","",""
"categorize-image","195","437142","0.0-4.0-1.0-1.11","1jdohe4tbpuhyph","prime","5718a9c4dd9ef10013df01f0","5f60e3c0a3b16e07647b2ff9","5f61dc0462ed4e04b2663bae","true","1217.7449999999371","./Stimuli/SelectedImages/SN/SN49.bmp","83","","","","test","true","N + M","83","switch","SN","SN49.bmp","remember","","76","4","prime1","left","","","",""
"html-keyboard-response","196","439144","0.0-4.0-1.0-3.11","1jdohe4tbpuhyph","prime","5718a9c4dd9ef10013df01f0","5f60e3c0a3b16e07647b2ff9","5f61dc0462ed4e04b2663bae","false","null","<div style=""align-items: center; display: flex; color: dodgerblue; font-size: 90px""><b>o</b></div>","null","","","","forget_cue","","","","","","","","","","","","","","","",""
"html-keyboard-response","197","439847","0.0-4.0-1.0-0.12","1jdohe4tbpuhyph","prime","5718a9c4dd9ef10013df01f0","5f60e3c0a3b16e07647b2ff9","5f61dc0462ed4e04b2663bae","false","null","<span style=""color: black; font-size: 48px"">N + M</span>","null","","","","resp_prompt","","","","","","","","","","","","","","","",""
"categorize-image","198","440884","0.0-4.0-1.0-1.12","1jdohe4tbpuhyph","prime","5718a9c4dd9ef10013df01f0","5f60e3c0a3b16e07647b2ff9","5f61dc0462ed4e04b2663bae","true","1030.8550000008545","./Stimuli/SelectedImages/LN/LN177.bmp","76","","","","test","false","N + M","83","switch","LN","LN177.bmp","remember","","77","4","prime1","right","","","",""
"html-keyboard-response","199","441386","0.0-4.0-1.0-2.12-0.12","1jdohe4tbpuhyph","prime","5718a9c4dd9ef10013df01f0","5f60e3c0a3b16e07647b2ff9","5f61dc0462ed4e04b2663bae","false","null","<span style=""color: red; font-size: 48px"">Error!</span>","null","","","","feedback","","","","","","","","","","","","","","","",""
"html-keyboard-response","200","443389","0.0-4.0-1.0-3.12","1jdohe4tbpuhyph","prime","5718a9c4dd9ef10013df01f0","5f60e3c0a3b16e07647b2ff9","5f61dc0462ed4e04b2663bae","false","null","<div style=""align-items: center; display: flex; color: dodgerblue; font-size: 90px""><b>o</b></div>","null","","","","forget_cue","","","","","","","","","","","","","","","",""
"html-keyboard-response","201","444091","0.0-4.0-1.0-0.13","1jdohe4tbpuhyph","prime","5718a9c4dd9ef10013df01f0","5f60e3c0a3b16e07647b2ff9","5f61dc0462ed4e04b2663bae","false","null","<span style=""color: black; font-size: 48px"">N + M</span>","null","","","","resp_prompt","","","","","","","","","","","","","","","",""
"categorize-image","202","444908","0.0-4.0-1.0-1.13","1jdohe4tbpuhyph","prime","5718a9c4dd9ef10013df01f0","5f60e3c0a3b16e07647b2ff9","5f61dc0462ed4e04b2663bae","true","810.3649999993504","./Stimuli/SelectedImages/LM/LM75.bmp","76","","","","test","true","N + M","76","repetition","LM","LM75.bmp","forget","","78","4","prime1","right","","","",""
"html-keyboard-response","203","446909","0.0-4.0-1.0-3.13","1jdohe4tbpuhyph","prime","5718a9c4dd9ef10013df01f0","5f60e3c0a3b16e07647b2ff9","5f61dc0462ed4e04b2663bae","false","null","<div style=""align-items: center; display: flex; color: darkorange; font-size: 90px""><b>ø</b></div>","null","","","","forget_cue","","","","","","","","","","","","","","","",""
"html-keyboard-response","204","447612","0.0-4.0-1.0-0.14","1jdohe4tbpuhyph","prime","5718a9c4dd9ef10013df01f0","5f60e3c0a3b16e07647b2ff9","5f61dc0462ed4e04b2663bae","false","null","<span style=""color: black; font-size: 48px"">N + M</span>","null","","","","resp_prompt","","","","","","","","","","","","","","","",""
"categorize-image","205","448604","0.0-4.0-1.0-1.14","1jdohe4tbpuhyph","prime","5718a9c4dd9ef10013df01f0","5f60e3c0a3b16e07647b2ff9","5f61dc0462ed4e04b2663bae","true","985.6450000007171","./Stimuli/SelectedImages/LM/LM103.bmp","83","","","","test","false","N + M","76","switch","LM","LM103.bmp","remember","","79","4","prime1","left","","","",""
"html-keyboard-response","206","449106","0.0-4.0-1.0-2.14-0.14","1jdohe4tbpuhyph","prime","5718a9c4dd9ef10013df01f0","5f60e3c0a3b16e07647b2ff9","5f61dc0462ed4e04b2663bae","false","null","<span style=""color: red; font-size: 48px"">Error!</span>","null","","","","feedback","","","","","","","","","","","","","","","",""
"html-keyboard-response","207","451109","0.0-4.0-1.0-3.14","1jdohe4tbpuhyph","prime","5718a9c4dd9ef10013df01f0","5f60e3c0a3b16e07647b2ff9","5f61dc0462ed4e04b2663bae","false","null","<div style=""align-items: center; display: flex; color: dodgerblue; font-size: 90px""><b>o</b></div>","null","","","","forget_cue","","","","","","","","","","","","","","","",""
"html-keyboard-response","208","451810","0.0-4.0-1.0-0.15","1jdohe4tbpuhyph","prime","5718a9c4dd9ef10013df01f0","5f60e3c0a3b16e07647b2ff9","5f61dc0462ed4e04b2663bae","false","null","<span style=""color: black; font-size: 48px"">M + N</span>","null","","","","resp_prompt","","","","","","","","","","","","","","","",""
"categorize-image","209","452520","0.0-4.0-1.0-1.15","1jdohe4tbpuhyph","prime","5718a9c4dd9ef10013df01f0","5f60e3c0a3b16e07647b2ff9","5f61dc0462ed4e04b2663bae","true","702.9499999989639","./Stimuli/SelectedImages/SN/SN140.bmp","83","","","","test","false","M + N","76","switch","SN","SN140.bmp","remember","","80","4","prime1","left","","","",""
"html-keyboard-response","210","453021","0.0-4.0-1.0-2.15-0.15","1jdohe4tbpuhyph","prime","5718a9c4dd9ef10013df01f0","5f60e3c0a3b16e07647b2ff9","5f61dc0462ed4e04b2663bae","false","null","<span style=""color: red; font-size: 48px"">Error!</span>","null","","","","feedback","","","","","","","","","","","","","","","",""
"html-keyboard-response","211","455024","0.0-4.0-1.0-3.15","1jdohe4tbpuhyph","prime","5718a9c4dd9ef10013df01f0","5f60e3c0a3b16e07647b2ff9","5f61dc0462ed4e04b2663bae","false","null","<div style=""align-items: center; display: flex; color: dodgerblue; font-size: 90px""><b>o</b></div>","null","","","","forget_cue","","","","","","","","","","","","","","","",""
"html-keyboard-response","212","455726","0.0-4.0-1.0-0.16","1jdohe4tbpuhyph","prime","5718a9c4dd9ef10013df01f0","5f60e3c0a3b16e07647b2ff9","5f61dc0462ed4e04b2663bae","false","null","<span style=""color: black; font-size: 48px"">M + N</span>","null","","","","resp_prompt","","","","","","","","","","","","","","","",""
"categorize-image","213","456522","0.0-4.0-1.0-1.16","1jdohe4tbpuhyph","prime","5718a9c4dd9ef10013df01f0","5f60e3c0a3b16e07647b2ff9","5f61dc0462ed4e04b2663bae","true","789.3899999998976","./Stimuli/SelectedImages/SM/SM148.bmp","83","","","","test","true","M + N","83","repetition","SM","SM148.bmp","remember","","81","4","prime1","left","","","",""
"html-keyboard-response","214","458524","0.0-4.0-1.0-3.16","1jdohe4tbpuhyph","prime","5718a9c4dd9ef10013df01f0","5f60e3c0a3b16e07647b2ff9","5f61dc0462ed4e04b2663bae","false","null","<div style=""align-items: center; display: flex; color: dodgerblue; font-size: 90px""><b>o</b></div>","null","","","","forget_cue","","","","","","","","","","","","","","","",""
"html-keyboard-response","215","459226","0.0-4.0-1.0-0.17","1jdohe4tbpuhyph","prime","5718a9c4dd9ef10013df01f0","5f60e3c0a3b16e07647b2ff9","5f61dc0462ed4e04b2663bae","false","null","<span style=""color: black; font-size: 48px"">N + M</span>","null","","","","resp_prompt","","","","","","","","","","","","","","","",""
"categorize-image","216","460435","0.0-4.0-1.0-1.17","1jdohe4tbpuhyph","prime","5718a9c4dd9ef10013df01f0","5f60e3c0a3b16e07647b2ff9","5f61dc0462ed4e04b2663bae","true","1204.5749999997206","./Stimuli/SelectedImages/SM/SM24.bmp","76","","","","test","true","N + M","76","switch","SM","SM24.bmp","forget","","82","4","prime1","right","","","",""
"html-keyboard-response","217","462437","0.0-4.0-1.0-3.17","1jdohe4tbpuhyph","prime","5718a9c4dd9ef10013df01f0","5f60e3c0a3b16e07647b2ff9","5f61dc0462ed4e04b2663bae","false","null","<div style=""align-items: center; display: flex; color: darkorange; font-size: 90px""><b>ø</b></div>","null","","","","forget_cue","","","","","","","","","","","","","","","",""
"html-keyboard-response","218","463140","0.0-4.0-1.0-0.18","1jdohe4tbpuhyph","prime","5718a9c4dd9ef10013df01f0","5f60e3c0a3b16e07647b2ff9","5f61dc0462ed4e04b2663bae","false","null","<span style=""color: black; font-size: 48px"">N + M</span>","null","","","","resp_prompt","","","","","","","","","","","","","","","",""
"categorize-image","219","463884","0.0-4.0-1.0-1.18","1jdohe4tbpuhyph","prime","5718a9c4dd9ef10013df01f0","5f60e3c0a3b16e07647b2ff9","5f61dc0462ed4e04b2663bae","true","738.4799999999814","./Stimuli/SelectedImages/SM/SM200.bmp","76","","","","test","true","N + M","76","repetition","SM","SM200.bmp","forget","","83","4","prime1","right","","","",""
"html-keyboard-response","220","465886","0.0-4.0-1.0-3.18","1jdohe4tbpuhyph","prime","5718a9c4dd9ef10013df01f0","5f60e3c0a3b16e07647b2ff9","5f61dc0462ed4e04b2663bae","false","null","<div style=""align-items: center; display: flex; color: darkorange; font-size: 90px""><b>ø</b></div>","null","","","","forget_cue","","","","","","","","","","","","","","","",""
"html-keyboard-response","221","466588","0.0-4.0-1.0-0.19","1jdohe4tbpuhyph","prime","5718a9c4dd9ef10013df01f0","5f60e3c0a3b16e07647b2ff9","5f61dc0462ed4e04b2663bae","false","null","<span style=""color: black; font-size: 48px"">N + M</span>","null","","","","resp_prompt","","","","","","","","","","","","","","","",""
"categorize-image","222","467289","0.0-4.0-1.0-1.19","1jdohe4tbpuhyph","prime","5718a9c4dd9ef10013df01f0","5f60e3c0a3b16e07647b2ff9","5f61dc0462ed4e04b2663bae","true","694.8300000003655","./Stimuli/SelectedImages/SM/SM207.bmp","83","","","","test","false","N + M","76","repetition","SM","SM207.bmp","remember","","84","4","prime1","left","","","",""
"html-keyboard-response","223","467791","0.0-4.0-1.0-2.19-0.19","1jdohe4tbpuhyph","prime","5718a9c4dd9ef10013df01f0","5f60e3c0a3b16e07647b2ff9","5f61dc0462ed4e04b2663bae","false","null","<span style=""color: red; font-size: 48px"">Error!</span>","null","","","","feedback","","","","","","","","","","","","","","","",""
"html-keyboard-response","224","469793","0.0-4.0-1.0-3.19","1jdohe4tbpuhyph","prime","5718a9c4dd9ef10013df01f0","5f60e3c0a3b16e07647b2ff9","5f61dc0462ed4e04b2663bae","false","null","<div style=""align-items: center; display: flex; color: dodgerblue; font-size: 90px""><b>o</b></div>","null","","","","forget_cue","","","","","","","","","","","","","","","",""
"html-keyboard-response","225","470495","0.0-4.0-1.0-0.20","1jdohe4tbpuhyph","prime","5718a9c4dd9ef10013df01f0","5f60e3c0a3b16e07647b2ff9","5f61dc0462ed4e04b2663bae","false","null","<span style=""color: black; font-size: 48px"">N + M</span>","null","","","","resp_prompt","","","","","","","","","","","","","","","",""
"categorize-image","226","471421","0.0-4.0-1.0-1.20","1jdohe4tbpuhyph","prime","5718a9c4dd9ef10013df01f0","5f60e3c0a3b16e07647b2ff9","5f61dc0462ed4e04b2663bae","true","919.2299999995157","./Stimuli/SelectedImages/SN/SN155.bmp","83","","","","test","true","N + M","83","repetition","SN","SN155.bmp","forget","","85","4","prime1","left","","","",""
"html-keyboard-response","227","473423","0.0-4.0-1.0-3.20","1jdohe4tbpuhyph","prime","5718a9c4dd9ef10013df01f0","5f60e3c0a3b16e07647b2ff9","5f61dc0462ed4e04b2663bae","false","null","<div style=""align-items: center; display: flex; color: darkorange; font-size: 90px""><b>ø</b></div>","null","","","","forget_cue","","","","","","","","","","","","","","","",""
"html-keyboard-response","228","474125","0.0-4.0-1.0-0.21","1jdohe4tbpuhyph","prime","5718a9c4dd9ef10013df01f0","5f60e3c0a3b16e07647b2ff9","5f61dc0462ed4e04b2663bae","false","null","<span style=""color: black; font-size: 48px"">N + M</span>","null","","","","resp_prompt","","","","","","","","","","","","","","","",""
"categorize-image","229","474776","0.0-4.0-1.0-1.21","1jdohe4tbpuhyph","prime","5718a9c4dd9ef10013df01f0","5f60e3c0a3b16e07647b2ff9","5f61dc0462ed4e04b2663bae","true","645.635000000766","./Stimuli/SelectedImages/SM/SM78.bmp","76","","","","test","true","N + M","76","switch","SM","SM78.bmp","forget","","86","4","prime1","right","","","",""
"html-keyboard-response","230","476778","0.0-4.0-1.0-3.21","1jdohe4tbpuhyph","prime","5718a9c4dd9ef10013df01f0","5f60e3c0a3b16e07647b2ff9","5f61dc0462ed4e04b2663bae","false","null","<div style=""align-items: center; display: flex; color: darkorange; font-size: 90px""><b>ø</b></div>","null","","","","forget_cue","","","","","","","","","","","","","","","",""
"html-keyboard-response","231","477481","0.0-4.0-1.0-0.22","1jdohe4tbpuhyph","prime","5718a9c4dd9ef10013df01f0","5f60e3c0a3b16e07647b2ff9","5f61dc0462ed4e04b2663bae","false","null","<span style=""color: black; font-size: 48px"">N + M</span>","null","","","","resp_prompt","","","","","","","","","","","","","","","",""
"categorize-image","232","478456","0.0-4.0-1.0-1.22","1jdohe4tbpuhyph","prime","5718a9c4dd9ef10013df01f0","5f60e3c0a3b16e07647b2ff9","5f61dc0462ed4e04b2663bae","true","969.2350000005099","./Stimuli/SelectedImages/LN/LN59.bmp","83","","","","test","true","N + M","83","switch","LN","LN59.bmp","forget","","87","4","prime1","left","","","",""
"html-keyboard-response","233","480459","0.0-4.0-1.0-3.22","1jdohe4tbpuhyph","prime","5718a9c4dd9ef10013df01f0","5f60e3c0a3b16e07647b2ff9","5f61dc0462ed4e04b2663bae","false","null","<div style=""align-items: center; display: flex; color: darkorange; font-size: 90px""><b>ø</b></div>","null","","","","forget_cue","","","","","","","","","","","","","","","",""
"html-keyboard-response","234","481161","0.0-4.0-1.0-0.23","1jdohe4tbpuhyph","prime","5718a9c4dd9ef10013df01f0","5f60e3c0a3b16e07647b2ff9","5f61dc0462ed4e04b2663bae","false","null","<span style=""color: black; font-size: 48px"">M + N</span>","null","","","","resp_prompt","","","","","","","","","","","","","","","",""
"categorize-image","235","481749","0.0-4.0-1.0-1.23","1jdohe4tbpuhyph","prime","5718a9c4dd9ef10013df01f0","5f60e3c0a3b16e07647b2ff9","5f61dc0462ed4e04b2663bae","true","582.1549999982817","./Stimuli/SelectedImages/SM/SM106.bmp","76","","","","test","false","M + N","83","repetition","SM","SM106.bmp","forget","","88","4","prime1","right","","","",""
"html-keyboard-response","236","482250","0.0-4.0-1.0-2.23-0.23","1jdohe4tbpuhyph","prime","5718a9c4dd9ef10013df01f0","5f60e3c0a3b16e07647b2ff9","5f61dc0462ed4e04b2663bae","false","null","<span style=""color: red; font-size: 48px"">Error!</span>","null","","","","feedback","","","","","","","","","","","","","","","",""
"html-keyboard-response","237","484253","0.0-4.0-1.0-3.23","1jdohe4tbpuhyph","prime","5718a9c4dd9ef10013df01f0","5f60e3c0a3b16e07647b2ff9","5f61dc0462ed4e04b2663bae","false","null","<div style=""align-items: center; display: flex; color: darkorange; font-size: 90px""><b>ø</b></div>","null","","","","forget_cue","","","","","","","","","","","","","","","",""
"html-keyboard-response","238","484956","0.0-4.0-1.0-0.24","1jdohe4tbpuhyph","prime","5718a9c4dd9ef10013df01f0","5f60e3c0a3b16e07647b2ff9","5f61dc0462ed4e04b2663bae","false","null","<span style=""color: black; font-size: 48px"">N + M</span>","null","","","","resp_prompt","","","","","","","","","","","","","","","",""
"categorize-image","239","485968","0.0-4.0-1.0-1.24","1jdohe4tbpuhyph","prime","5718a9c4dd9ef10013df01f0","5f60e3c0a3b16e07647b2ff9","5f61dc0462ed4e04b2663bae","true","1006.5349999985774","./Stimuli/SelectedImages/SN/SN179.bmp","83","","","","test","true","N + M","83","repetition","SN","SN179.bmp","remember","","89","4","prime1","left","","","",""
"html-keyboard-response","240","487971","0.0-4.0-1.0-3.24","1jdohe4tbpuhyph","prime","5718a9c4dd9ef10013df01f0","5f60e3c0a3b16e07647b2ff9","5f61dc0462ed4e04b2663bae","false","null","<div style=""align-items: center; display: flex; color: dodgerblue; font-size: 90px""><b>o</b></div>","null","","","","forget_cue","","","","","","","","","","","","","","","",""
"html-keyboard-response","241","488673","0.0-4.0-1.0-0.25","1jdohe4tbpuhyph","prime","5718a9c4dd9ef10013df01f0","5f60e3c0a3b16e07647b2ff9","5f61dc0462ed4e04b2663bae","false","null","<span style=""color: black; font-size: 48px"">N + M</span>","null","","","","resp_prompt","","","","","","","","","","","","","","","",""
"categorize-image","242","489577","0.0-4.0-1.0-1.25","1jdohe4tbpuhyph","prime","5718a9c4dd9ef10013df01f0","5f60e3c0a3b16e07647b2ff9","5f61dc0462ed4e04b2663bae","true","899.6700000007404","./Stimuli/SelectedImages/SM/SM213.bmp","76","","","","test","true","N + M","76","repetition","SM","SM213.bmp","remember","","90","4","prime1","right","","","",""
"html-keyboard-response","243","491579","0.0-4.0-1.0-3.25","1jdohe4tbpuhyph","prime","5718a9c4dd9ef10013df01f0","5f60e3c0a3b16e07647b2ff9","5f61dc0462ed4e04b2663bae","false","null","<div style=""align-items: center; display: flex; color: dodgerblue; font-size: 90px""><b>o</b></div>","null","","","","forget_cue","","","","","","","","","","","","","","","",""
"html-keyboard-response","244","492281","0.0-4.0-1.0-0.26","1jdohe4tbpuhyph","prime","5718a9c4dd9ef10013df01f0","5f60e3c0a3b16e07647b2ff9","5f61dc0462ed4e04b2663bae","false","null","<span style=""color: black; font-size: 48px"">M + N</span>","null","","","","resp_prompt","","","","","","","","","","","","","","","",""
"categorize-image","245","493029","0.0-4.0-1.0-1.26","1jdohe4tbpuhyph","prime","5718a9c4dd9ef10013df01f0","5f60e3c0a3b16e07647b2ff9","5f61dc0462ed4e04b2663bae","true","742.7250000000349","./Stimuli/SelectedImages/SN/SN64.bmp","76","","","","test","true","M + N","76","repetition","SN","SN64.bmp","remember","","91","4","prime1","right","","","",""
