"trial_type","trial_index","time_elapsed","internal_node_id","subject","exp_part","prolific_PID","study_ID","session_ID","use","rt","stimulus","key_press","button_pressed","responses","question_order","trial_part","correct","resp_map","correct_resp","probe_condition","category","image","forget_condition","list","trial_num","block_num","block","response","test_part","n_span","sequence","num_spaces"
"pavlovia","0","5","0.0-0.0","abwk3tkdhzva0s6","","5f21857b35103a53f50d63da","5f60e3c0a3b16e07647b2ff9","5f60eecde33e1201162d723c","false","","","","","","","","","","","","","","","","","","","","","","",""
"html-keyboard-response","1","1821","0.0-1.0-0.0-0.0","abwk3tkdhzva0s6","welcome","5f21857b35103a53f50d63da","5f60e3c0a3b16e07647b2ff9","5f60eecde33e1201162d723c","false","1811.2100000000169","<div align=left>Dear participant, <br> thank you for participating in an online study of the Cognition, Action, and Sustainability Unit of the University of Freiburg! <br> <br>The aim of this study is to examine our ability to remember previously learned information. <br>Our goal is to find out, whether our memory improves, when we only remember information that is relevant to us. <br>The experiment will take about 35 minutes to complete. <br> <br>Please, note that you can only participate in this study if you are using a device with a keyboard (PC, Laptop etc.) <br>and not if you are using a mobile device such as a tablet or smartphone.<br> <br>Press 'SPACE' to proceed to the experiment. </div>","32","","","","","","","","","","","","","","","","","","","",""
"html-keyboard-response","2","22029","0.0-1.0-0.0-1.0","abwk3tkdhzva0s6","welcome","5f21857b35103a53f50d63da","5f60e3c0a3b16e07647b2ff9","5f60eecde33e1201162d723c","false","20203.925","<div align=left><strong> Time Course of this experiment: </strong> <br><br> <strong> 1.</strong>  First, please fill in some information regarding your demographic data. <br><br> <strong> 2.</strong>  Next, your task will be to classify everyday objects. <br>In addition, you will be asked to remember certain objects and recall them later. <br>Working on these tasks requires your undivided attention and concentration.<br>It is therefore essential that you eliminate any sources of distraction in your  <br>environment and ensure that you will not be disturbed. <br><br><strong> 3.</strong>  At the end of the experiment, you will be asked to answer a few additional questions. <br> <br><strong> Important:</strong> After finishing the experiment, only close the browser window <br> by clicking on the 'end the experiment'-button when you are asked to do so. <br>Closing the browser window prematurely will make the allocation of your participation credit impossible. <br><br> Press 'SPACE' to start the experiment. </div>","32","","","","","","","","","","","","","","","","","","","",""
"html-button-response","3","49684","0.0-1.0-0.0-2.0","abwk3tkdhzva0s6","welcome","5f21857b35103a53f50d63da","5f60e3c0a3b16e07647b2ff9","5f60eecde33e1201162d723c","true","27649.81","<div align=left><strong> Informed consent </strong>  <br>The aim of our research is to better understand human behavior and mental processes. <br>In the following study your behavior (e.g. choices, reaction times) will be studied. <br> <br><strong> Voluntariness and Anonymity </strong> <br>Your participation in this study is  <strong> voluntary</strong>.<br>You may withdraw your consent to participate at any time without providing a reason for doing so and without fear of prejudice. <br><br>As no personal data will be collected, <strong>your data and your person cannot be connected after data collection</strong> – the data-set is anonymous. <br>Respectively, deletion of your data will not be possible after data collection has been completed, as we cannot retrace your data-set.<br>The results and anonymized data collected in this study will be published as a scientific publication. <br>This will happen in an <strong>anonymized format</strong>, so that no data can be traced back to a specific person. <br> <br>The anonymized data of this study will be made available to other researchers and/or in a data archive on the Internet as a means of transparency and to enable subsequent re-use. By doing so, this study follows the recommendations of the Deutsche Forschungsgemeinschaft (DFG, German Research Foundation) and Deutsche Gesellschaft für Psychologie (DGPS, German Psychological Society) regarding quality assurance in research.<br>If you have any questions now or after the experiment, please contact our team (experiments@cs.uni-freiburg.de).<br><br><br>I hereby declare, that I understand the above described conditions of participation and I agree to participate under these conditions. <br><br> </div>","","0","","","","","","","","","","","","","","","","","","",""
"html-keyboard-response","4","68722","0.0-1.0-0.0-3.0","abwk3tkdhzva0s6","welcome","5f21857b35103a53f50d63da","5f60e3c0a3b16e07647b2ff9","5f60eecde33e1201162d723c","false","19033.164999999994","<div align=left><strong> General information concerning the experiment </strong>  <br> <br>Please follow the instructions:<ol> <li><strong> Do not leave this tab (your browser window) during the experiment and do not reload this tab! </strong>  <br>If you do switch tabs/windows during the experiment (to check your mail or visit another website, for example), <br>the experiment will end automatically and you will <strong>not receive credit</strong> for your participation. <br>Repeated participation or resumption of the experiment is impossible.</li> <br><li>Please close all other programs for the duration of your participation. </li> <br><li>Please mute or turn off your phone and put it out of your reach. </li> <br><li>Please also take off any disturbing accessories (such as wristwatches, bracelets, etc.). </li> <br><li>If you have music playing in the background, please turn it off now. </li> <br></ol>Thank you! <br>Press 'SPACE' to continue. </div>","32","","","","","","","","","","","","","","","","","","","",""
"survey-text","5","72155","0.0-1.0-1.0-0.0","abwk3tkdhzva0s6","demographics","5f21857b35103a53f50d63da","5f60e3c0a3b16e07647b2ff9","5f60eecde33e1201162d723c","true","3418.589999999982","","","","{""age"":""34""}","","","","","","","","","","","","","","","","","",""
"survey-multi-choice","6","96302","0.0-1.0-1.0-1.0","abwk3tkdhzva0s6","demographics","5f21857b35103a53f50d63da","5f60e3c0a3b16e07647b2ff9","5f60eecde33e1201162d723c","true","24143.934999999998","","","","{""gender"":""male"",""school"":""others"",""education"":""High school graduate, diploma or equivalent""}","[0,1,2]","","","","","","","","","","","","","","","","",""
"html-keyboard-response","7","106954","0.0-1.0-2.0","abwk3tkdhzva0s6","instructions","5f21857b35103a53f50d63da","5f60e3c0a3b16e07647b2ff9","5f60eecde33e1201162d723c","false","10648.795000000013","<div align=left> The experiment is now about to start: <br> <br>In the following part, you will be presented pictures of everyday objects. <br>Your first task is to <strong>classify these objects. </strong> <br> <br> You will classify them either as mechanical or non-mechanical objects. <br> <br>Objects that include any kind of technical mechanism (for example, wheels, switches, levers, <br> electronic components) fall under the category of <strong>mechanical</strong> objects. <br>Only objects without any kind of technical mechanism should be classified as <strong>non-mechanical</strong>. <br><br>Press 'SPACE' to continue. </div>","32","","","","","","","","","","","","","","","","","","","",""
"html-keyboard-response","8","146776","0.0-2.0-0.0","abwk3tkdhzva0s6","instructions","5f21857b35103a53f50d63da","5f60e3c0a3b16e07647b2ff9","5f60eecde33e1201162d723c","false","39818.109999999986","<div align=justify>You will classify the objects using the <strong>'S'</strong> and the <strong>'L'</strong> keys on your keyboard.<br>For doing so, please place your <strong>left index finger</strong> on the <strong>'S'</strong> key and place your <strong>right index finger</strong> on the <strong>'L'</strong> key. <br><br> Each trial starts with an instruction, indicating which key ('S'/'L') you need to press to classify <br>the object as mechanical (letter M) or non-mechanical (letter N).<br>The instruction <strong>M + N</strong> indicates that, in the current trial, by pressing the left key ('S') you classify the displayed object as mechanical (M) <br> and by pressing the right key ('L') you classify the object as non-mechanical (N). <br>The instruction <strong>N + M</strong> on the other hand indicates that by pressing the left key ('S') you classify the displayed object as non-mechanical (N) <br> and by pressing the right key ('L') you classify the object as mechanical (M). <br><br>Please press the key corresponding to the correct classification as fast as possible as soon as the object is displayed and try to avoid making mistakes.<br>If you do not respond within a 2 second window, a corresponding feedback will be displayed and the next trial will start.<br> The experiment is divided into multiple blocks to give you the opportunity to take a break after each block. <br>First, you can now practice this task. <br><br>Please place your <strong>LEFT INDEX FINGER</strong> on the 'S' key and your <strong>RIGHT INDEX FINGER</strong> on the 'L' key now. <br><br>Press SPACE to continue.</div>","32","","","","","","","","","","","","","","","","","","","",""
"html-keyboard-response","9","156483","0.0-2.0-1.0","abwk3tkdhzva0s6","instructions","5f21857b35103a53f50d63da","5f60e3c0a3b16e07647b2ff9","5f60eecde33e1201162d723c","false","9704.414999999979","<div align=left> You will now have time to practice this task.<br><br>Remember: <br> <br><li>Please place your index fingers on the <strong>'S'</strong> and <strong>'L'</strong> keys <br>to respond as fast and accurately as possible.</li><li>Every picture can be classified as either mechanical or non-mechanical.</li><li>If you do not respond in time or commit an error, you will receive a corresponding feedback. </li><li> Please try to respond as <strong> fast </strong> and as <strong> accurately as possible </strong> .<br><li>To ensure optimal results, please minimize distractions and stay focused. </li><br><br>Press SPACE to continue.</div>","32","","","","","","","","","","","","","","","","","","","",""
"html-keyboard-response","10","157192","0.0-2.0-2.0-0.0","abwk3tkdhzva0s6","practice_no_cue","5f21857b35103a53f50d63da","5f60e3c0a3b16e07647b2ff9","5f60eecde33e1201162d723c","false","null","<span style=""color: black; font-size: 48px"">M + N</span>","null","","","","resp_prompt","","","","","","","","","","","","","","","",""
"categorize-image","11","159637","0.0-2.0-2.0-1.0","abwk3tkdhzva0s6","practice_no_cue","5f21857b35103a53f50d63da","5f60e3c0a3b16e07647b2ff9","5f60eecde33e1201162d723c","true","1934.195000000036","./Stimuli/ImagesPractice/LM55.jpg","83","","","","test","true","M + N","83","","LM","LM55.jpg","remember","old","1","1","start","left","","","",""
"html-keyboard-response","12","160343","0.0-2.0-2.0-0.1","abwk3tkdhzva0s6","practice_no_cue","5f21857b35103a53f50d63da","5f60e3c0a3b16e07647b2ff9","5f60eecde33e1201162d723c","false","null","<span style=""color: black; font-size: 48px"">N + M</span>","null","","","","resp_prompt","","","","","","","","","","","","","","","",""
"categorize-image","13","161949","0.0-2.0-2.0-1.1","abwk3tkdhzva0s6","practice_no_cue","5f21857b35103a53f50d63da","5f60e3c0a3b16e07647b2ff9","5f60eecde33e1201162d723c","true","1099.5650000000023","./Stimuli/ImagesPractice/SN75.jpg","76","","","","test","false","N + M","83","","SN","SN75.jpg","remember","old","2","1","start","right","","","",""
"html-keyboard-response","14","162652","0.0-2.0-2.0-0.2","abwk3tkdhzva0s6","practice_no_cue","5f21857b35103a53f50d63da","5f60e3c0a3b16e07647b2ff9","5f60eecde33e1201162d723c","false","null","<span style=""color: black; font-size: 48px"">N + M</span>","null","","","","resp_prompt","","","","","","","","","","","","","","","",""
"categorize-image","15","163926","0.0-2.0-2.0-1.2","abwk3tkdhzva0s6","practice_no_cue","5f21857b35103a53f50d63da","5f60e3c0a3b16e07647b2ff9","5f60eecde33e1201162d723c","true","766.0600000000559","./Stimuli/ImagesPractice/SN221.jpg","76","","","","test","false","N + M","83","","SN","SN221.jpg","remember","old","3","1","start","right","","","",""
"html-keyboard-response","16","164632","0.0-2.0-2.0-0.3","abwk3tkdhzva0s6","practice_no_cue","5f21857b35103a53f50d63da","5f60e3c0a3b16e07647b2ff9","5f60eecde33e1201162d723c","false","null","<span style=""color: black; font-size: 48px"">M + N</span>","null","","","","resp_prompt","","","","","","","","","","","","","","","",""
"categorize-image","17","166253","0.0-2.0-2.0-1.3","abwk3tkdhzva0s6","practice_no_cue","5f21857b35103a53f50d63da","5f60e3c0a3b16e07647b2ff9","5f60eecde33e1201162d723c","true","1114.6750000000175","./Stimuli/ImagesPractice/LN4.jpg","76","","","","test","true","M + N","76","","LN","LN4.jpg","forget","old","4","1","start","right","","","",""
"html-keyboard-response","18","166958","0.0-2.0-2.0-0.4","abwk3tkdhzva0s6","practice_no_cue","5f21857b35103a53f50d63da","5f60e3c0a3b16e07647b2ff9","5f60eecde33e1201162d723c","false","null","<span style=""color: black; font-size: 48px"">N + M</span>","null","","","","resp_prompt","","","","","","","","","","","","","","","",""
"categorize-image","19","168263","0.0-2.0-2.0-1.4","abwk3tkdhzva0s6","practice_no_cue","5f21857b35103a53f50d63da","5f60e3c0a3b16e07647b2ff9","5f60eecde33e1201162d723c","true","798.4150000000373","./Stimuli/ImagesPractice/SN205.jpg","83","","","","test","true","N + M","83","","SN","SN205.jpg","forget","old","5","1","start","left","","","",""
"html-keyboard-response","20","168967","0.0-2.0-2.0-0.5","abwk3tkdhzva0s6","practice_no_cue","5f21857b35103a53f50d63da","5f60e3c0a3b16e07647b2ff9","5f60eecde33e1201162d723c","false","null","<span style=""color: black; font-size: 48px"">N + M</span>","null","","","","resp_prompt","","","","","","","","","","","","","","","",""
"categorize-image","21","170138","0.0-2.0-2.0-1.5","abwk3tkdhzva0s6","practice_no_cue","5f21857b35103a53f50d63da","5f60e3c0a3b16e07647b2ff9","5f60eecde33e1201162d723c","true","663.0600000000268","./Stimuli/ImagesPractice/SN222.jpg","83","","","","test","true","N + M","83","","SN","SN222.jpg","forget","old","6","1","start","left","","","",""
"html-keyboard-response","22","170843","0.0-2.0-2.0-0.6","abwk3tkdhzva0s6","practice_no_cue","5f21857b35103a53f50d63da","5f60e3c0a3b16e07647b2ff9","5f60eecde33e1201162d723c","false","null","<span style=""color: black; font-size: 48px"">M + N</span>","null","","","","resp_prompt","","","","","","","","","","","","","","","",""
"categorize-image","23","172454","0.0-2.0-2.0-1.6","abwk3tkdhzva0s6","practice_no_cue","5f21857b35103a53f50d63da","5f60e3c0a3b16e07647b2ff9","5f60eecde33e1201162d723c","true","1104.0050000000338","./Stimuli/ImagesPractice/LN17.jpg","76","","","","test","true","M + N","76","","LN","LN17.jpg","forget","old","7","1","start","right","","","",""
"html-keyboard-response","24","173157","0.0-2.0-2.0-0.7","abwk3tkdhzva0s6","practice_no_cue","5f21857b35103a53f50d63da","5f60e3c0a3b16e07647b2ff9","5f60eecde33e1201162d723c","false","null","<span style=""color: black; font-size: 48px"">M + N</span>","null","","","","resp_prompt","","","","","","","","","","","","","","","",""
"categorize-image","25","174606","0.0-2.0-2.0-1.7","abwk3tkdhzva0s6","practice_no_cue","5f21857b35103a53f50d63da","5f60e3c0a3b16e07647b2ff9","5f60eecde33e1201162d723c","true","941.9749999999476","./Stimuli/ImagesPractice/LM230.jpg","83","","","","test","true","M + N","83","","LM","LM230.jpg","remember","old","8","1","start","left","","","",""
"html-keyboard-response","26","175314","0.0-2.0-2.0-0.8","abwk3tkdhzva0s6","practice_no_cue","5f21857b35103a53f50d63da","5f60e3c0a3b16e07647b2ff9","5f60eecde33e1201162d723c","false","null","<span style=""color: black; font-size: 48px"">M + N</span>","null","","","","resp_prompt","","","","","","","","","","","","","","","",""
"categorize-image","27","176425","0.0-2.0-2.0-1.8","abwk3tkdhzva0s6","practice_no_cue","5f21857b35103a53f50d63da","5f60e3c0a3b16e07647b2ff9","5f60eecde33e1201162d723c","true","601.1050000000105","./Stimuli/ImagesPractice/SM37.jpg","83","","","","test","true","M + N","83","","SM","SM37.jpg","forget","old","9","1","start","left","","","",""
"html-keyboard-response","28","177129","0.0-2.0-2.0-0.9","abwk3tkdhzva0s6","practice_no_cue","5f21857b35103a53f50d63da","5f60e3c0a3b16e07647b2ff9","5f60eecde33e1201162d723c","false","null","<span style=""color: black; font-size: 48px"">N + M</span>","null","","","","resp_prompt","","","","","","","","","","","","","","","",""
"categorize-image","29","178424","0.0-2.0-2.0-1.9","abwk3tkdhzva0s6","practice_no_cue","5f21857b35103a53f50d63da","5f60e3c0a3b16e07647b2ff9","5f60eecde33e1201162d723c","true","790.2050000000163","./Stimuli/ImagesPractice/LN2.jpg","76","","","","test","false","N + M","83","","LN","LN2.jpg","remember","old","10","1","start","right","","","",""
"html-keyboard-response","30","179128","0.0-2.0-2.0-0.10","abwk3tkdhzva0s6","practice_no_cue","5f21857b35103a53f50d63da","5f60e3c0a3b16e07647b2ff9","5f60eecde33e1201162d723c","false","null","<span style=""color: black; font-size: 48px"">M + N</span>","null","","","","resp_prompt","","","","","","","","","","","","","","","",""
"categorize-image","31","180786","0.0-2.0-2.0-1.10","abwk3tkdhzva0s6","practice_no_cue","5f21857b35103a53f50d63da","5f60e3c0a3b16e07647b2ff9","5f60eecde33e1201162d723c","true","1150.734999999986","./Stimuli/ImagesPractice/SN76.jpg","83","","","","test","false","M + N","76","","SN","SN76.jpg","remember","old","11","1","start","left","","","",""
"html-keyboard-response","32","181490","0.0-2.0-2.0-0.11","abwk3tkdhzva0s6","practice_no_cue","5f21857b35103a53f50d63da","5f60e3c0a3b16e07647b2ff9","5f60eecde33e1201162d723c","false","null","<span style=""color: black; font-size: 48px"">M + N</span>","null","","","","resp_prompt","","","","","","","","","","","","","","","",""
"categorize-image","33","182786","0.0-2.0-2.0-1.11","abwk3tkdhzva0s6","practice_no_cue","5f21857b35103a53f50d63da","5f60e3c0a3b16e07647b2ff9","5f60eecde33e1201162d723c","true","788.179999999993","./Stimuli/ImagesPractice/LN15.jpg","76","","","","test","true","M + N","76","","LN","LN15.jpg","forget","old","12","1","start","right","","","",""
"html-keyboard-response","34","183490","0.0-2.0-2.0-0.12","abwk3tkdhzva0s6","practice_no_cue","5f21857b35103a53f50d63da","5f60e3c0a3b16e07647b2ff9","5f60eecde33e1201162d723c","false","null","<span style=""color: black; font-size: 48px"">N + M</span>","null","","","","resp_prompt","","","","","","","","","","","","","","","",""
"categorize-image","35","185245","0.0-2.0-2.0-1.12","abwk3tkdhzva0s6","practice_no_cue","5f21857b35103a53f50d63da","5f60e3c0a3b16e07647b2ff9","5f60eecde33e1201162d723c","true","1251.0450000000128","./Stimuli/ImagesPractice/SM62.jpg","83","","","","test","false","N + M","76","","SM","SM62.jpg","remember","old","13","1","start","left","","","",""
"html-keyboard-response","36","185950","0.0-2.0-2.0-0.13","abwk3tkdhzva0s6","practice_no_cue","5f21857b35103a53f50d63da","5f60e3c0a3b16e07647b2ff9","5f60eecde33e1201162d723c","false","null","<span style=""color: black; font-size: 48px"">N + M</span>","null","","","","resp_prompt","","","","","","","","","","","","","","","",""
"categorize-image","37","187367","0.0-2.0-2.0-1.13","abwk3tkdhzva0s6","practice_no_cue","5f21857b35103a53f50d63da","5f60e3c0a3b16e07647b2ff9","5f60eecde33e1201162d723c","true","911.9350000000268","./Stimuli/ImagesPractice/LM239.jpg","76","","","","test","true","N + M","76","","LM","LM239.jpg","forget","old","14","1","start","right","","","",""
"html-keyboard-response","38","188072","0.0-2.0-2.0-0.14","abwk3tkdhzva0s6","practice_no_cue","5f21857b35103a53f50d63da","5f60e3c0a3b16e07647b2ff9","5f60eecde33e1201162d723c","false","null","<span style=""color: black; font-size: 48px"">M + N</span>","null","","","","resp_prompt","","","","","","","","","","","","","","","",""
"categorize-image","39","189393","0.0-2.0-2.0-1.14","abwk3tkdhzva0s6","practice_no_cue","5f21857b35103a53f50d63da","5f60e3c0a3b16e07647b2ff9","5f60eecde33e1201162d723c","true","814.8100000000268","./Stimuli/ImagesPractice/LM147.jpg","83","","","","test","true","M + N","83","","LM","LM147.jpg","remember","old","15","1","start","left","","","",""
"html-keyboard-response","40","190096","0.0-2.0-2.0-0.15","abwk3tkdhzva0s6","practice_no_cue","5f21857b35103a53f50d63da","5f60e3c0a3b16e07647b2ff9","5f60eecde33e1201162d723c","false","null","<span style=""color: black; font-size: 48px"">N + M</span>","null","","","","resp_prompt","","","","","","","","","","","","","","","",""
"categorize-image","41","191576","0.0-2.0-2.0-1.15","abwk3tkdhzva0s6","practice_no_cue","5f21857b35103a53f50d63da","5f60e3c0a3b16e07647b2ff9","5f60eecde33e1201162d723c","true","976.1949999999779","./Stimuli/ImagesPractice/SM35.jpg","83","","","","test","false","N + M","76","","SM","SM35.jpg","forget","old","16","1","start","left","","","",""
"html-keyboard-response","42","198558","0.0-2.0-3.0","abwk3tkdhzva0s6","break","5f21857b35103a53f50d63da","5f60e3c0a3b16e07647b2ff9","5f60eecde33e1201162d723c","false","6975.310000000027","<p style='font-size: 32px;'>Break</><br><br><br><br><br><p style='font-size: 24px;'>In the last block, you committed 6 errors and did not respond in time on 0 trials.
</p><p style='font-size: 24px;'>Try to respond as fast and accurately as possible in the next block as well! </p><p style='font-size: 24px;'>Press SPACE to continue.</p>","32","","","","","","","","","","","","","","","","","","","",""
"html-keyboard-response","43","206617","0.0-2.0-4.0","abwk3tkdhzva0s6","instructions","5f21857b35103a53f50d63da","5f60e3c0a3b16e07647b2ff9","5f60eecde33e1201162d723c","false","8057.020000000019","<div align=left> Great!<br><br>Are you ready to continue?<br><br>If you want to reread the instructions and redo the practice trials, <br>please press „Z“. <br><br>Press SPACE to CONTINUE with the experiment when you are ready. </div>","90","","","","","","","","","","","","","","","","","","","",""
"html-keyboard-response","44","207979","0.0-2.1-0.1","abwk3tkdhzva0s6","instructions","5f21857b35103a53f50d63da","5f60e3c0a3b16e07647b2ff9","5f60eecde33e1201162d723c","false","1355.5800000000163","<div align=justify>You will classify the objects using the <strong>'S'</strong> and the <strong>'L'</strong> keys on your keyboard.<br>For doing so, please place your <strong>left index finger</strong> on the <strong>'S'</strong> key and place your <strong>right index finger</strong> on the <strong>'L'</strong> key. <br><br> Each trial starts with an instruction, indicating which key ('S'/'L') you need to press to classify <br>the object as mechanical (letter M) or non-mechanical (letter N).<br>The instruction <strong>M + N</strong> indicates that, in the current trial, by pressing the left key ('S') you classify the displayed object as mechanical (M) <br> and by pressing the right key ('L') you classify the object as non-mechanical (N). <br>The instruction <strong>N + M</strong> on the other hand indicates that by pressing the left key ('S') you classify the displayed object as non-mechanical (N) <br> and by pressing the right key ('L') you classify the object as mechanical (M). <br><br>Please press the key corresponding to the correct classification as fast as possible as soon as the object is displayed and try to avoid making mistakes.<br>If you do not respond within a 2 second window, a corresponding feedback will be displayed and the next trial will start.<br> The experiment is divided into multiple blocks to give you the opportunity to take a break after each block. <br>First, you can now practice this task. <br><br>Please place your <strong>LEFT INDEX FINGER</strong> on the 'S' key and your <strong>RIGHT INDEX FINGER</strong> on the 'L' key now. <br><br>Press SPACE to continue.</div>","32","","","","","","","","","","","","","","","","","","","",""
"html-keyboard-response","45","208936","0.0-2.1-1.1","abwk3tkdhzva0s6","instructions","5f21857b35103a53f50d63da","5f60e3c0a3b16e07647b2ff9","5f60eecde33e1201162d723c","false","952.9699999999721","<div align=left> You will now have time to practice this task.<br><br>Remember: <br> <br><li>Please place your index fingers on the <strong>'S'</strong> and <strong>'L'</strong> keys <br>to respond as fast and accurately as possible.</li><li>Every picture can be classified as either mechanical or non-mechanical.</li><li>If you do not respond in time or commit an error, you will receive a corresponding feedback. </li><li> Please try to respond as <strong> fast </strong> and as <strong> accurately as possible </strong> .<br><li>To ensure optimal results, please minimize distractions and stay focused. </li><br><br>Press SPACE to continue.</div>","32","","","","","","","","","","","","","","","","","","","",""
"html-keyboard-response","46","209640","0.0-2.1-2.1-0.16","abwk3tkdhzva0s6","practice_no_cue","5f21857b35103a53f50d63da","5f60e3c0a3b16e07647b2ff9","5f60eecde33e1201162d723c","false","null","<span style=""color: black; font-size: 48px"">N + M</span>","null","","","","resp_prompt","","","","","","","","","","","","","","","",""
"categorize-image","47","211358","0.0-2.1-2.1-1.16","abwk3tkdhzva0s6","practice_no_cue","5f21857b35103a53f50d63da","5f60e3c0a3b16e07647b2ff9","5f60eecde33e1201162d723c","true","1213.390000000014","./Stimuli/ImagesPractice/SN222.jpg","83","","","","test","true","N + M","83","","SN","SN222.jpg","forget","old","17","2","practice_forget","left","","","",""
"html-keyboard-response","48","212062","0.0-2.1-2.1-0.17","abwk3tkdhzva0s6","practice_no_cue","5f21857b35103a53f50d63da","5f60e3c0a3b16e07647b2ff9","5f60eecde33e1201162d723c","false","null","<span style=""color: black; font-size: 48px"">M + N</span>","null","","","","resp_prompt","","","","","","","","","","","","","","","",""
"categorize-image","49","213581","0.0-2.1-2.1-1.17","abwk3tkdhzva0s6","practice_no_cue","5f21857b35103a53f50d63da","5f60e3c0a3b16e07647b2ff9","5f60eecde33e1201162d723c","true","1011.7300000000105","./Stimuli/ImagesPractice/LN17.jpg","83","","","","test","false","M + N","76","","LN","LN17.jpg","forget","old","18","2","practice_forget","left","","","",""
"html-keyboard-response","50","214284","0.0-2.1-2.1-0.18","abwk3tkdhzva0s6","practice_no_cue","5f21857b35103a53f50d63da","5f60e3c0a3b16e07647b2ff9","5f60eecde33e1201162d723c","false","null","<span style=""color: black; font-size: 48px"">N + M</span>","null","","","","resp_prompt","","","","","","","","","","","","","","","",""
"categorize-image","51","215548","0.0-2.1-2.1-1.18","abwk3tkdhzva0s6","practice_no_cue","5f21857b35103a53f50d63da","5f60e3c0a3b16e07647b2ff9","5f60eecde33e1201162d723c","true","757.4550000000163","./Stimuli/ImagesPractice/SN221.jpg","76","","","","test","false","N + M","83","","SN","SN221.jpg","remember","old","19","2","practice_forget","right","","","",""
"html-keyboard-response","52","216252","0.0-2.1-2.1-0.19","abwk3tkdhzva0s6","practice_no_cue","5f21857b35103a53f50d63da","5f60e3c0a3b16e07647b2ff9","5f60eecde33e1201162d723c","false","null","<span style=""color: black; font-size: 48px"">M + N</span>","null","","","","resp_prompt","","","","","","","","","","","","","","","",""
"categorize-image","53","217693","0.0-2.1-2.1-1.19","abwk3tkdhzva0s6","practice_no_cue","5f21857b35103a53f50d63da","5f60e3c0a3b16e07647b2ff9","5f60eecde33e1201162d723c","true","933.3650000000489","./Stimuli/ImagesPractice/SN76.jpg","76","","","","test","true","M + N","76","","SN","SN76.jpg","remember","old","20","2","practice_forget","right","","","",""
"html-keyboard-response","54","218397","0.0-2.1-2.1-0.20","abwk3tkdhzva0s6","practice_no_cue","5f21857b35103a53f50d63da","5f60e3c0a3b16e07647b2ff9","5f60eecde33e1201162d723c","false","null","<span style=""color: black; font-size: 48px"">N + M</span>","null","","","","resp_prompt","","","","","","","","","","","","","","","",""
"categorize-image","55","219768","0.0-2.1-2.1-1.20","abwk3tkdhzva0s6","practice_no_cue","5f21857b35103a53f50d63da","5f60e3c0a3b16e07647b2ff9","5f60eecde33e1201162d723c","true","864.9300000000221","./Stimuli/ImagesPractice/LN2.jpg","76","","","","test","false","N + M","83","","LN","LN2.jpg","remember","old","21","2","practice_forget","right","","","",""
"html-keyboard-response","56","220472","0.0-2.1-2.1-0.21","abwk3tkdhzva0s6","practice_no_cue","5f21857b35103a53f50d63da","5f60e3c0a3b16e07647b2ff9","5f60eecde33e1201162d723c","false","null","<span style=""color: black; font-size: 48px"">N + M</span>","null","","","","resp_prompt","","","","","","","","","","","","","","","",""
"categorize-image","57","222244","0.0-2.1-2.1-1.21","abwk3tkdhzva0s6","practice_no_cue","5f21857b35103a53f50d63da","5f60e3c0a3b16e07647b2ff9","5f60eecde33e1201162d723c","true","1265.8399999999674","./Stimuli/ImagesPractice/SM35.jpg","76","","","","test","true","N + M","76","","SM","SM35.jpg","forget","old","22","2","practice_forget","right","","","",""
"html-keyboard-response","58","222949","0.0-2.1-2.1-0.22","abwk3tkdhzva0s6","practice_no_cue","5f21857b35103a53f50d63da","5f60e3c0a3b16e07647b2ff9","5f60eecde33e1201162d723c","false","null","<span style=""color: black; font-size: 48px"">N + M</span>","null","","","","resp_prompt","","","","","","","","","","","","","","","",""
"categorize-image","59","224358","0.0-2.1-2.1-1.22","abwk3tkdhzva0s6","practice_no_cue","5f21857b35103a53f50d63da","5f60e3c0a3b16e07647b2ff9","5f60eecde33e1201162d723c","true","904.1399999999849","./Stimuli/ImagesPractice/SN205.jpg","83","","","","test","true","N + M","83","","SN","SN205.jpg","forget","old","23","2","practice_forget","left","","","",""
"html-keyboard-response","60","225063","0.0-2.1-2.1-0.23","abwk3tkdhzva0s6","practice_no_cue","5f21857b35103a53f50d63da","5f60e3c0a3b16e07647b2ff9","5f60eecde33e1201162d723c","false","null","<span style=""color: black; font-size: 48px"">M + N</span>","null","","","","resp_prompt","","","","","","","","","","","","","","","",""
"categorize-image","61","226078","0.0-2.1-2.1-1.23","abwk3tkdhzva0s6","practice_no_cue","5f21857b35103a53f50d63da","5f60e3c0a3b16e07647b2ff9","5f60eecde33e1201162d723c","true","510.53000000002794","./Stimuli/ImagesPractice/SM37.jpg","83","","","","test","true","M + N","83","","SM","SM37.jpg","forget","old","24","2","practice_forget","left","","","",""
"html-keyboard-response","62","226783","0.0-2.1-2.1-0.24","abwk3tkdhzva0s6","practice_no_cue","5f21857b35103a53f50d63da","5f60e3c0a3b16e07647b2ff9","5f60eecde33e1201162d723c","false","null","<span style=""color: black; font-size: 48px"">M + N</span>","null","","","","resp_prompt","","","","","","","","","","","","","","","",""
"categorize-image","63","228026","0.0-2.1-2.1-1.24","abwk3tkdhzva0s6","practice_no_cue","5f21857b35103a53f50d63da","5f60e3c0a3b16e07647b2ff9","5f60eecde33e1201162d723c","true","736.4350000000268","./Stimuli/ImagesPractice/LN4.jpg","83","","","","test","false","M + N","76","","LN","LN4.jpg","forget","old","25","2","practice_forget","left","","","",""
"html-keyboard-response","64","228730","0.0-2.1-2.1-0.25","abwk3tkdhzva0s6","practice_no_cue","5f21857b35103a53f50d63da","5f60e3c0a3b16e07647b2ff9","5f60eecde33e1201162d723c","false","null","<span style=""color: black; font-size: 48px"">M + N</span>","null","","","","resp_prompt","","","","","","","","","","","","","","","",""
"categorize-image","65","229863","0.0-2.1-2.1-1.25","abwk3tkdhzva0s6","practice_no_cue","5f21857b35103a53f50d63da","5f60e3c0a3b16e07647b2ff9","5f60eecde33e1201162d723c","true","627.0900000000256","./Stimuli/ImagesPractice/LM55.jpg","83","","","","test","true","M + N","83","","LM","LM55.jpg","remember","old","26","2","practice_forget","left","","","",""
"html-keyboard-response","66","230567","0.0-2.1-2.1-0.26","abwk3tkdhzva0s6","practice_no_cue","5f21857b35103a53f50d63da","5f60e3c0a3b16e07647b2ff9","5f60eecde33e1201162d723c","false","null","<span style=""color: black; font-size: 48px"">N + M</span>","null","","","","resp_prompt","","","","","","","","","","","","","","","",""
"categorize-image","67","231850","0.0-2.1-2.1-1.26","abwk3tkdhzva0s6","practice_no_cue","5f21857b35103a53f50d63da","5f60e3c0a3b16e07647b2ff9","5f60eecde33e1201162d723c","true","777.1149999999907","./Stimuli/ImagesPractice/SM62.jpg","83","","","","test","false","N + M","76","","SM","SM62.jpg","remember","old","27","2","practice_forget","left","","","",""
"html-keyboard-response","68","232555","0.0-2.1-2.1-0.27","abwk3tkdhzva0s6","practice_no_cue","5f21857b35103a53f50d63da","5f60e3c0a3b16e07647b2ff9","5f60eecde33e1201162d723c","false","null","<span style=""color: black; font-size: 48px"">M + N</span>","null","","","","resp_prompt","","","","","","","","","","","","","","","",""
"categorize-image","69","233885","0.0-2.1-2.1-1.27","abwk3tkdhzva0s6","practice_no_cue","5f21857b35103a53f50d63da","5f60e3c0a3b16e07647b2ff9","5f60eecde33e1201162d723c","true","825.445000000007","./Stimuli/ImagesPractice/LN15.jpg","76","","","","test","true","M + N","76","","LN","LN15.jpg","forget","old","28","2","practice_forget","right","","","",""
"html-keyboard-response","70","234590","0.0-2.1-2.1-0.28","abwk3tkdhzva0s6","practice_no_cue","5f21857b35103a53f50d63da","5f60e3c0a3b16e07647b2ff9","5f60eecde33e1201162d723c","false","null","<span style=""color: black; font-size: 48px"">M + N</span>","null","","","","resp_prompt","","","","","","","","","","","","","","","",""
"categorize-image","71","235804","0.0-2.1-2.1-1.28","abwk3tkdhzva0s6","practice_no_cue","5f21857b35103a53f50d63da","5f60e3c0a3b16e07647b2ff9","5f60eecde33e1201162d723c","true","706.2250000000058","./Stimuli/ImagesPractice/LM230.jpg","83","","","","test","true","M + N","83","","LM","LM230.jpg","remember","old","29","2","practice_forget","left","","","",""
"html-keyboard-response","72","236508","0.0-2.1-2.1-0.29","abwk3tkdhzva0s6","practice_no_cue","5f21857b35103a53f50d63da","5f60e3c0a3b16e07647b2ff9","5f60eecde33e1201162d723c","false","null","<span style=""color: black; font-size: 48px"">M + N</span>","null","","","","resp_prompt","","","","","","","","","","","","","","","",""
"categorize-image","73","238172","0.0-2.1-2.1-1.29","abwk3tkdhzva0s6","practice_no_cue","5f21857b35103a53f50d63da","5f60e3c0a3b16e07647b2ff9","5f60eecde33e1201162d723c","true","1157.6699999999837","./Stimuli/ImagesPractice/LM147.jpg","76","","","","test","false","M + N","83","","LM","LM147.jpg","remember","old","30","2","practice_forget","right","","","",""
"html-keyboard-response","74","238876","0.0-2.1-2.1-0.30","abwk3tkdhzva0s6","practice_no_cue","5f21857b35103a53f50d63da","5f60e3c0a3b16e07647b2ff9","5f60eecde33e1201162d723c","false","null","<span style=""color: black; font-size: 48px"">N + M</span>","null","","","","resp_prompt","","","","","","","","","","","","","","","",""
"categorize-image","75","240187","0.0-2.1-2.1-1.30","abwk3tkdhzva0s6","practice_no_cue","5f21857b35103a53f50d63da","5f60e3c0a3b16e07647b2ff9","5f60eecde33e1201162d723c","true","800.8649999999907","./Stimuli/ImagesPractice/LM239.jpg","83","","","","test","false","N + M","76","","LM","LM239.jpg","forget","old","31","2","practice_forget","left","","","",""
"html-keyboard-response","76","240894","0.0-2.1-2.1-0.31","abwk3tkdhzva0s6","practice_no_cue","5f21857b35103a53f50d63da","5f60e3c0a3b16e07647b2ff9","5f60eecde33e1201162d723c","false","null","<span style=""color: black; font-size: 48px"">N + M</span>","null","","","","resp_prompt","","","","","","","","","","","","","","","",""
"categorize-image","77","242352","0.0-2.1-2.1-1.31","abwk3tkdhzva0s6","practice_no_cue","5f21857b35103a53f50d63da","5f60e3c0a3b16e07647b2ff9","5f60eecde33e1201162d723c","true","952.1849999999686","./Stimuli/ImagesPractice/SN75.jpg","76","","","","test","false","N + M","83","","SN","SN75.jpg","remember","old","32","2","practice_forget","right","","","",""
"html-keyboard-response","78","243831","0.0-2.1-3.1","abwk3tkdhzva0s6","break","5f21857b35103a53f50d63da","5f60e3c0a3b16e07647b2ff9","5f60eecde33e1201162d723c","false","1466.0750000000407","<p style='font-size: 32px;'>Break</><br><br><br><br><br><p style='font-size: 24px;'>In the last block, you committed 8 errors and did not respond in time on 0 trials.
</p><p style='font-size: 24px;'>Try to respond as fast and accurately as possible in the next block as well! </p><p style='font-size: 24px;'>Press SPACE to continue.</p>","32","","","","","","","","","","","","","","","","","","","",""
"html-keyboard-response","79","245431","0.0-2.1-4.1","abwk3tkdhzva0s6","instructions","5f21857b35103a53f50d63da","5f60e3c0a3b16e07647b2ff9","5f60eecde33e1201162d723c","false","1597.5350000000035","<div align=left> Great!<br><br>Are you ready to continue?<br><br>If you want to reread the instructions and redo the practice trials, <br>please press „Z“. <br><br>Press SPACE to CONTINUE with the experiment when you are ready. </div>","90","","","","","","","","","","","","","","","","","","","",""
"html-keyboard-response","80","246214","0.0-2.2-0.2","abwk3tkdhzva0s6","instructions","5f21857b35103a53f50d63da","5f60e3c0a3b16e07647b2ff9","5f60eecde33e1201162d723c","false","780.5500000000175","<div align=justify>You will classify the objects using the <strong>'S'</strong> and the <strong>'L'</strong> keys on your keyboard.<br>For doing so, please place your <strong>left index finger</strong> on the <strong>'S'</strong> key and place your <strong>right index finger</strong> on the <strong>'L'</strong> key. <br><br> Each trial starts with an instruction, indicating which key ('S'/'L') you need to press to classify <br>the object as mechanical (letter M) or non-mechanical (letter N).<br>The instruction <strong>M + N</strong> indicates that, in the current trial, by pressing the left key ('S') you classify the displayed object as mechanical (M) <br> and by pressing the right key ('L') you classify the object as non-mechanical (N). <br>The instruction <strong>N + M</strong> on the other hand indicates that by pressing the left key ('S') you classify the displayed object as non-mechanical (N) <br> and by pressing the right key ('L') you classify the object as mechanical (M). <br><br>Please press the key corresponding to the correct classification as fast as possible as soon as the object is displayed and try to avoid making mistakes.<br>If you do not respond within a 2 second window, a corresponding feedback will be displayed and the next trial will start.<br> The experiment is divided into multiple blocks to give you the opportunity to take a break after each block. <br>First, you can now practice this task. <br><br>Please place your <strong>LEFT INDEX FINGER</strong> on the 'S' key and your <strong>RIGHT INDEX FINGER</strong> on the 'L' key now. <br><br>Press SPACE to continue.</div>","32","","","","","","","","","","","","","","","","","","","",""
"html-keyboard-response","81","247001","0.0-2.2-1.2","abwk3tkdhzva0s6","instructions","5f21857b35103a53f50d63da","5f60e3c0a3b16e07647b2ff9","5f60eecde33e1201162d723c","false","784.0450000000128","<div align=left> You will now have time to practice this task.<br><br>Remember: <br> <br><li>Please place your index fingers on the <strong>'S'</strong> and <strong>'L'</strong> keys <br>to respond as fast and accurately as possible.</li><li>Every picture can be classified as either mechanical or non-mechanical.</li><li>If you do not respond in time or commit an error, you will receive a corresponding feedback. </li><li> Please try to respond as <strong> fast </strong> and as <strong> accurately as possible </strong> .<br><li>To ensure optimal results, please minimize distractions and stay focused. </li><br><br>Press SPACE to continue.</div>","32","","","","","","","","","","","","","","","","","","","",""
"html-keyboard-response","82","247704","0.0-2.2-2.2-0.32","abwk3tkdhzva0s6","practice_no_cue","5f21857b35103a53f50d63da","5f60e3c0a3b16e07647b2ff9","5f60eecde33e1201162d723c","false","null","<span style=""color: black; font-size: 48px"">M + N</span>","null","","","","resp_prompt","","","","","","","","","","","","","","","",""
"categorize-image","83","248914","0.0-2.2-2.2-1.32","abwk3tkdhzva0s6","practice_no_cue","5f21857b35103a53f50d63da","5f60e3c0a3b16e07647b2ff9","5f60eecde33e1201162d723c","true","702.8550000000105","./Stimuli/ImagesPractice/LN4.jpg","76","","","","test","true","M + N","76","","LN","LN4.jpg","forget","old","33","3","practice_forget","right","","","",""
"html-keyboard-response","84","249617","0.0-2.2-2.2-0.33","abwk3tkdhzva0s6","practice_no_cue","5f21857b35103a53f50d63da","5f60e3c0a3b16e07647b2ff9","5f60eecde33e1201162d723c","false","null","<span style=""color: black; font-size: 48px"">M + N</span>","null","","","","resp_prompt","","","","","","","","","","","","","","","",""
"categorize-image","85","250774","0.0-2.2-2.2-1.33","abwk3tkdhzva0s6","practice_no_cue","5f21857b35103a53f50d63da","5f60e3c0a3b16e07647b2ff9","5f60eecde33e1201162d723c","true","651.9500000000116","./Stimuli/ImagesPractice/SM37.jpg","83","","","","test","true","M + N","83","","SM","SM37.jpg","forget","old","34","3","practice_forget","left","","","",""
"html-keyboard-response","86","251478","0.0-2.2-2.2-0.34","abwk3tkdhzva0s6","practice_no_cue","5f21857b35103a53f50d63da","5f60e3c0a3b16e07647b2ff9","5f60eecde33e1201162d723c","false","null","<span style=""color: black; font-size: 48px"">M + N</span>","null","","","","resp_prompt","","","","","","","","","","","","","","","",""
"categorize-image","87","252522","0.0-2.2-2.2-1.34","abwk3tkdhzva0s6","practice_no_cue","5f21857b35103a53f50d63da","5f60e3c0a3b16e07647b2ff9","5f60eecde33e1201162d723c","true","537.6350000000093","./Stimuli/ImagesPractice/LM147.jpg","83","","","","test","true","M + N","83","","LM","LM147.jpg","remember","old","35","3","practice_forget","left","","","",""
"html-keyboard-response","88","253231","0.0-2.2-2.2-0.35","abwk3tkdhzva0s6","practice_no_cue","5f21857b35103a53f50d63da","5f60e3c0a3b16e07647b2ff9","5f60eecde33e1201162d723c","false","null","<span style=""color: black; font-size: 48px"">N + M</span>","null","","","","resp_prompt","","","","","","","","","","","","","","","",""
"categorize-image","89","254376","0.0-2.2-2.2-1.35","abwk3tkdhzva0s6","practice_no_cue","5f21857b35103a53f50d63da","5f60e3c0a3b16e07647b2ff9","5f60eecde33e1201162d723c","true","636.4850000000442","./Stimuli/ImagesPractice/SN222.jpg","76","","","","test","false","N + M","83","","SN","SN222.jpg","forget","old","36","3","practice_forget","right","","","",""
"html-keyboard-response","90","255079","0.0-2.2-2.2-0.36","abwk3tkdhzva0s6","practice_no_cue","5f21857b35103a53f50d63da","5f60e3c0a3b16e07647b2ff9","5f60eecde33e1201162d723c","false","null","<span style=""color: black; font-size: 48px"">N + M</span>","null","","","","resp_prompt","","","","","","","","","","","","","","","",""
"categorize-image","91","256428","0.0-2.2-2.2-1.36","abwk3tkdhzva0s6","practice_no_cue","5f21857b35103a53f50d63da","5f60e3c0a3b16e07647b2ff9","5f60eecde33e1201162d723c","true","843.100000000064","./Stimuli/ImagesPractice/SM62.jpg","76","","","","test","true","N + M","76","","SM","SM62.jpg","remember","old","37","3","practice_forget","right","","","",""
"html-keyboard-response","92","257131","0.0-2.2-2.2-0.37","abwk3tkdhzva0s6","practice_no_cue","5f21857b35103a53f50d63da","5f60e3c0a3b16e07647b2ff9","5f60eecde33e1201162d723c","false","null","<span style=""color: black; font-size: 48px"">M + N</span>","null","","","","resp_prompt","","","","","","","","","","","","","","","",""
"categorize-image","93","258682","0.0-2.2-2.2-1.37","abwk3tkdhzva0s6","practice_no_cue","5f21857b35103a53f50d63da","5f60e3c0a3b16e07647b2ff9","5f60eecde33e1201162d723c","true","1046.1500000000233","./Stimuli/ImagesPractice/LN15.jpg","76","","","","test","true","M + N","76","","LN","LN15.jpg","forget","old","38","3","practice_forget","right","","","",""
"html-keyboard-response","94","259384","0.0-2.2-2.2-0.38","abwk3tkdhzva0s6","practice_no_cue","5f21857b35103a53f50d63da","5f60e3c0a3b16e07647b2ff9","5f60eecde33e1201162d723c","false","null","<span style=""color: black; font-size: 48px"">N + M</span>","null","","","","resp_prompt","","","","","","","","","","","","","","","",""
"categorize-image","95","260847","0.0-2.2-2.2-1.38","abwk3tkdhzva0s6","practice_no_cue","5f21857b35103a53f50d63da","5f60e3c0a3b16e07647b2ff9","5f60eecde33e1201162d723c","true","955.7449999999662","./Stimuli/ImagesPractice/SN221.jpg","83","","","","test","true","N + M","83","","SN","SN221.jpg","remember","old","39","3","practice_forget","left","","","",""
"html-keyboard-response","96","261550","0.0-2.2-2.2-0.39","abwk3tkdhzva0s6","practice_no_cue","5f21857b35103a53f50d63da","5f60e3c0a3b16e07647b2ff9","5f60eecde33e1201162d723c","false","null","<span style=""color: black; font-size: 48px"">M + N</span>","null","","","","resp_prompt","","","","","","","","","","","","","","","",""
"categorize-image","97","262839","0.0-2.2-2.2-1.39","abwk3tkdhzva0s6","practice_no_cue","5f21857b35103a53f50d63da","5f60e3c0a3b16e07647b2ff9","5f60eecde33e1201162d723c","true","785.1849999999977","./Stimuli/ImagesPractice/LN17.jpg","76","","","","test","true","M + N","76","","LN","LN17.jpg","forget","old","40","3","practice_forget","right","","","",""
"html-keyboard-response","98","263544","0.0-2.2-2.2-0.40","abwk3tkdhzva0s6","practice_no_cue","5f21857b35103a53f50d63da","5f60e3c0a3b16e07647b2ff9","5f60eecde33e1201162d723c","false","null","<span style=""color: black; font-size: 48px"">M + N</span>","null","","","","resp_prompt","","","","","","","","","","","","","","","",""
"categorize-image","99","264762","0.0-2.2-2.2-1.40","abwk3tkdhzva0s6","practice_no_cue","5f21857b35103a53f50d63da","5f60e3c0a3b16e07647b2ff9","5f60eecde33e1201162d723c","true","711.6350000000093","./Stimuli/ImagesPractice/LM55.jpg","83","","","","test","true","M + N","83","","LM","LM55.jpg","remember","old","41","3","practice_forget","left","","","",""
"html-keyboard-response","100","265466","0.0-2.2-2.2-0.41","abwk3tkdhzva0s6","practice_no_cue","5f21857b35103a53f50d63da","5f60e3c0a3b16e07647b2ff9","5f60eecde33e1201162d723c","false","null","<span style=""color: black; font-size: 48px"">M + N</span>","null","","","","resp_prompt","","","","","","","","","","","","","","","",""
"categorize-image","101","266522","0.0-2.2-2.2-1.41","abwk3tkdhzva0s6","practice_no_cue","5f21857b35103a53f50d63da","5f60e3c0a3b16e07647b2ff9","5f60eecde33e1201162d723c","true","549.8750000000582","./Stimuli/ImagesPractice/LM230.jpg","83","","","","test","true","M + N","83","","LM","LM230.jpg","remember","old","42","3","practice_forget","left","","","",""
"html-keyboard-response","102","267227","0.0-2.2-2.2-0.42","abwk3tkdhzva0s6","practice_no_cue","5f21857b35103a53f50d63da","5f60e3c0a3b16e07647b2ff9","5f60eecde33e1201162d723c","false","null","<span style=""color: black; font-size: 48px"">N + M</span>","null","","","","resp_prompt","","","","","","","","","","","","","","","",""
"categorize-image","103","268574","0.0-2.2-2.2-1.42","abwk3tkdhzva0s6","practice_no_cue","5f21857b35103a53f50d63da","5f60e3c0a3b16e07647b2ff9","5f60eecde33e1201162d723c","true","841.4850000000442","./Stimuli/ImagesPractice/SM35.jpg","83","","","","test","false","N + M","76","","SM","SM35.jpg","forget","old","43","3","practice_forget","left","","","",""
"html-keyboard-response","104","269278","0.0-2.2-2.2-0.43","abwk3tkdhzva0s6","practice_no_cue","5f21857b35103a53f50d63da","5f60e3c0a3b16e07647b2ff9","5f60eecde33e1201162d723c","false","null","<span style=""color: black; font-size: 48px"">N + M</span>","null","","","","resp_prompt","","","","","","","","","","","","","","","",""
"categorize-image","105","270456","0.0-2.2-2.2-1.43","abwk3tkdhzva0s6","practice_no_cue","5f21857b35103a53f50d63da","5f60e3c0a3b16e07647b2ff9","5f60eecde33e1201162d723c","true","672.4500000000116","./Stimuli/ImagesPractice/SN205.jpg","83","","","","test","true","N + M","83","","SN","SN205.jpg","forget","old","44","3","practice_forget","left","","","",""
"html-keyboard-response","106","271162","0.0-2.2-2.2-0.44","abwk3tkdhzva0s6","practice_no_cue","5f21857b35103a53f50d63da","5f60e3c0a3b16e07647b2ff9","5f60eecde33e1201162d723c","false","null","<span style=""color: black; font-size: 48px"">M + N</span>","null","","","","resp_prompt","","","","","","","","","","","","","","","",""
"categorize-image","107","272578","0.0-2.2-2.2-1.44","abwk3tkdhzva0s6","practice_no_cue","5f21857b35103a53f50d63da","5f60e3c0a3b16e07647b2ff9","5f60eecde33e1201162d723c","true","911.4550000000163","./Stimuli/ImagesPractice/SN76.jpg","76","","","","test","true","M + N","76","","SN","SN76.jpg","remember","old","45","3","practice_forget","right","","","",""
"html-keyboard-response","108","273281","0.0-2.2-2.2-0.45","abwk3tkdhzva0s6","practice_no_cue","5f21857b35103a53f50d63da","5f60e3c0a3b16e07647b2ff9","5f60eecde33e1201162d723c","false","null","<span style=""color: black; font-size: 48px"">N + M</span>","null","","","","resp_prompt","","","","","","","","","","","","","","","",""
"categorize-image","109","274837","0.0-2.2-2.2-1.45","abwk3tkdhzva0s6","practice_no_cue","5f21857b35103a53f50d63da","5f60e3c0a3b16e07647b2ff9","5f60eecde33e1201162d723c","true","1049.8750000000582","./Stimuli/ImagesPractice/LN2.jpg","76","","","","test","false","N + M","83","","LN","LN2.jpg","remember","old","46","3","practice_forget","right","","","",""
"html-keyboard-response","110","275539","0.0-2.2-2.2-0.46","abwk3tkdhzva0s6","practice_no_cue","5f21857b35103a53f50d63da","5f60e3c0a3b16e07647b2ff9","5f60eecde33e1201162d723c","false","null","<span style=""color: black; font-size: 48px"">N + M</span>","null","","","","resp_prompt","","","","","","","","","","","","","","","",""
"categorize-image","111","277074","0.0-2.2-2.2-1.46","abwk3tkdhzva0s6","practice_no_cue","5f21857b35103a53f50d63da","5f60e3c0a3b16e07647b2ff9","5f60eecde33e1201162d723c","true","1029.0499999999884","./Stimuli/ImagesPractice/SN75.jpg","76","","","","test","false","N + M","83","","SN","SN75.jpg","remember","old","47","3","practice_forget","right","","","",""
"html-keyboard-response","112","277779","0.0-2.2-2.2-0.47","abwk3tkdhzva0s6","practice_no_cue","5f21857b35103a53f50d63da","5f60e3c0a3b16e07647b2ff9","5f60eecde33e1201162d723c","false","null","<span style=""color: black; font-size: 48px"">N + M</span>","null","","","","resp_prompt","","","","","","","","","","","","","","","",""
"categorize-image","113","279075","0.0-2.2-2.2-1.47","abwk3tkdhzva0s6","practice_no_cue","5f21857b35103a53f50d63da","5f60e3c0a3b16e07647b2ff9","5f60eecde33e1201162d723c","true","791.3349999999627","./Stimuli/ImagesPractice/LM239.jpg","76","","","","test","true","N + M","76","","LM","LM239.jpg","forget","old","48","3","practice_forget","right","","","",""
"html-keyboard-response","114","282809","0.0-2.2-3.2","abwk3tkdhzva0s6","break","5f21857b35103a53f50d63da","5f60e3c0a3b16e07647b2ff9","5f60eecde33e1201162d723c","false","3730.655000000086","<p style='font-size: 32px;'>Break</><br><br><br><br><br><p style='font-size: 24px;'>In the last block, you committed 4 errors and did not respond in time on 0 trials.
</p><p style='font-size: 24px;'>Try to respond as fast and accurately as possible in the next block as well! </p><p style='font-size: 24px;'>Press SPACE to continue.</p>","32","","","","","","","","","","","","","","","","","","","",""
"html-keyboard-response","115","284043","0.0-2.2-4.2","abwk3tkdhzva0s6","instructions","5f21857b35103a53f50d63da","5f60e3c0a3b16e07647b2ff9","5f60eecde33e1201162d723c","false","1229.935000000114","<div align=left> Great!<br><br>Are you ready to continue?<br><br>If you want to reread the instructions and redo the practice trials, <br>please press „Z“. <br><br>Press SPACE to CONTINUE with the experiment when you are ready. </div>","90","","","","","","","","","","","","","","","","","","","",""
"html-keyboard-response","116","284813","0.0-2.3-0.3","abwk3tkdhzva0s6","instructions","5f21857b35103a53f50d63da","5f60e3c0a3b16e07647b2ff9","5f60eecde33e1201162d723c","false","766.9999999999418","<div align=justify>You will classify the objects using the <strong>'S'</strong> and the <strong>'L'</strong> keys on your keyboard.<br>For doing so, please place your <strong>left index finger</strong> on the <strong>'S'</strong> key and place your <strong>right index finger</strong> on the <strong>'L'</strong> key. <br><br> Each trial starts with an instruction, indicating which key ('S'/'L') you need to press to classify <br>the object as mechanical (letter M) or non-mechanical (letter N).<br>The instruction <strong>M + N</strong> indicates that, in the current trial, by pressing the left key ('S') you classify the displayed object as mechanical (M) <br> and by pressing the right key ('L') you classify the object as non-mechanical (N). <br>The instruction <strong>N + M</strong> on the other hand indicates that by pressing the left key ('S') you classify the displayed object as non-mechanical (N) <br> and by pressing the right key ('L') you classify the object as mechanical (M). <br><br>Please press the key corresponding to the correct classification as fast as possible as soon as the object is displayed and try to avoid making mistakes.<br>If you do not respond within a 2 second window, a corresponding feedback will be displayed and the next trial will start.<br> The experiment is divided into multiple blocks to give you the opportunity to take a break after each block. <br>First, you can now practice this task. <br><br>Please place your <strong>LEFT INDEX FINGER</strong> on the 'S' key and your <strong>RIGHT INDEX FINGER</strong> on the 'L' key now. <br><br>Press SPACE to continue.</div>","32","","","","","","","","","","","","","","","","","","","",""
"html-keyboard-response","117","285626","0.0-2.3-1.3","abwk3tkdhzva0s6","instructions","5f21857b35103a53f50d63da","5f60e3c0a3b16e07647b2ff9","5f60eecde33e1201162d723c","false","810.3449999999721","<div align=left> You will now have time to practice this task.<br><br>Remember: <br> <br><li>Please place your index fingers on the <strong>'S'</strong> and <strong>'L'</strong> keys <br>to respond as fast and accurately as possible.</li><li>Every picture can be classified as either mechanical or non-mechanical.</li><li>If you do not respond in time or commit an error, you will receive a corresponding feedback. </li><li> Please try to respond as <strong> fast </strong> and as <strong> accurately as possible </strong> .<br><li>To ensure optimal results, please minimize distractions and stay focused. </li><br><br>Press SPACE to continue.</div>","32","","","","","","","","","","","","","","","","","","","",""
"html-keyboard-response","118","286329","0.0-2.3-2.3-0.48","abwk3tkdhzva0s6","practice_no_cue","5f21857b35103a53f50d63da","5f60e3c0a3b16e07647b2ff9","5f60eecde33e1201162d723c","false","null","<span style=""color: black; font-size: 48px"">N + M</span>","null","","","","resp_prompt","","","","","","","","","","","","","","","",""
"categorize-image","119","287596","0.0-2.3-2.3-1.48","abwk3tkdhzva0s6","practice_no_cue","5f21857b35103a53f50d63da","5f60e3c0a3b16e07647b2ff9","5f60eecde33e1201162d723c","true","760.6849999999977","./Stimuli/ImagesPractice/LM239.jpg","76","","","","test","true","N + M","76","","LM","LM239.jpg","forget","old","49","4","practice_forget","right","","","",""
"html-keyboard-response","120","288299","0.0-2.3-2.3-0.49","abwk3tkdhzva0s6","practice_no_cue","5f21857b35103a53f50d63da","5f60e3c0a3b16e07647b2ff9","5f60eecde33e1201162d723c","false","null","<span style=""color: black; font-size: 48px"">N + M</span>","null","","","","resp_prompt","","","","","","","","","","","","","","","",""
"categorize-image","121","289482","0.0-2.3-2.3-1.49","abwk3tkdhzva0s6","practice_no_cue","5f21857b35103a53f50d63da","5f60e3c0a3b16e07647b2ff9","5f60eecde33e1201162d723c","true","678.5599999999395","./Stimuli/ImagesPractice/SN205.jpg","83","","","","test","true","N + M","83","","SN","SN205.jpg","forget","old","50","4","practice_forget","left","","","",""
"html-keyboard-response","122","290186","0.0-2.3-2.3-0.50","abwk3tkdhzva0s6","practice_no_cue","5f21857b35103a53f50d63da","5f60e3c0a3b16e07647b2ff9","5f60eecde33e1201162d723c","false","null","<span style=""color: black; font-size: 48px"">N + M</span>","null","","","","resp_prompt","","","","","","","","","","","","","","","",""
"categorize-image","123","291618","0.0-2.3-2.3-1.50","abwk3tkdhzva0s6","practice_no_cue","5f21857b35103a53f50d63da","5f60e3c0a3b16e07647b2ff9","5f60eecde33e1201162d723c","true","925.460000000021","./Stimuli/ImagesPractice/SN75.jpg","83","","","","test","true","N + M","83","","SN","SN75.jpg","remember","old","51","4","practice_forget","left","","","",""
"html-keyboard-response","124","292322","0.0-2.3-2.3-0.51","abwk3tkdhzva0s6","practice_no_cue","5f21857b35103a53f50d63da","5f60e3c0a3b16e07647b2ff9","5f60eecde33e1201162d723c","false","null","<span style=""color: black; font-size: 48px"">M + N</span>","null","","","","resp_prompt","","","","","","","","","","","","","","","",""
"categorize-image","125","293589","0.0-2.3-2.3-1.51","abwk3tkdhzva0s6","practice_no_cue","5f21857b35103a53f50d63da","5f60e3c0a3b16e07647b2ff9","5f60eecde33e1201162d723c","true","760.5899999999674","./Stimuli/ImagesPractice/LN15.jpg","76","","","","test","true","M + N","76","","LN","LN15.jpg","forget","old","52","4","practice_forget","right","","","",""
"html-keyboard-response","126","294292","0.0-2.3-2.3-0.52","abwk3tkdhzva0s6","practice_no_cue","5f21857b35103a53f50d63da","5f60e3c0a3b16e07647b2ff9","5f60eecde33e1201162d723c","false","null","<span style=""color: black; font-size: 48px"">M + N</span>","null","","","","resp_prompt","","","","","","","","","","","","","","","",""
"categorize-image","127","295648","0.0-2.3-2.3-1.52","abwk3tkdhzva0s6","practice_no_cue","5f21857b35103a53f50d63da","5f60e3c0a3b16e07647b2ff9","5f60eecde33e1201162d723c","true","851.5949999999721","./Stimuli/ImagesPractice/LM230.jpg","83","","","","test","true","M + N","83","","LM","LM230.jpg","remember","old","53","4","practice_forget","left","","","",""
"html-keyboard-response","128","296351","0.0-2.3-2.3-0.53","abwk3tkdhzva0s6","practice_no_cue","5f21857b35103a53f50d63da","5f60e3c0a3b16e07647b2ff9","5f60eecde33e1201162d723c","false","null","<span style=""color: black; font-size: 48px"">M + N</span>","null","","","","resp_prompt","","","","","","","","","","","","","","","",""
"categorize-image","129","297465","0.0-2.3-2.3-1.53","abwk3tkdhzva0s6","practice_no_cue","5f21857b35103a53f50d63da","5f60e3c0a3b16e07647b2ff9","5f60eecde33e1201162d723c","true","606.5949999999721","./Stimuli/ImagesPractice/LM147.jpg","83","","","","test","true","M + N","83","","LM","LM147.jpg","remember","old","54","4","practice_forget","left","","","",""
"html-keyboard-response","130","298169","0.0-2.3-2.3-0.54","abwk3tkdhzva0s6","practice_no_cue","5f21857b35103a53f50d63da","5f60e3c0a3b16e07647b2ff9","5f60eecde33e1201162d723c","false","null","<span style=""color: black; font-size: 48px"">N + M</span>","null","","","","resp_prompt","","","","","","","","","","","","","","","",""
"categorize-image","131","299376","0.0-2.3-2.3-1.54","abwk3tkdhzva0s6","practice_no_cue","5f21857b35103a53f50d63da","5f60e3c0a3b16e07647b2ff9","5f60eecde33e1201162d723c","true","700.3950000000768","./Stimuli/ImagesPractice/SM62.jpg","76","","","","test","true","N + M","76","","SM","SM62.jpg","remember","old","55","4","practice_forget","right","","","",""
"html-keyboard-response","132","300081","0.0-2.3-2.3-0.55","abwk3tkdhzva0s6","practice_no_cue","5f21857b35103a53f50d63da","5f60e3c0a3b16e07647b2ff9","5f60eecde33e1201162d723c","false","null","<span style=""color: black; font-size: 48px"">N + M</span>","null","","","","resp_prompt","","","","","","","","","","","","","","","",""
"categorize-image","133","301351","0.0-2.3-2.3-1.55","abwk3tkdhzva0s6","practice_no_cue","5f21857b35103a53f50d63da","5f60e3c0a3b16e07647b2ff9","5f60eecde33e1201162d723c","true","763.9649999999674","./Stimuli/ImagesPractice/SN221.jpg","83","","","","test","true","N + M","83","","SN","SN221.jpg","remember","old","56","4","practice_forget","left","","","",""
"html-keyboard-response","134","302055","0.0-2.3-2.3-0.56","abwk3tkdhzva0s6","practice_no_cue","5f21857b35103a53f50d63da","5f60e3c0a3b16e07647b2ff9","5f60eecde33e1201162d723c","false","null","<span style=""color: black; font-size: 48px"">M + N</span>","null","","","","resp_prompt","","","","","","","","","","","","","","","",""
"categorize-image","135","303608","0.0-2.3-2.3-1.56","abwk3tkdhzva0s6","practice_no_cue","5f21857b35103a53f50d63da","5f60e3c0a3b16e07647b2ff9","5f60eecde33e1201162d723c","true","1046.2249999999185","./Stimuli/ImagesPractice/LN17.jpg","76","","","","test","true","M + N","76","","LN","LN17.jpg","forget","old","57","4","practice_forget","right","","","",""
"html-keyboard-response","136","304311","0.0-2.3-2.3-0.57","abwk3tkdhzva0s6","practice_no_cue","5f21857b35103a53f50d63da","5f60e3c0a3b16e07647b2ff9","5f60eecde33e1201162d723c","false","null","<span style=""color: black; font-size: 48px"">M + N</span>","null","","","","resp_prompt","","","","","","","","","","","","","","","",""
"categorize-image","137","305530","0.0-2.3-2.3-1.57","abwk3tkdhzva0s6","practice_no_cue","5f21857b35103a53f50d63da","5f60e3c0a3b16e07647b2ff9","5f60eecde33e1201162d723c","true","713.4899999999907","./Stimuli/ImagesPractice/LN4.jpg","76","","","","test","true","M + N","76","","LN","LN4.jpg","forget","old","58","4","practice_forget","right","","","",""
"html-keyboard-response","138","306234","0.0-2.3-2.3-0.58","abwk3tkdhzva0s6","practice_no_cue","5f21857b35103a53f50d63da","5f60e3c0a3b16e07647b2ff9","5f60eecde33e1201162d723c","false","null","<span style=""color: black; font-size: 48px"">N + M</span>","null","","","","resp_prompt","","","","","","","","","","","","","","","",""
"categorize-image","139","307716","0.0-2.3-2.3-1.58","abwk3tkdhzva0s6","practice_no_cue","5f21857b35103a53f50d63da","5f60e3c0a3b16e07647b2ff9","5f60eecde33e1201162d723c","true","975.4949999999953","./Stimuli/ImagesPractice/LN2.jpg","83","","","","test","true","N + M","83","","LN","LN2.jpg","remember","old","59","4","practice_forget","left","","","",""
"html-keyboard-response","140","308421","0.0-2.3-2.3-0.59","abwk3tkdhzva0s6","practice_no_cue","5f21857b35103a53f50d63da","5f60e3c0a3b16e07647b2ff9","5f60eecde33e1201162d723c","false","null","<span style=""color: black; font-size: 48px"">N + M</span>","null","","","","resp_prompt","","","","","","","","","","","","","","","",""
"categorize-image","141","309581","0.0-2.3-2.3-1.59","abwk3tkdhzva0s6","practice_no_cue","5f21857b35103a53f50d63da","5f60e3c0a3b16e07647b2ff9","5f60eecde33e1201162d723c","true","655.9999999999418","./Stimuli/ImagesPractice/SN222.jpg","83","","","","test","true","N + M","83","","SN","SN222.jpg","forget","old","60","4","practice_forget","left","","","",""
"html-keyboard-response","142","310287","0.0-2.3-2.3-0.60","abwk3tkdhzva0s6","practice_no_cue","5f21857b35103a53f50d63da","5f60e3c0a3b16e07647b2ff9","5f60eecde33e1201162d723c","false","null","<span style=""color: black; font-size: 48px"">N + M</span>","null","","","","resp_prompt","","","","","","","","","","","","","","","",""
"categorize-image","143","311382","0.0-2.3-2.3-1.60","abwk3tkdhzva0s6","practice_no_cue","5f21857b35103a53f50d63da","5f60e3c0a3b16e07647b2ff9","5f60eecde33e1201162d723c","true","590.3850000001257","./Stimuli/ImagesPractice/SM35.jpg","76","","","","test","true","N + M","76","","SM","SM35.jpg","forget","old","61","4","practice_forget","right","","","",""
"html-keyboard-response","144","312086","0.0-2.3-2.3-0.61","abwk3tkdhzva0s6","practice_no_cue","5f21857b35103a53f50d63da","5f60e3c0a3b16e07647b2ff9","5f60eecde33e1201162d723c","false","null","<span style=""color: black; font-size: 48px"">M + N</span>","null","","","","resp_prompt","","","","","","","","","","","","","","","",""
"categorize-image","145","313513","0.0-2.3-2.3-1.61","abwk3tkdhzva0s6","practice_no_cue","5f21857b35103a53f50d63da","5f60e3c0a3b16e07647b2ff9","5f60eecde33e1201162d723c","true","921.9550000000163","./Stimuli/ImagesPractice/LM55.jpg","83","","","","test","true","M + N","83","","LM","LM55.jpg","remember","old","62","4","practice_forget","left","","","",""
"html-keyboard-response","146","314217","0.0-2.3-2.3-0.62","abwk3tkdhzva0s6","practice_no_cue","5f21857b35103a53f50d63da","5f60e3c0a3b16e07647b2ff9","5f60eecde33e1201162d723c","false","null","<span style=""color: black; font-size: 48px"">M + N</span>","null","","","","resp_prompt","","","","","","","","","","","","","","","",""
"categorize-image","147","315565","0.0-2.3-2.3-1.62","abwk3tkdhzva0s6","practice_no_cue","5f21857b35103a53f50d63da","5f60e3c0a3b16e07647b2ff9","5f60eecde33e1201162d723c","true","840.6300000000047","./Stimuli/ImagesPractice/SN76.jpg","76","","","","test","true","M + N","76","","SN","SN76.jpg","remember","old","63","4","practice_forget","right","","","",""
"html-keyboard-response","148","316269","0.0-2.3-2.3-0.63","abwk3tkdhzva0s6","practice_no_cue","5f21857b35103a53f50d63da","5f60e3c0a3b16e07647b2ff9","5f60eecde33e1201162d723c","false","null","<span style=""color: black; font-size: 48px"">M + N</span>","null","","","","resp_prompt","","","","","","","","","","","","","","","",""
"categorize-image","149","317483","0.0-2.3-2.3-1.63","abwk3tkdhzva0s6","practice_no_cue","5f21857b35103a53f50d63da","5f60e3c0a3b16e07647b2ff9","5f60eecde33e1201162d723c","true","706.3100000000559","./Stimuli/ImagesPractice/SM37.jpg","83","","","","test","true","M + N","83","","SM","SM37.jpg","forget","old","64","4","practice_forget","left","","","",""
"html-keyboard-response","150","318760","0.0-2.3-3.3","abwk3tkdhzva0s6","break","5f21857b35103a53f50d63da","5f60e3c0a3b16e07647b2ff9","5f60eecde33e1201162d723c","false","1269.2450000000536","<p style='font-size: 32px;'>Break</><br><br><br><br><br><p style='font-size: 24px;'>In the last block, you committed 0 errors and did not respond in time on 0 trials.
</p><p style='font-size: 24px;'>Try to respond as fast and accurately as possible in the next block as well! </p><p style='font-size: 24px;'>Press SPACE to continue.</p>","32","","","","","","","","","","","","","","","","","","","",""
"html-keyboard-response","151","319980","0.0-2.3-4.3","abwk3tkdhzva0s6","instructions","5f21857b35103a53f50d63da","5f60e3c0a3b16e07647b2ff9","5f60eecde33e1201162d723c","false","1217.4599999999627","<div align=left> Great!<br><br>Are you ready to continue?<br><br>If you want to reread the instructions and redo the practice trials, <br>please press „Z“. <br><br>Press SPACE to CONTINUE with the experiment when you are ready. </div>","32","","","","","","","","","","","","","","","","","","","",""
"html-keyboard-response","152","356324","0.0-3.0-0.0","abwk3tkdhzva0s6","instructions","5f21857b35103a53f50d63da","5f60e3c0a3b16e07647b2ff9","5f60eecde33e1201162d723c","false","36341.570000000065","<div align=left>Great!<br> <strong>Attention</strong>! You will now receive a second, additional task! <br><br>To this point it was you <strong>first task</strong> to correctly <strong>classify objects</strong>. <br><br>As mentioned in the beginning, we aim to examine how well humans can remember previously learned information.<br>We would like to find out whether our memory improves if we only remember information that is relevant to us. <br><br>Therefore, your <strong>second task</strong> will be to <strong>remember</strong> the pictures you are to categorize. <br> After the learning phase, there will be a memory test phase, in which you will be asked to indicate whether you have seen a picture before or not. <br>Some, but not all pictures shown in the learning phase will appear in the memory test phase.<br>After classifying a picture, you will be told whether you should remember it for the memory test phase or not. <br>Thus, some pictures can be forgotten, whereas others have to be remembered. <br><br>Note: From now on, feedback will only be displayed if you responded incorrectly or not in time.<br><br>Press SPACE to continue.</div>","32","","","","","","","","","","","","","","","","","","","",""
"html-keyboard-response","153","376074","0.0-3.0-1.0","abwk3tkdhzva0s6","instructions","5f21857b35103a53f50d63da","5f60e3c0a3b16e07647b2ff9","5f60eecde33e1201162d723c","false","19746.41000000009","<div align=left>In the following part, you will thus have to remember only some pictures. <br>Immediately after seeing and classifying the picture, a symbol will be displayed, indicating whether you should remember or forget the previous picture. <br><br>A <span style='color: dodgerblue; font-size: 28px'>O</span> indicates REMEMBER. That means, you have to remember this picture, because it will be tested later. <br><br>A <span style='color: darkorange; font-size:28px'>Ø</span> indicates FORGET. You do not have to remember this picture. <br><br> As you will have to remember a lot of pictures, it will be hard for you to remember all of them. <br>It will put you at an advantage if you instantly forget the pictures you are not asked to remember. <br> This will make it easier for you to remember the pictures that will be tested afterwards. <br><br>Press SPACE to continue.</div>","32","","","","","","","","","","","","","","","","","","","",""
"html-keyboard-response","154","384752","0.0-3.0-2.0","abwk3tkdhzva0s6","instructions","5f21857b35103a53f50d63da","5f60e3c0a3b16e07647b2ff9","5f60eecde33e1201162d723c","false","8674.440000000002","<div align=left> Now you have the chance to practice both tasks together.<br><br>Remember: <br> <br><li>Please place your index fingers on the <strong>'S'</strong> and <strong>'L'</strong> keys <br>to respond as fast and accurately as possible.</li><li>Every picture can be classified as either mechanical or non-mechanical.</li><li>If you do not respond in time or commit an error, you will receive a corresponding feedback. <br>Please try to respond as <strong> fast </strong> and as <strong> accurately as possible </strong>.</li><li> Please remember only the to-be-remembered <span style='color: dodgerblue; font-size: 28px'>O</span> pictures. <br></li><li> Please minimize distractions and stay focused. </li><br><br>Press SPACE to START</div>","32","","","","","","","","","","","","","","","","","","","",""
"html-keyboard-response","155","385456","0.0-3.0-3.0-0.0","abwk3tkdhzva0s6","practice_cue","5f21857b35103a53f50d63da","5f60e3c0a3b16e07647b2ff9","5f60eecde33e1201162d723c","false","null","<span style=""color: black; font-size: 48px"">M + N</span>","null","","","","resp_prompt","","","","","","","","","","","","","","","",""
"categorize-image","156","386157","0.0-3.0-3.0-1.0","abwk3tkdhzva0s6","practice_cue","5f21857b35103a53f50d63da","5f60e3c0a3b16e07647b2ff9","5f60eecde33e1201162d723c","true","690.054999999993","./Stimuli/ImagesPractice/LM55.jpg","83","","","","test","true","M + N","83","","LM","LM55.jpg","remember","old","65","5","practice_forget","left","","","",""
"html-keyboard-response","157","388165","0.0-3.0-3.0-3.0","abwk3tkdhzva0s6","practice_cue","5f21857b35103a53f50d63da","5f60e3c0a3b16e07647b2ff9","5f60eecde33e1201162d723c","false","null","<div style=""align-items: center; display: flex; color: dodgerblue; font-size: 90px""><b>o</b></div>","null","","","","forget_cue","","","","","","","","","","","","","","","",""
"html-keyboard-response","158","388869","0.0-3.0-3.0-0.1","abwk3tkdhzva0s6","practice_cue","5f21857b35103a53f50d63da","5f60e3c0a3b16e07647b2ff9","5f60eecde33e1201162d723c","false","null","<span style=""color: black; font-size: 48px"">N + M</span>","null","","","","resp_prompt","","","","","","","","","","","","","","","",""
"categorize-image","159","390734","0.0-3.0-3.0-1.1","abwk3tkdhzva0s6","practice_cue","5f21857b35103a53f50d63da","5f60e3c0a3b16e07647b2ff9","5f60eecde33e1201162d723c","true","1857.9400000000023","./Stimuli/ImagesPractice/SN222.jpg","83","","","","test","true","N + M","83","","SN","SN222.jpg","forget","old","66","5","practice_forget","left","","","",""
"html-keyboard-response","160","392738","0.0-3.0-3.0-3.1","abwk3tkdhzva0s6","practice_cue","5f21857b35103a53f50d63da","5f60e3c0a3b16e07647b2ff9","5f60eecde33e1201162d723c","false","null","<div style=""align-items: center; display: flex; color: darkorange; font-size: 90px""><b>ø</b></div>","null","","","","forget_cue","","","","","","","","","","","","","","","",""
"html-keyboard-response","161","393442","0.0-3.0-3.0-0.2","abwk3tkdhzva0s6","practice_cue","5f21857b35103a53f50d63da","5f60e3c0a3b16e07647b2ff9","5f60eecde33e1201162d723c","false","null","<span style=""color: black; font-size: 48px"">N + M</span>","null","","","","resp_prompt","","","","","","","","","","","","","","","",""
"categorize-image","162","394668","0.0-3.0-3.0-1.2","abwk3tkdhzva0s6","practice_cue","5f21857b35103a53f50d63da","5f60e3c0a3b16e07647b2ff9","5f60eecde33e1201162d723c","true","1217.1200000000536","./Stimuli/ImagesPractice/SN205.jpg","83","","","","test","true","N + M","83","","SN","SN205.jpg","forget","old","67","5","practice_forget","left","","","",""
"html-keyboard-response","163","396672","0.0-3.0-3.0-3.2","abwk3tkdhzva0s6","practice_cue","5f21857b35103a53f50d63da","5f60e3c0a3b16e07647b2ff9","5f60eecde33e1201162d723c","false","null","<div style=""align-items: center; display: flex; color: darkorange; font-size: 90px""><b>ø</b></div>","null","","","","forget_cue","","","","","","","","","","","","","","","",""
"html-keyboard-response","164","397376","0.0-3.0-3.0-0.3","abwk3tkdhzva0s6","practice_cue","5f21857b35103a53f50d63da","5f60e3c0a3b16e07647b2ff9","5f60eecde33e1201162d723c","false","null","<span style=""color: black; font-size: 48px"">M + N</span>","null","","","","resp_prompt","","","","","","","","","","","","","","","",""
"categorize-image","165","398066","0.0-3.0-3.0-1.3","abwk3tkdhzva0s6","practice_cue","5f21857b35103a53f50d63da","5f60e3c0a3b16e07647b2ff9","5f60eecde33e1201162d723c","true","680.039999999979","./Stimuli/ImagesPractice/SN76.jpg","76","","","","test","true","M + N","76","","SN","SN76.jpg","remember","old","68","5","practice_forget","right","","","",""
"html-keyboard-response","166","400072","0.0-3.0-3.0-3.3","abwk3tkdhzva0s6","practice_cue","5f21857b35103a53f50d63da","5f60e3c0a3b16e07647b2ff9","5f60eecde33e1201162d723c","false","null","<div style=""align-items: center; display: flex; color: dodgerblue; font-size: 90px""><b>o</b></div>","null","","","","forget_cue","","","","","","","","","","","","","","","",""
"html-keyboard-response","167","400778","0.0-3.0-3.0-0.4","abwk3tkdhzva0s6","practice_cue","5f21857b35103a53f50d63da","5f60e3c0a3b16e07647b2ff9","5f60eecde33e1201162d723c","false","null","<span style=""color: black; font-size: 48px"">N + M</span>","null","","","","resp_prompt","","","","","","","","","","","","","","","",""
"categorize-image","168","401967","0.0-3.0-3.0-1.4","abwk3tkdhzva0s6","practice_cue","5f21857b35103a53f50d63da","5f60e3c0a3b16e07647b2ff9","5f60eecde33e1201162d723c","true","1178.8549999999814","./Stimuli/ImagesPractice/SN75.jpg","83","","","","test","true","N + M","83","","SN","SN75.jpg","remember","old","69","5","practice_forget","left","","","",""
"html-keyboard-response","169","403970","0.0-3.0-3.0-3.4","abwk3tkdhzva0s6","practice_cue","5f21857b35103a53f50d63da","5f60e3c0a3b16e07647b2ff9","5f60eecde33e1201162d723c","false","null","<div style=""align-items: center; display: flex; color: dodgerblue; font-size: 90px""><b>o</b></div>","null","","","","forget_cue","","","","","","","","","","","","","","","",""
"html-keyboard-response","170","404674","0.0-3.0-3.0-0.5","abwk3tkdhzva0s6","practice_cue","5f21857b35103a53f50d63da","5f60e3c0a3b16e07647b2ff9","5f60eecde33e1201162d723c","false","null","<span style=""color: black; font-size: 48px"">M + N</span>","null","","","","resp_prompt","","","","","","","","","","","","","","","",""
"categorize-image","171","405628","0.0-3.0-3.0-1.5","abwk3tkdhzva0s6","practice_cue","5f21857b35103a53f50d63da","5f60e3c0a3b16e07647b2ff9","5f60eecde33e1201162d723c","true","946.4950000000536","./Stimuli/ImagesPractice/LN17.jpg","76","","","","test","true","M + N","76","","LN","LN17.jpg","forget","old","70","5","practice_forget","right","","","",""
"html-keyboard-response","172","407632","0.0-3.0-3.0-3.5","abwk3tkdhzva0s6","practice_cue","5f21857b35103a53f50d63da","5f60e3c0a3b16e07647b2ff9","5f60eecde33e1201162d723c","false","null","<div style=""align-items: center; display: flex; color: darkorange; font-size: 90px""><b>ø</b></div>","null","","","","forget_cue","","","","","","","","","","","","","","","",""
"html-keyboard-response","173","408337","0.0-3.0-3.0-0.6","abwk3tkdhzva0s6","practice_cue","5f21857b35103a53f50d63da","5f60e3c0a3b16e07647b2ff9","5f60eecde33e1201162d723c","false","null","<span style=""color: black; font-size: 48px"">M + N</span>","null","","","","resp_prompt","","","","","","","","","","","","","","","",""
"categorize-image","174","409195","0.0-3.0-3.0-1.6","abwk3tkdhzva0s6","practice_cue","5f21857b35103a53f50d63da","5f60e3c0a3b16e07647b2ff9","5f60eecde33e1201162d723c","true","846.2950000000419","./Stimuli/ImagesPractice/LM230.jpg","83","","","","test","true","M + N","83","","LM","LM230.jpg","remember","old","71","5","practice_forget","left","","","",""
"html-keyboard-response","175","411198","0.0-3.0-3.0-3.6","abwk3tkdhzva0s6","practice_cue","5f21857b35103a53f50d63da","5f60e3c0a3b16e07647b2ff9","5f60eecde33e1201162d723c","false","null","<div style=""align-items: center; display: flex; color: dodgerblue; font-size: 90px""><b>o</b></div>","null","","","","forget_cue","","","","","","","","","","","","","","","",""
"html-keyboard-response","176","411901","0.0-3.0-3.0-0.7","abwk3tkdhzva0s6","practice_cue","5f21857b35103a53f50d63da","5f60e3c0a3b16e07647b2ff9","5f60eecde33e1201162d723c","false","null","<span style=""color: black; font-size: 48px"">N + M</span>","null","","","","resp_prompt","","","","","","","","","","","","","","","",""
"categorize-image","177","412701","0.0-3.0-3.0-1.7","abwk3tkdhzva0s6","practice_cue","5f21857b35103a53f50d63da","5f60e3c0a3b16e07647b2ff9","5f60eecde33e1201162d723c","true","795.1499999999651","./Stimuli/ImagesPractice/SM62.jpg","83","","","","test","false","N + M","76","","SM","SM62.jpg","remember","old","72","5","practice_forget","left","","","",""
"html-keyboard-response","178","413205","0.0-3.0-3.0-2.7-0.7","abwk3tkdhzva0s6","practice_cue","5f21857b35103a53f50d63da","5f60e3c0a3b16e07647b2ff9","5f60eecde33e1201162d723c","false","null","<span style=""color: red; font-size: 48px"">Error!</span>","null","","","","feedback","","","","","","","","","","","","","","","",""
"html-keyboard-response","179","415209","0.0-3.0-3.0-3.7","abwk3tkdhzva0s6","practice_cue","5f21857b35103a53f50d63da","5f60e3c0a3b16e07647b2ff9","5f60eecde33e1201162d723c","false","null","<div style=""align-items: center; display: flex; color: dodgerblue; font-size: 90px""><b>o</b></div>","null","","","","forget_cue","","","","","","","","","","","","","","","",""
"html-keyboard-response","180","415912","0.0-3.0-3.0-0.8","abwk3tkdhzva0s6","practice_cue","5f21857b35103a53f50d63da","5f60e3c0a3b16e07647b2ff9","5f60eecde33e1201162d723c","false","null","<span style=""color: black; font-size: 48px"">M + N</span>","null","","","","resp_prompt","","","","","","","","","","","","","","","",""
"categorize-image","181","416613","0.0-3.0-3.0-1.8","abwk3tkdhzva0s6","practice_cue","5f21857b35103a53f50d63da","5f60e3c0a3b16e07647b2ff9","5f60eecde33e1201162d723c","true","696.7449999999953","./Stimuli/ImagesPractice/LN15.jpg","76","","","","test","true","M + N","76","","LN","LN15.jpg","forget","old","73","5","practice_forget","right","","","",""
"html-keyboard-response","182","418615","0.0-3.0-3.0-3.8","abwk3tkdhzva0s6","practice_cue","5f21857b35103a53f50d63da","5f60e3c0a3b16e07647b2ff9","5f60eecde33e1201162d723c","false","null","<div style=""align-items: center; display: flex; color: darkorange; font-size: 90px""><b>ø</b></div>","null","","","","forget_cue","","","","","","","","","","","","","","","",""
"html-keyboard-response","183","419318","0.0-3.0-3.0-0.9","abwk3tkdhzva0s6","practice_cue","5f21857b35103a53f50d63da","5f60e3c0a3b16e07647b2ff9","5f60eecde33e1201162d723c","false","null","<span style=""color: black; font-size: 48px"">N + M</span>","null","","","","resp_prompt","","","","","","","","","","","","","","","",""
"categorize-image","184","420234","0.0-3.0-3.0-1.9","abwk3tkdhzva0s6","practice_cue","5f21857b35103a53f50d63da","5f60e3c0a3b16e07647b2ff9","5f60eecde33e1201162d723c","true","910.6650000000373","./Stimuli/ImagesPractice/LN2.jpg","83","","","","test","true","N + M","83","","LN","LN2.jpg","remember","old","74","5","practice_forget","left","","","",""
"html-keyboard-response","185","422237","0.0-3.0-3.0-3.9","abwk3tkdhzva0s6","practice_cue","5f21857b35103a53f50d63da","5f60e3c0a3b16e07647b2ff9","5f60eecde33e1201162d723c","false","null","<div style=""align-items: center; display: flex; color: dodgerblue; font-size: 90px""><b>o</b></div>","null","","","","forget_cue","","","","","","","","","","","","","","","",""
"html-keyboard-response","186","422940","0.0-3.0-3.0-0.10","abwk3tkdhzva0s6","practice_cue","5f21857b35103a53f50d63da","5f60e3c0a3b16e07647b2ff9","5f60eecde33e1201162d723c","false","null","<span style=""color: black; font-size: 48px"">N + M</span>","null","","","","resp_prompt","","","","","","","","","","","","","","","",""
"categorize-image","187","424079","0.0-3.0-3.0-1.10","abwk3tkdhzva0s6","practice_cue","5f21857b35103a53f50d63da","5f60e3c0a3b16e07647b2ff9","5f60eecde33e1201162d723c","true","1133.3149999999441","./Stimuli/ImagesPractice/SN221.jpg","83","","","","test","true","N + M","83","","SN","SN221.jpg","remember","old","75","5","practice_forget","left","","","",""
"html-keyboard-response","188","426081","0.0-3.0-3.0-3.10","abwk3tkdhzva0s6","practice_cue","5f21857b35103a53f50d63da","5f60e3c0a3b16e07647b2ff9","5f60eecde33e1201162d723c","false","null","<div style=""align-items: center; display: flex; color: dodgerblue; font-size: 90px""><b>o</b></div>","null","","","","forget_cue","","","","","","","","","","","","","","","",""
"html-keyboard-response","189","426784","0.0-3.0-3.0-0.11","abwk3tkdhzva0s6","practice_cue","5f21857b35103a53f50d63da","5f60e3c0a3b16e07647b2ff9","5f60eecde33e1201162d723c","false","null","<span style=""color: black; font-size: 48px"">N + M</span>","null","","","","resp_prompt","","","","","","","","","","","","","","","",""
"categorize-image","190","427567","0.0-3.0-3.0-1.11","abwk3tkdhzva0s6","practice_cue","5f21857b35103a53f50d63da","5f60e3c0a3b16e07647b2ff9","5f60eecde33e1201162d723c","true","776.6399999998976","./Stimuli/ImagesPractice/LM239.jpg","76","","","","test","true","N + M","76","","LM","LM239.jpg","forget","old","76","5","practice_forget","right","","","",""
"html-keyboard-response","191","429575","0.0-3.0-3.0-3.11","abwk3tkdhzva0s6","practice_cue","5f21857b35103a53f50d63da","5f60e3c0a3b16e07647b2ff9","5f60eecde33e1201162d723c","false","null","<div style=""align-items: center; display: flex; color: darkorange; font-size: 90px""><b>ø</b></div>","null","","","","forget_cue","","","","","","","","","","","","","","","",""
"html-keyboard-response","192","430278","0.0-3.0-3.0-0.12","abwk3tkdhzva0s6","practice_cue","5f21857b35103a53f50d63da","5f60e3c0a3b16e07647b2ff9","5f60eecde33e1201162d723c","false","null","<span style=""color: black; font-size: 48px"">N + M</span>","null","","","","resp_prompt","","","","","","","","","","","","","","","",""
"categorize-image","193","431246","0.0-3.0-3.0-1.12","abwk3tkdhzva0s6","practice_cue","5f21857b35103a53f50d63da","5f60e3c0a3b16e07647b2ff9","5f60eecde33e1201162d723c","true","965.3400000000838","./Stimuli/ImagesPractice/SM35.jpg","76","","","","test","true","N + M","76","","SM","SM35.jpg","forget","old","77","5","practice_forget","right","","","",""
"html-keyboard-response","194","433249","0.0-3.0-3.0-3.12","abwk3tkdhzva0s6","practice_cue","5f21857b35103a53f50d63da","5f60e3c0a3b16e07647b2ff9","5f60eecde33e1201162d723c","false","null","<div style=""align-items: center; display: flex; color: darkorange; font-size: 90px""><b>ø</b></div>","null","","","","forget_cue","","","","","","","","","","","","","","","",""
"html-keyboard-response","195","433950","0.0-3.0-3.0-0.13","abwk3tkdhzva0s6","practice_cue","5f21857b35103a53f50d63da","5f60e3c0a3b16e07647b2ff9","5f60eecde33e1201162d723c","false","null","<span style=""color: black; font-size: 48px"">M + N</span>","null","","","","resp_prompt","","","","","","","","","","","","","","","",""
"categorize-image","196","434626","0.0-3.0-3.0-1.13","abwk3tkdhzva0s6","practice_cue","5f21857b35103a53f50d63da","5f60e3c0a3b16e07647b2ff9","5f60eecde33e1201162d723c","true","670.695000000007","./Stimuli/ImagesPractice/LM147.jpg","83","","","","test","true","M + N","83","","LM","LM147.jpg","remember","old","78","5","practice_forget","left","","","",""
"html-keyboard-response","197","436631","0.0-3.0-3.0-3.13","abwk3tkdhzva0s6","practice_cue","5f21857b35103a53f50d63da","5f60e3c0a3b16e07647b2ff9","5f60eecde33e1201162d723c","false","null","<div style=""align-items: center; display: flex; color: dodgerblue; font-size: 90px""><b>o</b></div>","null","","","","forget_cue","","","","","","","","","","","","","","","",""
"html-keyboard-response","198","437333","0.0-3.0-3.0-0.14","abwk3tkdhzva0s6","practice_cue","5f21857b35103a53f50d63da","5f60e3c0a3b16e07647b2ff9","5f60eecde33e1201162d723c","false","null","<span style=""color: black; font-size: 48px"">M + N</span>","null","","","","resp_prompt","","","","","","","","","","","","","","","",""
"categorize-image","199","438274","0.0-3.0-3.0-1.14","abwk3tkdhzva0s6","practice_cue","5f21857b35103a53f50d63da","5f60e3c0a3b16e07647b2ff9","5f60eecde33e1201162d723c","true","934.8800000000047","./Stimuli/ImagesPractice/SM37.jpg","83","","","","test","true","M + N","83","","SM","SM37.jpg","forget","old","79","5","practice_forget","left","","","",""
"html-keyboard-response","200","440278","0.0-3.0-3.0-3.14","abwk3tkdhzva0s6","practice_cue","5f21857b35103a53f50d63da","5f60e3c0a3b16e07647b2ff9","5f60eecde33e1201162d723c","false","null","<div style=""align-items: center; display: flex; color: darkorange; font-size: 90px""><b>ø</b></div>","null","","","","forget_cue","","","","","","","","","","","","","","","",""
"html-keyboard-response","201","440981","0.0-3.0-3.0-0.15","abwk3tkdhzva0s6","practice_cue","5f21857b35103a53f50d63da","5f60e3c0a3b16e07647b2ff9","5f60eecde33e1201162d723c","false","null","<span style=""color: black; font-size: 48px"">M + N</span>","null","","","","resp_prompt","","","","","","","","","","","","","","","",""
"categorize-image","202","441677","0.0-3.0-3.0-1.15","abwk3tkdhzva0s6","practice_cue","5f21857b35103a53f50d63da","5f60e3c0a3b16e07647b2ff9","5f60eecde33e1201162d723c","true","692.3099999998813","./Stimuli/ImagesPractice/LN4.jpg","76","","","","test","true","M + N","76","","LN","LN4.jpg","forget","old","80","5","practice_forget","right","","","",""
"html-keyboard-response","203","443680","0.0-3.0-3.0-3.15","abwk3tkdhzva0s6","practice_cue","5f21857b35103a53f50d63da","5f60e3c0a3b16e07647b2ff9","5f60eecde33e1201162d723c","false","null","<div style=""align-items: center; display: flex; color: darkorange; font-size: 90px""><b>ø</b></div>","null","","","","forget_cue","","","","","","","","","","","","","","","",""
"html-keyboard-response","204","446828","0.0-3.0-4.0","abwk3tkdhzva0s6","break","5f21857b35103a53f50d63da","5f60e3c0a3b16e07647b2ff9","5f60eecde33e1201162d723c","false","3146.1299999999464","<p style='font-size: 32px;'>Break</><br><br><br><br><br><p style='font-size: 24px;'>In the last block, you committed 1 errors and did not respond in time on 0 trials.
</p><p style='font-size: 24px;'>Try to respond as fast and accurately as possible in the next block as well! </p><p style='font-size: 24px;'>Press SPACE to continue.</p>","32","","","","","","","","","","","","","","","","","","","",""
"html-keyboard-response","205","470363","0.0-3.0-5.0","abwk3tkdhzva0s6","instructions","5f21857b35103a53f50d63da","5f60e3c0a3b16e07647b2ff9","5f60eecde33e1201162d723c","false","23532.275000000023","<div align=left> Now, to practice, we kindly ask you to remember as many of the to-be-remembered pictures<br>of the previous learning phase as possible.<br><br>The pictures you were instructed to remember were the pictures followed by a <span style='color: dodgerblue; font-size: 28px'>O</span>.<br><br>In this memory test phase, you will also see some new pictures.<br>It is your task to remember whether you were presented with this specific picture in this study so far or not.<br>If you recognize an object (you have already seen it in this study), it is an OLD object. <br>If you do not recognize an object (you have NOT seen it in this study), it is a NEW object. <br><strong> Attention</strong>: As already mentioned, <span style='color: darkorange; font-size:28px'>Ø</span>-pictures will <strong>never</strong> appear in this memory test (neither as new objects). <br><br>Press SPACE to continue. </div>","32","","","","","","","","","","","","","","","","","","","",""
"html-keyboard-response","206","501280","0.0-3.0-6.0","abwk3tkdhzva0s6","instructions","5f21857b35103a53f50d63da","5f60e3c0a3b16e07647b2ff9","5f60eecde33e1201162d723c","false","30911.715000000084","<div align=left> M and N no longer will appear on the left/right of the fixation cross. <br>Instead there will be a note at the bottom of the left or right side  <br>indicating which key you should press for an old or new object:  <br> <br>Press the <strong>right</strong> key to classify an object as <strong>old</strong> and press the <strong>left</strong>, to classify an object as <strong>new</strong>.<br>Please classify the objects as new/old by again placing your index finger on the 'S' and 'L' keys <br>and press them accordingly.<br><br><strong>Old:</strong> This object has been presented before. <br><strong>New:</strong> This object has <strong>not</strong> been presented.<br><br>Now please put your right and left index fingers on the 'S' and 'L' keys of your keyboard. <br>Please respond as fast and as accurately as possible!<br><br>Press SPACE to continue. </div>","32","","","","","","","","","","","","","","","","","","","",""
"categorize-image","207","503369","0.0-3.0-7.0-0.0","abwk3tkdhzva0s6","practice_recog","5f21857b35103a53f50d63da","5f60e3c0a3b16e07647b2ff9","5f60eecde33e1201162d723c","true","1580.0399999999208","./Stimuli/ImagesPractice/LN109.jpg","83","","","","test","true","","83","","LN","LN109.jpg","","new","81","6","practice_recog","left","","","",""
"categorize-image","208","505140","0.0-3.0-7.0-0.1","abwk3tkdhzva0s6","practice_recog","5f21857b35103a53f50d63da","5f60e3c0a3b16e07647b2ff9","5f60eecde33e1201162d723c","true","1263.9099999999162","./Stimuli/ImagesPractice/SM98.jpg","83","","","","test","true","","83","","SM","SM98.jpg","","new","82","6","practice_recog","left","","","",""
"categorize-image","209","506574","0.0-3.0-7.0-0.2","abwk3tkdhzva0s6","practice_recog","5f21857b35103a53f50d63da","5f60e3c0a3b16e07647b2ff9","5f60eecde33e1201162d723c","true","927.3550000000396","./Stimuli/ImagesPractice/SN75.jpg","76","","","","test","true","","76","","SN","SN75.jpg","","old","83","6","practice_recog","right","","","",""
"categorize-image","210","507946","0.0-3.0-7.0-0.3","abwk3tkdhzva0s6","practice_recog","5f21857b35103a53f50d63da","5f60e3c0a3b16e07647b2ff9","5f60eecde33e1201162d723c","true","864.9850000000442","./Stimuli/ImagesPractice/SM97.jpg","83","","","","test","true","","83","","SM","SM97.jpg","","new","84","6","practice_recog","left","","","",""
"categorize-image","211","509467","0.0-3.0-7.0-0.4","abwk3tkdhzva0s6","practice_recog","5f21857b35103a53f50d63da","5f60e3c0a3b16e07647b2ff9","5f60eecde33e1201162d723c","true","1013.2799999999697","./Stimuli/ImagesPractice/SM61.jpg","76","","","","test","false","","83","","SM","SM61.jpg","","new","85","6","practice_recog","right","","","",""
"categorize-image","212","511048","0.0-3.0-7.0-0.5","abwk3tkdhzva0s6","practice_recog","5f21857b35103a53f50d63da","5f60e3c0a3b16e07647b2ff9","5f60eecde33e1201162d723c","true","1073.774999999965","./Stimuli/ImagesPractice/LN72.jpg","76","","","","test","false","","83","","LN","LN72.jpg","","new","86","6","practice_recog","right","","","",""
"categorize-image","213","512982","0.0-3.0-7.0-0.6","abwk3tkdhzva0s6","practice_recog","5f21857b35103a53f50d63da","5f60e3c0a3b16e07647b2ff9","5f60eecde33e1201162d723c","true","1426.9000000000233","./Stimuli/ImagesPractice/LM55.jpg","76","","","","test","true","","76","","LM","LM55.jpg","","old","87","6","practice_recog","right","","","",""
"categorize-image","214","514346","0.0-3.0-7.0-0.7","abwk3tkdhzva0s6","practice_recog","5f21857b35103a53f50d63da","5f60e3c0a3b16e07647b2ff9","5f60eecde33e1201162d723c","true","858.4650000000256","./Stimuli/ImagesPractice/LN2.jpg","76","","","","test","true","","76","","LN","LN2.jpg","","old","88","6","practice_recog","right","","","",""
"categorize-image","215","515750","0.0-3.0-7.0-0.8","abwk3tkdhzva0s6","practice_recog","5f21857b35103a53f50d63da","5f60e3c0a3b16e07647b2ff9","5f60eecde33e1201162d723c","true","898.0499999999884","./Stimuli/ImagesPractice/SN220.jpg","83","","","","test","true","","83","","SN","SN220.jpg","","new","89","6","practice_recog","left","","","",""
"categorize-image","216","517131","0.0-3.0-7.0-0.9","abwk3tkdhzva0s6","practice_recog","5f21857b35103a53f50d63da","5f60e3c0a3b16e07647b2ff9","5f60eecde33e1201162d723c","true","874.7049999999581","./Stimuli/ImagesPractice/SN76.jpg","83","","","","test","false","","76","","SN","SN76.jpg","","old","90","6","practice_recog","left","","","",""
"categorize-image","217","518882","0.0-3.0-7.0-0.10","abwk3tkdhzva0s6","practice_recog","5f21857b35103a53f50d63da","5f60e3c0a3b16e07647b2ff9","5f60eecde33e1201162d723c","true","1244.085000000021","./Stimuli/ImagesPractice/LM230.jpg","76","","","","test","true","","76","","LM","LM230.jpg","","old","91","6","practice_recog","right","","","",""
"categorize-image","218","520246","0.0-3.0-7.0-0.11","abwk3tkdhzva0s6","practice_recog","5f21857b35103a53f50d63da","5f60e3c0a3b16e07647b2ff9","5f60eecde33e1201162d723c","true","856.765000000014","./Stimuli/ImagesPractice/LM224.jpg","83","","","","test","true","","83","","LM","LM224.jpg","","new","92","6","practice_recog","left","","","",""
"categorize-image","219","521663","0.0-3.0-7.0-0.12","abwk3tkdhzva0s6","practice_recog","5f21857b35103a53f50d63da","5f60e3c0a3b16e07647b2ff9","5f60eecde33e1201162d723c","true","911.2099999999627","./Stimuli/ImagesPractice/SN221.jpg","76","","","","test","true","","76","","SN","SN221.jpg","","old","93","6","practice_recog","right","","","",""
"categorize-image","220","523093","0.0-3.0-7.0-0.13","abwk3tkdhzva0s6","practice_recog","5f21857b35103a53f50d63da","5f60e3c0a3b16e07647b2ff9","5f60eecde33e1201162d723c","true","924.2750000001397","./Stimuli/ImagesPractice/SM62.jpg","76","","","","test","true","","76","","SM","SM62.jpg","","old","94","6","practice_recog","right","","","",""
"categorize-image","221","524502","0.0-3.0-7.0-0.14","abwk3tkdhzva0s6","practice_recog","5f21857b35103a53f50d63da","5f60e3c0a3b16e07647b2ff9","5f60eecde33e1201162d723c","true","903.8000000000466","./Stimuli/ImagesPractice/LM143.jpg","83","","","","test","true","","83","","LM","LM143.jpg","","new","95","6","practice_recog","left","","","",""
"categorize-image","222","525912","0.0-3.0-7.0-0.15","abwk3tkdhzva0s6","practice_recog","5f21857b35103a53f50d63da","5f60e3c0a3b16e07647b2ff9","5f60eecde33e1201162d723c","true","902.984999999986","./Stimuli/ImagesPractice/LM147.jpg","76","","","","test","true","","76","","LM","LM147.jpg","","old","96","6","practice_recog","right","","","",""
"html-keyboard-response","223","529475","0.0-3.0-8.0","abwk3tkdhzva0s6","instructions","5f21857b35103a53f50d63da","5f60e3c0a3b16e07647b2ff9","5f60eecde33e1201162d723c","false","3560.319999999949","<div align=left> Great!<br><br>Are you ready to continue?<br>If you want to reread the instructions and redo the practice trials, please <br>press „Z“.<br><br>You can proceed when you are ready.<br><br>After the presentation of each object, you will receive an instruction whether to <br>remember or to forget the object.<br>We will test your memory of the following pictures only at the very end of <br>the experiment after all learning blocks are completed. <br><br>Press SPACE to CONTINUE when you are ready. </div>","90","","","","","","","","","","","","","","","","","","","",""
"html-keyboard-response","224","530529","0.0-3.1-0.1","abwk3tkdhzva0s6","instructions","5f21857b35103a53f50d63da","5f60e3c0a3b16e07647b2ff9","5f60eecde33e1201162d723c","false","1050.1649999999208","<div align=left>Great!<br> <strong>Attention</strong>! You will now receive a second, additional task! <br><br>To this point it was you <strong>first task</strong> to correctly <strong>classify objects</strong>. <br><br>As mentioned in the beginning, we aim to examine how well humans can remember previously learned information.<br>We would like to find out whether our memory improves if we only remember information that is relevant to us. <br><br>Therefore, your <strong>second task</strong> will be to <strong>remember</strong> the pictures you are to categorize. <br> After the learning phase, there will be a memory test phase, in which you will be asked to indicate whether you have seen a picture before or not. <br>Some, but not all pictures shown in the learning phase will appear in the memory test phase.<br>After classifying a picture, you will be told whether you should remember it for the memory test phase or not. <br>Thus, some pictures can be forgotten, whereas others have to be remembered. <br><br>Note: From now on, feedback will only be displayed if you responded incorrectly or not in time.<br><br>Press SPACE to continue.</div>","32","","","","","","","","","","","","","","","","","","","",""
"html-keyboard-response","225","531404","0.0-3.1-1.1","abwk3tkdhzva0s6","instructions","5f21857b35103a53f50d63da","5f60e3c0a3b16e07647b2ff9","5f60eecde33e1201162d723c","false","872.3199999999488","<div align=left>In the following part, you will thus have to remember only some pictures. <br>Immediately after seeing and classifying the picture, a symbol will be displayed, indicating whether you should remember or forget the previous picture. <br><br>A <span style='color: dodgerblue; font-size: 28px'>O</span> indicates REMEMBER. That means, you have to remember this picture, because it will be tested later. <br><br>A <span style='color: darkorange; font-size:28px'>Ø</span> indicates FORGET. You do not have to remember this picture. <br><br> As you will have to remember a lot of pictures, it will be hard for you to remember all of them. <br>It will put you at an advantage if you instantly forget the pictures you are not asked to remember. <br> This will make it easier for you to remember the pictures that will be tested afterwards. <br><br>Press SPACE to continue.</div>","32","","","","","","","","","","","","","","","","","","","",""
