"trial_type","trial_index","time_elapsed","internal_node_id","subject","exp_part","prolific_PID","study_ID","session_ID","use","rt","stimulus","key_press","button_pressed","responses","question_order","trial_part","correct","resp_map","correct_resp","probe_condition","category","image","forget_condition","list","trial_num","block_num","block","response","test_part","n_span","sequence","num_spaces"
"pavlovia","0","2","0.0-0.0","zd6jqnjxaw8fk76","","5e19961e1b8014222555c3b2","5f60e3c0a3b16e07647b2ff9","5f646a603b94e71f0cd3fd7f","false","","","","","","","","","","","","","","","","","","","","","","",""
"html-keyboard-response","1","277787","0.0-1.0-0.0-0.0","zd6jqnjxaw8fk76","welcome","5e19961e1b8014222555c3b2","5f60e3c0a3b16e07647b2ff9","5f646a603b94e71f0cd3fd7f","false","277782.7049999905","<div align=left>Dear participant, <br> thank you for participating in an online study of the Cognition, Action, and Sustainability Unit of the University of Freiburg! <br> <br>The aim of this study is to examine our ability to remember previously learned information. <br>Our goal is to find out, whether our memory improves, when we only remember information that is relevant to us. <br>The experiment will take about 35 minutes to complete. <br> <br>Please, note that you can only participate in this study if you are using a device with a keyboard (PC, Laptop etc.) <br>and not if you are using a mobile device such as a tablet or smartphone.<br> <br>Press 'SPACE' to proceed to the experiment. </div>","32","","","","","","","","","","","","","","","","","","","",""
"html-keyboard-response","2","298354","0.0-1.0-0.0-1.0","zd6jqnjxaw8fk76","welcome","5e19961e1b8014222555c3b2","5f60e3c0a3b16e07647b2ff9","5f646a603b94e71f0cd3fd7f","false","20566.139999995357","<div align=left><strong> Time Course of this experiment: </strong> <br><br> <strong> 1.</strong>  First, please fill in some information regarding your demographic data. <br><br> <strong> 2.</strong>  Next, your task will be to classify everyday objects. <br>In addition, you will be asked to remember certain objects and recall them later. <br>Working on these tasks requires your undivided attention and concentration.<br>It is therefore essential that you eliminate any sources of distraction in your  <br>environment and ensure that you will not be disturbed. <br><br><strong> 3.</strong>  At the end of the experiment, you will be asked to answer a few additional questions. <br> <br><strong> Important:</strong> After finishing the experiment, only close the browser window <br> by clicking on the 'end the experiment'-button when you are asked to do so. <br>Closing the browser window prematurely will make the allocation of your participation credit impossible. <br><br> Press 'SPACE' to start the experiment. </div>","32","","","","","","","","","","","","","","","","","","","",""
"html-button-response","3","309583","0.0-1.0-0.0-2.0","zd6jqnjxaw8fk76","welcome","5e19961e1b8014222555c3b2","5f60e3c0a3b16e07647b2ff9","5f646a603b94e71f0cd3fd7f","true","11228.210000001127","<div align=left><strong> Informed consent </strong>  <br>The aim of our research is to better understand human behavior and mental processes. <br>In the following study your behavior (e.g. choices, reaction times) will be studied. <br> <br><strong> Voluntariness and Anonymity </strong> <br>Your participation in this study is  <strong> voluntary</strong>.<br>You may withdraw your consent to participate at any time without providing a reason for doing so and without fear of prejudice. <br><br>As no personal data will be collected, <strong>your data and your person cannot be connected after data collection</strong> – the data-set is anonymous. <br>Respectively, deletion of your data will not be possible after data collection has been completed, as we cannot retrace your data-set.<br>The results and anonymized data collected in this study will be published as a scientific publication. <br>This will happen in an <strong>anonymized format</strong>, so that no data can be traced back to a specific person. <br> <br>The anonymized data of this study will be made available to other researchers and/or in a data archive on the Internet as a means of transparency and to enable subsequent re-use. By doing so, this study follows the recommendations of the Deutsche Forschungsgemeinschaft (DFG, German Research Foundation) and Deutsche Gesellschaft für Psychologie (DGPS, German Psychological Society) regarding quality assurance in research.<br>If you have any questions now or after the experiment, please contact our team (experiments@cs.uni-freiburg.de).<br><br><br>I hereby declare, that I understand the above described conditions of participation and I agree to participate under these conditions. <br><br> </div>","","0","","","","","","","","","","","","","","","","","","",""
"html-keyboard-response","4","321431","0.0-1.0-0.0-3.0","zd6jqnjxaw8fk76","welcome","5e19961e1b8014222555c3b2","5f60e3c0a3b16e07647b2ff9","5f646a603b94e71f0cd3fd7f","false","11846.929999999702","<div align=left><strong> General information concerning the experiment </strong>  <br> <br>Please follow the instructions:<ol> <li><strong> Do not leave this tab (your browser window) during the experiment and do not reload this tab! </strong>  <br>If you do switch tabs/windows during the experiment (to check your mail or visit another website, for example), <br>the experiment will end automatically and you will <strong>not receive credit</strong> for your participation. <br>Repeated participation or resumption of the experiment is impossible.</li> <br><li>Please close all other programs for the duration of your participation. </li> <br><li>Please mute or turn off your phone and put it out of your reach. </li> <br><li>Please also take off any disturbing accessories (such as wristwatches, bracelets, etc.). </li> <br><li>If you have music playing in the background, please turn it off now. </li> <br></ol>Thank you! <br>Press 'SPACE' to continue. </div>","32","","","","","","","","","","","","","","","","","","","",""
"survey-text","5","326065","0.0-1.0-1.0-0.0","zd6jqnjxaw8fk76","demographics","5e19961e1b8014222555c3b2","5f60e3c0a3b16e07647b2ff9","5f646a603b94e71f0cd3fd7f","true","4630.250000001979","","","","{""age"":""32""}","","","","","","","","","","","","","","","","","",""
"survey-multi-choice","6","336312","0.0-1.0-1.0-1.0","zd6jqnjxaw8fk76","demographics","5e19961e1b8014222555c3b2","5f60e3c0a3b16e07647b2ff9","5f646a603b94e71f0cd3fd7f","true","10245.91500000679","","","","{""gender"":""male"",""school"":""high school"",""education"":""High school graduate, diploma or equivalent""}","[0,1,2]","","","","","","","","","","","","","","","","",""
"html-keyboard-response","7","350644","0.0-1.0-2.0","zd6jqnjxaw8fk76","instructions","5e19961e1b8014222555c3b2","5f60e3c0a3b16e07647b2ff9","5f646a603b94e71f0cd3fd7f","false","14330.764999991516","<div align=left> The experiment is now about to start: <br> <br>In the following part, you will be presented pictures of everyday objects. <br>Your first task is to <strong>classify these objects. </strong> <br> <br> You will classify them either as mechanical or non-mechanical objects. <br> <br>Objects that include any kind of technical mechanism (for example, wheels, switches, levers, <br> electronic components) fall under the category of <strong>mechanical</strong> objects. <br>Only objects without any kind of technical mechanism should be classified as <strong>non-mechanical</strong>. <br><br>Press 'SPACE' to continue. </div>","32","","","","","","","","","","","","","","","","","","","",""
"html-keyboard-response","8","391406","0.0-2.0-0.0","zd6jqnjxaw8fk76","instructions","5e19961e1b8014222555c3b2","5f60e3c0a3b16e07647b2ff9","5f646a603b94e71f0cd3fd7f","false","40761.33999999729","<div align=justify>You will classify the objects using the <strong>'S'</strong> and the <strong>'L'</strong> keys on your keyboard.<br>For doing so, please place your <strong>left index finger</strong> on the <strong>'S'</strong> key and place your <strong>right index finger</strong> on the <strong>'L'</strong> key. <br><br> Each trial starts with an instruction, indicating which key ('S'/'L') you need to press to classify <br>the object as mechanical (letter M) or non-mechanical (letter N).<br>The instruction <strong>M + N</strong> indicates that, in the current trial, by pressing the left key ('S') you classify the displayed object as mechanical (M) <br> and by pressing the right key ('L') you classify the object as non-mechanical (N). <br>The instruction <strong>N + M</strong> on the other hand indicates that by pressing the left key ('S') you classify the displayed object as non-mechanical (N) <br> and by pressing the right key ('L') you classify the object as mechanical (M). <br><br>Please press the key corresponding to the correct classification as fast as possible as soon as the object is displayed and try to avoid making mistakes.<br>If you do not respond within a 2 second window, a corresponding feedback will be displayed and the next trial will start.<br> The experiment is divided into multiple blocks to give you the opportunity to take a break after each block. <br>First, you can now practice this task. <br><br>Please place your <strong>LEFT INDEX FINGER</strong> on the 'S' key and your <strong>RIGHT INDEX FINGER</strong> on the 'L' key now. <br><br>Press SPACE to continue.</div>","32","","","","","","","","","","","","","","","","","","","",""
"html-keyboard-response","9","397736","0.0-2.0-1.0","zd6jqnjxaw8fk76","instructions","5e19961e1b8014222555c3b2","5f60e3c0a3b16e07647b2ff9","5f646a603b94e71f0cd3fd7f","false","6328.815000000759","<div align=left> You will now have time to practice this task.<br><br>Remember: <br> <br><li>Please place your index fingers on the <strong>'S'</strong> and <strong>'L'</strong> keys <br>to respond as fast and accurately as possible.</li><li>Every picture can be classified as either mechanical or non-mechanical.</li><li>If you do not respond in time or commit an error, you will receive a corresponding feedback. </li><li> Please try to respond as <strong> fast </strong> and as <strong> accurately as possible </strong> .<br><li>To ensure optimal results, please minimize distractions and stay focused. </li><br><br>Press SPACE to continue.</div>","32","","","","","","","","","","","","","","","","","","","",""
"html-keyboard-response","10","398438","0.0-2.0-2.0-0.0","zd6jqnjxaw8fk76","practice_no_cue","5e19961e1b8014222555c3b2","5f60e3c0a3b16e07647b2ff9","5f646a603b94e71f0cd3fd7f","false","null","<span style=""color: black; font-size: 48px"">N + M</span>","null","","","","resp_prompt","","","","","","","","","","","","","","","",""
"categorize-image","11","400010","0.0-2.0-2.0-1.0","zd6jqnjxaw8fk76","practice_no_cue","5e19961e1b8014222555c3b2","5f60e3c0a3b16e07647b2ff9","5f646a603b94e71f0cd3fd7f","true","1071.3350000005448","./Stimuli/ImagesPractice/LM224.jpg","83","","","","test","false","N + M","76","","LM","LM224.jpg","remember","old","1","1","start","left","","","",""
"html-keyboard-response","12","400711","0.0-2.0-2.0-0.1","zd6jqnjxaw8fk76","practice_no_cue","5e19961e1b8014222555c3b2","5f60e3c0a3b16e07647b2ff9","5f646a603b94e71f0cd3fd7f","false","null","<span style=""color: black; font-size: 48px"">N + M</span>","null","","","","resp_prompt","","","","","","","","","","","","","","","",""
"categorize-image","13","401646","0.0-2.0-2.0-1.1","zd6jqnjxaw8fk76","practice_no_cue","5e19961e1b8014222555c3b2","5f60e3c0a3b16e07647b2ff9","5f646a603b94e71f0cd3fd7f","true","432.62500000128057","./Stimuli/ImagesPractice/SN205.jpg","76","","","","test","false","N + M","83","","SN","SN205.jpg","forget","old","2","1","start","right","","","",""
"html-keyboard-response","14","402347","0.0-2.0-2.0-0.2","zd6jqnjxaw8fk76","practice_no_cue","5e19961e1b8014222555c3b2","5f60e3c0a3b16e07647b2ff9","5f646a603b94e71f0cd3fd7f","false","null","<span style=""color: black; font-size: 48px"">M + N</span>","null","","","","resp_prompt","","","","","","","","","","","","","","","",""
"categorize-image","15","403451","0.0-2.0-2.0-1.2","zd6jqnjxaw8fk76","practice_no_cue","5e19961e1b8014222555c3b2","5f60e3c0a3b16e07647b2ff9","5f646a603b94e71f0cd3fd7f","true","603.9850000088336","./Stimuli/ImagesPractice/LN17.jpg","83","","","","test","false","M + N","76","","LN","LN17.jpg","forget","old","3","1","start","left","","","",""
"html-keyboard-response","16","404153","0.0-2.0-2.0-0.3","zd6jqnjxaw8fk76","practice_no_cue","5e19961e1b8014222555c3b2","5f60e3c0a3b16e07647b2ff9","5f646a603b94e71f0cd3fd7f","false","null","<span style=""color: black; font-size: 48px"">N + M</span>","null","","","","resp_prompt","","","","","","","","","","","","","","","",""
"categorize-image","17","405133","0.0-2.0-2.0-1.3","zd6jqnjxaw8fk76","practice_no_cue","5e19961e1b8014222555c3b2","5f60e3c0a3b16e07647b2ff9","5f646a603b94e71f0cd3fd7f","true","478.2850000046892","./Stimuli/ImagesPractice/SN222.jpg","83","","","","test","true","N + M","83","","SN","SN222.jpg","remember","old","4","1","start","left","","","",""
"html-keyboard-response","18","405834","0.0-2.0-2.0-0.4","zd6jqnjxaw8fk76","practice_no_cue","5e19961e1b8014222555c3b2","5f60e3c0a3b16e07647b2ff9","5f646a603b94e71f0cd3fd7f","false","null","<span style=""color: black; font-size: 48px"">M + N</span>","null","","","","resp_prompt","","","","","","","","","","","","","","","",""
"categorize-image","19","406866","0.0-2.0-2.0-1.4","zd6jqnjxaw8fk76","practice_no_cue","5e19961e1b8014222555c3b2","5f60e3c0a3b16e07647b2ff9","5f646a603b94e71f0cd3fd7f","true","531.4050000015413","./Stimuli/ImagesPractice/SM62.jpg","83","","","","test","true","M + N","83","","SM","SM62.jpg","remember","old","5","1","start","left","","","",""
"html-keyboard-response","20","407568","0.0-2.0-2.0-0.5","zd6jqnjxaw8fk76","practice_no_cue","5e19961e1b8014222555c3b2","5f60e3c0a3b16e07647b2ff9","5f646a603b94e71f0cd3fd7f","false","null","<span style=""color: black; font-size: 48px"">N + M</span>","null","","","","resp_prompt","","","","","","","","","","","","","","","",""
"categorize-image","21","408760","0.0-2.0-2.0-1.5","zd6jqnjxaw8fk76","practice_no_cue","5e19961e1b8014222555c3b2","5f60e3c0a3b16e07647b2ff9","5f646a603b94e71f0cd3fd7f","true","690.4999999969732","./Stimuli/ImagesPractice/SM35.jpg","76","","","","test","true","N + M","76","","SM","SM35.jpg","remember","old","6","1","start","right","","","",""
"html-keyboard-response","22","409462","0.0-2.0-2.0-0.6","zd6jqnjxaw8fk76","practice_no_cue","5e19961e1b8014222555c3b2","5f60e3c0a3b16e07647b2ff9","5f646a603b94e71f0cd3fd7f","false","null","<span style=""color: black; font-size: 48px"">M + N</span>","null","","","","resp_prompt","","","","","","","","","","","","","","","",""
"categorize-image","23","410615","0.0-2.0-2.0-1.6","zd6jqnjxaw8fk76","practice_no_cue","5e19961e1b8014222555c3b2","5f60e3c0a3b16e07647b2ff9","5f646a603b94e71f0cd3fd7f","true","651.9050000060815","./Stimuli/ImagesPractice/LM55.jpg","76","","","","test","false","M + N","83","","LM","LM55.jpg","remember","old","7","1","start","right","","","",""
"html-keyboard-response","24","411316","0.0-2.0-2.0-0.7","zd6jqnjxaw8fk76","practice_no_cue","5e19961e1b8014222555c3b2","5f60e3c0a3b16e07647b2ff9","5f646a603b94e71f0cd3fd7f","false","null","<span style=""color: black; font-size: 48px"">M + N</span>","null","","","","resp_prompt","","","","","","","","","","","","","","","",""
"categorize-image","25","412655","0.0-2.0-2.0-1.7","zd6jqnjxaw8fk76","practice_no_cue","5e19961e1b8014222555c3b2","5f60e3c0a3b16e07647b2ff9","5f646a603b94e71f0cd3fd7f","true","837.7299999992829","./Stimuli/ImagesPractice/SN221.jpg","83","","","","test","false","M + N","76","","SN","SN221.jpg","forget","old","8","1","start","left","","","",""
"html-keyboard-response","26","413357","0.0-2.0-2.0-0.8","zd6jqnjxaw8fk76","practice_no_cue","5e19961e1b8014222555c3b2","5f60e3c0a3b16e07647b2ff9","5f646a603b94e71f0cd3fd7f","false","null","<span style=""color: black; font-size: 48px"">N + M</span>","null","","","","resp_prompt","","","","","","","","","","","","","","","",""
"categorize-image","27","413939","0.0-2.0-2.0-1.8","zd6jqnjxaw8fk76","practice_no_cue","5e19961e1b8014222555c3b2","5f60e3c0a3b16e07647b2ff9","5f646a603b94e71f0cd3fd7f","true","80.28999999805819","./Stimuli/ImagesPractice/LN4.jpg","76","","","","test","false","N + M","83","","LN","LN4.jpg","forget","old","9","1","start","right","","","",""
"html-keyboard-response","28","414640","0.0-2.0-2.0-0.9","zd6jqnjxaw8fk76","practice_no_cue","5e19961e1b8014222555c3b2","5f60e3c0a3b16e07647b2ff9","5f646a603b94e71f0cd3fd7f","false","null","<span style=""color: black; font-size: 48px"">M + N</span>","null","","","","resp_prompt","","","","","","","","","","","","","","","",""
"categorize-image","29","416771","0.0-2.0-2.0-1.9","zd6jqnjxaw8fk76","practice_no_cue","5e19961e1b8014222555c3b2","5f60e3c0a3b16e07647b2ff9","5f646a603b94e71f0cd3fd7f","true","1629.9900000012713","./Stimuli/ImagesPractice/LN109.jpg","83","","","","test","false","M + N","76","","LN","LN109.jpg","forget","old","10","1","start","left","","","",""
"html-keyboard-response","30","417473","0.0-2.0-2.0-0.10","zd6jqnjxaw8fk76","practice_no_cue","5e19961e1b8014222555c3b2","5f60e3c0a3b16e07647b2ff9","5f646a603b94e71f0cd3fd7f","false","null","<span style=""color: black; font-size: 48px"">N + M</span>","null","","","","resp_prompt","","","","","","","","","","","","","","","",""
"categorize-image","31","418500","0.0-2.0-2.0-1.10","zd6jqnjxaw8fk76","practice_no_cue","5e19961e1b8014222555c3b2","5f60e3c0a3b16e07647b2ff9","5f646a603b94e71f0cd3fd7f","true","525.195000009262","./Stimuli/ImagesPractice/LN2.jpg","83","","","","test","true","N + M","83","","LN","LN2.jpg","forget","old","11","1","start","left","","","",""
"html-keyboard-response","32","419201","0.0-2.0-2.0-0.11","zd6jqnjxaw8fk76","practice_no_cue","5e19961e1b8014222555c3b2","5f60e3c0a3b16e07647b2ff9","5f646a603b94e71f0cd3fd7f","false","null","<span style=""color: black; font-size: 48px"">N + M</span>","null","","","","resp_prompt","","","","","","","","","","","","","","","",""
"categorize-image","33","420265","0.0-2.0-2.0-1.11","zd6jqnjxaw8fk76","practice_no_cue","5e19961e1b8014222555c3b2","5f60e3c0a3b16e07647b2ff9","5f646a603b94e71f0cd3fd7f","true","562.1150000079069","./Stimuli/ImagesPractice/SM37.jpg","76","","","","test","true","N + M","76","","SM","SM37.jpg","remember","old","12","1","start","right","","","",""
"html-keyboard-response","34","420965","0.0-2.0-2.0-0.12","zd6jqnjxaw8fk76","practice_no_cue","5e19961e1b8014222555c3b2","5f60e3c0a3b16e07647b2ff9","5f646a603b94e71f0cd3fd7f","false","null","<span style=""color: black; font-size: 48px"">M + N</span>","null","","","","resp_prompt","","","","","","","","","","","","","","","",""
"categorize-image","35","422224","0.0-2.0-2.0-1.12","zd6jqnjxaw8fk76","practice_no_cue","5e19961e1b8014222555c3b2","5f60e3c0a3b16e07647b2ff9","5f646a603b94e71f0cd3fd7f","true","757.9699999914737","./Stimuli/ImagesPractice/LM239.jpg","83","","","","test","true","M + N","83","","LM","LM239.jpg","forget","old","13","1","start","left","","","",""
"html-keyboard-response","36","422926","0.0-2.0-2.0-0.13","zd6jqnjxaw8fk76","practice_no_cue","5e19961e1b8014222555c3b2","5f60e3c0a3b16e07647b2ff9","5f646a603b94e71f0cd3fd7f","false","null","<span style=""color: black; font-size: 48px"">N + M</span>","null","","","","resp_prompt","","","","","","","","","","","","","","","",""
"categorize-image","37","424062","0.0-2.0-2.0-1.13","zd6jqnjxaw8fk76","practice_no_cue","5e19961e1b8014222555c3b2","5f60e3c0a3b16e07647b2ff9","5f646a603b94e71f0cd3fd7f","true","635.1300000096671","./Stimuli/ImagesPractice/SM97.jpg","76","","","","test","true","N + M","76","","SM","SM97.jpg","forget","old","14","1","start","right","","","",""
"html-keyboard-response","38","424764","0.0-2.0-2.0-0.14","zd6jqnjxaw8fk76","practice_no_cue","5e19961e1b8014222555c3b2","5f60e3c0a3b16e07647b2ff9","5f646a603b94e71f0cd3fd7f","false","null","<span style=""color: black; font-size: 48px"">M + N</span>","null","","","","resp_prompt","","","","","","","","","","","","","","","",""
"categorize-image","39","425950","0.0-2.0-2.0-1.14","zd6jqnjxaw8fk76","practice_no_cue","5e19961e1b8014222555c3b2","5f60e3c0a3b16e07647b2ff9","5f646a603b94e71f0cd3fd7f","true","685.7799999997951","./Stimuli/ImagesPractice/SM61.jpg","76","","","","test","false","M + N","83","","SM","SM61.jpg","remember","old","15","1","start","right","","","",""
"html-keyboard-response","40","426652","0.0-2.0-2.0-0.15","zd6jqnjxaw8fk76","practice_no_cue","5e19961e1b8014222555c3b2","5f60e3c0a3b16e07647b2ff9","5f646a603b94e71f0cd3fd7f","false","null","<span style=""color: black; font-size: 48px"">M + N</span>","null","","","","resp_prompt","","","","","","","","","","","","","","","",""
"categorize-image","41","427790","0.0-2.0-2.0-1.15","zd6jqnjxaw8fk76","practice_no_cue","5e19961e1b8014222555c3b2","5f60e3c0a3b16e07647b2ff9","5f646a603b94e71f0cd3fd7f","true","637.269999991986","./Stimuli/ImagesPractice/LM143.jpg","83","","","","test","true","M + N","83","","LM","LM143.jpg","remember","old","16","1","start","left","","","",""
"html-keyboard-response","42","435374","0.0-2.0-3.0","zd6jqnjxaw8fk76","break","5e19961e1b8014222555c3b2","5f60e3c0a3b16e07647b2ff9","5f646a603b94e71f0cd3fd7f","false","7583.12000001024","<p style='font-size: 32px;'>Break</><br><br><br><br><br><p style='font-size: 24px;'>In the last block, you committed 8 errors and did not respond in time on 0 trials.
</p><p style='font-size: 24px;'>Try to respond as fast and accurately as possible in the next block as well! </p><p style='font-size: 24px;'>Press SPACE to continue.</p>","32","","","","","","","","","","","","","","","","","","","",""
"html-keyboard-response","43","438716","0.0-2.0-4.0","zd6jqnjxaw8fk76","instructions","5e19961e1b8014222555c3b2","5f60e3c0a3b16e07647b2ff9","5f646a603b94e71f0cd3fd7f","false","3340.9350000001723","<div align=left> Great!<br><br>Are you ready to continue?<br><br>If you want to reread the instructions and redo the practice trials, <br>please press „Z“. <br><br>Press SPACE to CONTINUE with the experiment when you are ready. </div>","90","","","","","","","","","","","","","","","","","","","",""
"html-keyboard-response","44","478397","0.0-2.1-0.1","zd6jqnjxaw8fk76","instructions","5e19961e1b8014222555c3b2","5f60e3c0a3b16e07647b2ff9","5f646a603b94e71f0cd3fd7f","false","39680.31000001065","<div align=justify>You will classify the objects using the <strong>'S'</strong> and the <strong>'L'</strong> keys on your keyboard.<br>For doing so, please place your <strong>left index finger</strong> on the <strong>'S'</strong> key and place your <strong>right index finger</strong> on the <strong>'L'</strong> key. <br><br> Each trial starts with an instruction, indicating which key ('S'/'L') you need to press to classify <br>the object as mechanical (letter M) or non-mechanical (letter N).<br>The instruction <strong>M + N</strong> indicates that, in the current trial, by pressing the left key ('S') you classify the displayed object as mechanical (M) <br> and by pressing the right key ('L') you classify the object as non-mechanical (N). <br>The instruction <strong>N + M</strong> on the other hand indicates that by pressing the left key ('S') you classify the displayed object as non-mechanical (N) <br> and by pressing the right key ('L') you classify the object as mechanical (M). <br><br>Please press the key corresponding to the correct classification as fast as possible as soon as the object is displayed and try to avoid making mistakes.<br>If you do not respond within a 2 second window, a corresponding feedback will be displayed and the next trial will start.<br> The experiment is divided into multiple blocks to give you the opportunity to take a break after each block. <br>First, you can now practice this task. <br><br>Please place your <strong>LEFT INDEX FINGER</strong> on the 'S' key and your <strong>RIGHT INDEX FINGER</strong> on the 'L' key now. <br><br>Press SPACE to continue.</div>","32","","","","","","","","","","","","","","","","","","","",""
"html-keyboard-response","45","482981","0.0-2.1-1.1","zd6jqnjxaw8fk76","instructions","5e19961e1b8014222555c3b2","5f60e3c0a3b16e07647b2ff9","5f646a603b94e71f0cd3fd7f","false","4583.100000003469","<div align=left> You will now have time to practice this task.<br><br>Remember: <br> <br><li>Please place your index fingers on the <strong>'S'</strong> and <strong>'L'</strong> keys <br>to respond as fast and accurately as possible.</li><li>Every picture can be classified as either mechanical or non-mechanical.</li><li>If you do not respond in time or commit an error, you will receive a corresponding feedback. </li><li> Please try to respond as <strong> fast </strong> and as <strong> accurately as possible </strong> .<br><li>To ensure optimal results, please minimize distractions and stay focused. </li><br><br>Press SPACE to continue.</div>","32","","","","","","","","","","","","","","","","","","","",""
"html-keyboard-response","46","483683","0.0-2.1-2.1-0.16","zd6jqnjxaw8fk76","practice_no_cue","5e19961e1b8014222555c3b2","5f60e3c0a3b16e07647b2ff9","5f646a603b94e71f0cd3fd7f","false","null","<span style=""color: black; font-size: 48px"">N + M</span>","null","","","","resp_prompt","","","","","","","","","","","","","","","",""
"categorize-image","47","484982","0.0-2.1-2.1-1.16","zd6jqnjxaw8fk76","practice_no_cue","5e19961e1b8014222555c3b2","5f60e3c0a3b16e07647b2ff9","5f646a603b94e71f0cd3fd7f","true","797.244999994291","./Stimuli/ImagesPractice/LN2.jpg","83","","","","test","true","N + M","83","","LN","LN2.jpg","forget","old","17","2","practice_forget","left","","","",""
"html-keyboard-response","48","485684","0.0-2.1-2.1-0.17","zd6jqnjxaw8fk76","practice_no_cue","5e19961e1b8014222555c3b2","5f60e3c0a3b16e07647b2ff9","5f646a603b94e71f0cd3fd7f","false","null","<span style=""color: black; font-size: 48px"">M + N</span>","null","","","","resp_prompt","","","","","","","","","","","","","","","",""
"categorize-image","49","486849","0.0-2.1-2.1-1.17","zd6jqnjxaw8fk76","practice_no_cue","5e19961e1b8014222555c3b2","5f60e3c0a3b16e07647b2ff9","5f646a603b94e71f0cd3fd7f","true","663.4950000006938","./Stimuli/ImagesPractice/SN221.jpg","83","","","","test","false","M + N","76","","SN","SN221.jpg","forget","old","18","2","practice_forget","left","","","",""
"html-keyboard-response","50","487550","0.0-2.1-2.1-0.18","zd6jqnjxaw8fk76","practice_no_cue","5e19961e1b8014222555c3b2","5f60e3c0a3b16e07647b2ff9","5f646a603b94e71f0cd3fd7f","false","null","<span style=""color: black; font-size: 48px"">N + M</span>","null","","","","resp_prompt","","","","","","","","","","","","","","","",""
"categorize-image","51","488341","0.0-2.1-2.1-1.18","zd6jqnjxaw8fk76","practice_no_cue","5e19961e1b8014222555c3b2","5f60e3c0a3b16e07647b2ff9","5f646a603b94e71f0cd3fd7f","true","289.59000000031665","./Stimuli/ImagesPractice/LN4.jpg","83","","","","test","true","N + M","83","","LN","LN4.jpg","forget","old","19","2","practice_forget","left","","","",""
"html-keyboard-response","52","489042","0.0-2.1-2.1-0.19","zd6jqnjxaw8fk76","practice_no_cue","5e19961e1b8014222555c3b2","5f60e3c0a3b16e07647b2ff9","5f646a603b94e71f0cd3fd7f","false","null","<span style=""color: black; font-size: 48px"">N + M</span>","null","","","","resp_prompt","","","","","","","","","","","","","","","",""
"categorize-image","53","490552","0.0-2.1-2.1-1.19","zd6jqnjxaw8fk76","practice_no_cue","5e19961e1b8014222555c3b2","5f60e3c0a3b16e07647b2ff9","5f646a603b94e71f0cd3fd7f","true","1007.4599999934435","./Stimuli/ImagesPractice/SN222.jpg","76","","","","test","false","N + M","83","","SN","SN222.jpg","remember","old","20","2","practice_forget","right","","","",""
"html-keyboard-response","54","491253","0.0-2.1-2.1-0.20","zd6jqnjxaw8fk76","practice_no_cue","5e19961e1b8014222555c3b2","5f60e3c0a3b16e07647b2ff9","5f646a603b94e71f0cd3fd7f","false","null","<span style=""color: black; font-size: 48px"">M + N</span>","null","","","","resp_prompt","","","","","","","","","","","","","","","",""
"categorize-image","55","492215","0.0-2.1-2.1-1.20","zd6jqnjxaw8fk76","practice_no_cue","5e19961e1b8014222555c3b2","5f60e3c0a3b16e07647b2ff9","5f646a603b94e71f0cd3fd7f","true","460.59499999682885","./Stimuli/ImagesPractice/SM62.jpg","76","","","","test","false","M + N","83","","SM","SM62.jpg","remember","old","21","2","practice_forget","right","","","",""
"html-keyboard-response","56","492917","0.0-2.1-2.1-0.21","zd6jqnjxaw8fk76","practice_no_cue","5e19961e1b8014222555c3b2","5f60e3c0a3b16e07647b2ff9","5f646a603b94e71f0cd3fd7f","false","null","<span style=""color: black; font-size: 48px"">N + M</span>","null","","","","resp_prompt","","","","","","","","","","","","","","","",""
"categorize-image","57","494267","0.0-2.1-2.1-1.21","zd6jqnjxaw8fk76","practice_no_cue","5e19961e1b8014222555c3b2","5f60e3c0a3b16e07647b2ff9","5f646a603b94e71f0cd3fd7f","true","848.8499999948544","./Stimuli/ImagesPractice/LM224.jpg","76","","","","test","true","N + M","76","","LM","LM224.jpg","remember","old","22","2","practice_forget","right","","","",""
"html-keyboard-response","58","494968","0.0-2.1-2.1-0.22","zd6jqnjxaw8fk76","practice_no_cue","5e19961e1b8014222555c3b2","5f60e3c0a3b16e07647b2ff9","5f646a603b94e71f0cd3fd7f","false","null","<span style=""color: black; font-size: 48px"">M + N</span>","null","","","","resp_prompt","","","","","","","","","","","","","","","",""
"categorize-image","59","496084","0.0-2.1-2.1-1.22","zd6jqnjxaw8fk76","practice_no_cue","5e19961e1b8014222555c3b2","5f60e3c0a3b16e07647b2ff9","5f646a603b94e71f0cd3fd7f","true","614.0750000049593","./Stimuli/ImagesPractice/LM239.jpg","76","","","","test","false","M + N","83","","LM","LM239.jpg","forget","old","23","2","practice_forget","right","","","",""
"html-keyboard-response","60","496786","0.0-2.1-2.1-0.23","zd6jqnjxaw8fk76","practice_no_cue","5e19961e1b8014222555c3b2","5f60e3c0a3b16e07647b2ff9","5f646a603b94e71f0cd3fd7f","false","null","<span style=""color: black; font-size: 48px"">M + N</span>","null","","","","resp_prompt","","","","","","","","","","","","","","","",""
"categorize-image","61","497902","0.0-2.1-2.1-1.23","zd6jqnjxaw8fk76","practice_no_cue","5e19961e1b8014222555c3b2","5f60e3c0a3b16e07647b2ff9","5f646a603b94e71f0cd3fd7f","true","615.8350000041537","./Stimuli/ImagesPractice/LN17.jpg","83","","","","test","false","M + N","76","","LN","LN17.jpg","forget","old","24","2","practice_forget","left","","","",""
"html-keyboard-response","62","498604","0.0-2.1-2.1-0.24","zd6jqnjxaw8fk76","practice_no_cue","5e19961e1b8014222555c3b2","5f60e3c0a3b16e07647b2ff9","5f646a603b94e71f0cd3fd7f","false","null","<span style=""color: black; font-size: 48px"">M + N</span>","null","","","","resp_prompt","","","","","","","","","","","","","","","",""
"categorize-image","63","499703","0.0-2.1-2.1-1.24","zd6jqnjxaw8fk76","practice_no_cue","5e19961e1b8014222555c3b2","5f60e3c0a3b16e07647b2ff9","5f646a603b94e71f0cd3fd7f","true","597.1399999980349","./Stimuli/ImagesPractice/LN109.jpg","83","","","","test","false","M + N","76","","LN","LN109.jpg","forget","old","25","2","practice_forget","left","","","",""
"html-keyboard-response","64","500404","0.0-2.1-2.1-0.25","zd6jqnjxaw8fk76","practice_no_cue","5e19961e1b8014222555c3b2","5f60e3c0a3b16e07647b2ff9","5f646a603b94e71f0cd3fd7f","false","null","<span style=""color: black; font-size: 48px"">N + M</span>","null","","","","resp_prompt","","","","","","","","","","","","","","","",""
"categorize-image","65","501579","0.0-2.1-2.1-1.25","zd6jqnjxaw8fk76","practice_no_cue","5e19961e1b8014222555c3b2","5f60e3c0a3b16e07647b2ff9","5f646a603b94e71f0cd3fd7f","true","673.5950000002049","./Stimuli/ImagesPractice/SM97.jpg","76","","","","test","true","N + M","76","","SM","SM97.jpg","forget","old","26","2","practice_forget","right","","","",""
"html-keyboard-response","66","502281","0.0-2.1-2.1-0.26","zd6jqnjxaw8fk76","practice_no_cue","5e19961e1b8014222555c3b2","5f60e3c0a3b16e07647b2ff9","5f646a603b94e71f0cd3fd7f","false","null","<span style=""color: black; font-size: 48px"">M + N</span>","null","","","","resp_prompt","","","","","","","","","","","","","","","",""
"categorize-image","67","503236","0.0-2.1-2.1-1.26","zd6jqnjxaw8fk76","practice_no_cue","5e19961e1b8014222555c3b2","5f60e3c0a3b16e07647b2ff9","5f646a603b94e71f0cd3fd7f","true","453.5699999978533","./Stimuli/ImagesPractice/LM143.jpg","76","","","","test","false","M + N","83","","LM","LM143.jpg","remember","old","27","2","practice_forget","right","","","",""
"html-keyboard-response","68","503938","0.0-2.1-2.1-0.27","zd6jqnjxaw8fk76","practice_no_cue","5e19961e1b8014222555c3b2","5f60e3c0a3b16e07647b2ff9","5f646a603b94e71f0cd3fd7f","false","null","<span style=""color: black; font-size: 48px"">M + N</span>","null","","","","resp_prompt","","","","","","","","","","","","","","","",""
"categorize-image","69","504976","0.0-2.1-2.1-1.27","zd6jqnjxaw8fk76","practice_no_cue","5e19961e1b8014222555c3b2","5f60e3c0a3b16e07647b2ff9","5f646a603b94e71f0cd3fd7f","true","536.6250000079162","./Stimuli/ImagesPractice/SM61.jpg","83","","","","test","true","M + N","83","","SM","SM61.jpg","remember","old","28","2","practice_forget","left","","","",""
"html-keyboard-response","70","505676","0.0-2.1-2.1-0.28","zd6jqnjxaw8fk76","practice_no_cue","5e19961e1b8014222555c3b2","5f60e3c0a3b16e07647b2ff9","5f646a603b94e71f0cd3fd7f","false","null","<span style=""color: black; font-size: 48px"">N + M</span>","null","","","","resp_prompt","","","","","","","","","","","","","","","",""
"categorize-image","71","506859","0.0-2.1-2.1-1.28","zd6jqnjxaw8fk76","practice_no_cue","5e19961e1b8014222555c3b2","5f60e3c0a3b16e07647b2ff9","5f646a603b94e71f0cd3fd7f","true","682.0949999964796","./Stimuli/ImagesPractice/SN205.jpg","76","","","","test","false","N + M","83","","SN","SN205.jpg","forget","old","29","2","practice_forget","right","","","",""
"html-keyboard-response","72","507561","0.0-2.1-2.1-0.29","zd6jqnjxaw8fk76","practice_no_cue","5e19961e1b8014222555c3b2","5f60e3c0a3b16e07647b2ff9","5f646a603b94e71f0cd3fd7f","false","null","<span style=""color: black; font-size: 48px"">N + M</span>","null","","","","resp_prompt","","","","","","","","","","","","","","","",""
"categorize-image","73","508644","0.0-2.1-2.1-1.29","zd6jqnjxaw8fk76","practice_no_cue","5e19961e1b8014222555c3b2","5f60e3c0a3b16e07647b2ff9","5f646a603b94e71f0cd3fd7f","true","581.7950000055134","./Stimuli/ImagesPractice/SM35.jpg","83","","","","test","false","N + M","76","","SM","SM35.jpg","remember","old","30","2","practice_forget","left","","","",""
"html-keyboard-response","74","509345","0.0-2.1-2.1-0.30","zd6jqnjxaw8fk76","practice_no_cue","5e19961e1b8014222555c3b2","5f60e3c0a3b16e07647b2ff9","5f646a603b94e71f0cd3fd7f","false","null","<span style=""color: black; font-size: 48px"">N + M</span>","null","","","","resp_prompt","","","","","","","","","","","","","","","",""
"categorize-image","75","510396","0.0-2.1-2.1-1.30","zd6jqnjxaw8fk76","practice_no_cue","5e19961e1b8014222555c3b2","5f60e3c0a3b16e07647b2ff9","5f646a603b94e71f0cd3fd7f","true","550.4900000087218","./Stimuli/ImagesPractice/SM37.jpg","76","","","","test","true","N + M","76","","SM","SM37.jpg","remember","old","31","2","practice_forget","right","","","",""
"html-keyboard-response","76","511098","0.0-2.1-2.1-0.31","zd6jqnjxaw8fk76","practice_no_cue","5e19961e1b8014222555c3b2","5f60e3c0a3b16e07647b2ff9","5f646a603b94e71f0cd3fd7f","false","null","<span style=""color: black; font-size: 48px"">M + N</span>","null","","","","resp_prompt","","","","","","","","","","","","","","","",""
"categorize-image","77","512027","0.0-2.1-2.1-1.31","zd6jqnjxaw8fk76","practice_no_cue","5e19961e1b8014222555c3b2","5f60e3c0a3b16e07647b2ff9","5f646a603b94e71f0cd3fd7f","true","427.7650000003632","./Stimuli/ImagesPractice/LM55.jpg","76","","","","test","false","M + N","83","","LM","LM55.jpg","remember","old","32","2","practice_forget","right","","","",""
"html-keyboard-response","78","517477","0.0-2.1-3.1","zd6jqnjxaw8fk76","break","5e19961e1b8014222555c3b2","5f60e3c0a3b16e07647b2ff9","5f646a603b94e71f0cd3fd7f","false","5448.430000004009","<p style='font-size: 32px;'>Break</><br><br><br><br><br><p style='font-size: 24px;'>In the last block, you committed 10 errors and did not respond in time on 0 trials.
</p><p style='font-size: 24px;'>Try to respond as fast and accurately as possible in the next block as well! </p><p style='font-size: 24px;'>Press SPACE to continue.</p>","32","","","","","","","","","","","","","","","","","","","",""
"html-keyboard-response","79","519961","0.0-2.1-4.1","zd6jqnjxaw8fk76","instructions","5e19961e1b8014222555c3b2","5f60e3c0a3b16e07647b2ff9","5f646a603b94e71f0cd3fd7f","false","2483.395000002929","<div align=left> Great!<br><br>Are you ready to continue?<br><br>If you want to reread the instructions and redo the practice trials, <br>please press „Z“. <br><br>Press SPACE to CONTINUE with the experiment when you are ready. </div>","32","","","","","","","","","","","","","","","","","","","",""
"html-keyboard-response","80","536608","0.0-3.0-0.0","zd6jqnjxaw8fk76","instructions","5e19961e1b8014222555c3b2","5f60e3c0a3b16e07647b2ff9","5f646a603b94e71f0cd3fd7f","false","16646.880000000237","<div align=left>Great!<br> <strong>Attention</strong>! You will now receive a second, additional task! <br><br>To this point it was you <strong>first task</strong> to correctly <strong>classify objects</strong>. <br><br>As mentioned in the beginning, we aim to examine how well humans can remember previously learned information.<br>We would like to find out whether our memory improves if we only remember information that is relevant to us. <br><br>Therefore, your <strong>second task</strong> will be to <strong>remember</strong> the pictures you are to categorize. <br> After the learning phase, there will be a memory test phase, in which you will be asked to indicate whether you have seen a picture before or not. <br>Some, but not all pictures shown in the learning phase will appear in the memory test phase.<br>After classifying a picture, you will be told whether you should remember it for the memory test phase or not. <br>Thus, some pictures can be forgotten, whereas others have to be remembered. <br><br>Note: From now on, feedback will only be displayed if you responded incorrectly or not in time.<br><br>Press SPACE to continue.</div>","32","","","","","","","","","","","","","","","","","","","",""
"html-keyboard-response","81","550796","0.0-3.0-1.0","zd6jqnjxaw8fk76","instructions","5e19961e1b8014222555c3b2","5f60e3c0a3b16e07647b2ff9","5f646a603b94e71f0cd3fd7f","false","14187.364999990677","<div align=left>In the following part, you will thus have to remember only some pictures. <br>Immediately after seeing and classifying the picture, a symbol will be displayed, indicating whether you should remember or forget the previous picture. <br><br>A <span style='color: dodgerblue; font-size: 28px'>O</span> indicates REMEMBER. That means, you have to remember this picture, because it will be tested later. <br><br>A <span style='color: darkorange; font-size:28px'>Ø</span> indicates FORGET. You do not have to remember this picture. <br><br> As you will have to remember a lot of pictures, it will be hard for you to remember all of them. <br>It will put you at an advantage if you instantly forget the pictures you are not asked to remember. <br> This will make it easier for you to remember the pictures that will be tested afterwards. <br><br>Press SPACE to continue.</div>","32","","","","","","","","","","","","","","","","","","","",""
"html-keyboard-response","82","552484","0.0-3.0-2.0","zd6jqnjxaw8fk76","instructions","5e19961e1b8014222555c3b2","5f60e3c0a3b16e07647b2ff9","5f646a603b94e71f0cd3fd7f","false","1686.985000007553","<div align=left> Now you have the chance to practice both tasks together.<br><br>Remember: <br> <br><li>Please place your index fingers on the <strong>'S'</strong> and <strong>'L'</strong> keys <br>to respond as fast and accurately as possible.</li><li>Every picture can be classified as either mechanical or non-mechanical.</li><li>If you do not respond in time or commit an error, you will receive a corresponding feedback. <br>Please try to respond as <strong> fast </strong> and as <strong> accurately as possible </strong>.</li><li> Please remember only the to-be-remembered <span style='color: dodgerblue; font-size: 28px'>O</span> pictures. <br></li><li> Please minimize distractions and stay focused. </li><br><br>Press SPACE to START</div>","32","","","","","","","","","","","","","","","","","","","",""
"html-keyboard-response","83","553186","0.0-3.0-3.0-0.0","zd6jqnjxaw8fk76","practice_cue","5e19961e1b8014222555c3b2","5f60e3c0a3b16e07647b2ff9","5f646a603b94e71f0cd3fd7f","false","null","<span style=""color: black; font-size: 48px"">M + N</span>","null","","","","resp_prompt","","","","","","","","","","","","","","","",""
"categorize-image","84","553783","0.0-3.0-3.0-1.0","zd6jqnjxaw8fk76","practice_cue","5e19961e1b8014222555c3b2","5f60e3c0a3b16e07647b2ff9","5f646a603b94e71f0cd3fd7f","true","594.4200000085402","./Stimuli/ImagesPractice/LN109.jpg","83","","","","test","false","M + N","76","","LN","LN109.jpg","forget","old","33","3","practice_forget","left","","","",""
"html-keyboard-response","85","554284","0.0-3.0-3.0-2.0-0.0","zd6jqnjxaw8fk76","practice_cue","5e19961e1b8014222555c3b2","5f60e3c0a3b16e07647b2ff9","5f646a603b94e71f0cd3fd7f","false","null","<span style=""color: red; font-size: 48px"">Error!</span>","null","","","","feedback","","","","","","","","","","","","","","","",""
"html-keyboard-response","86","556285","0.0-3.0-3.0-3.0","zd6jqnjxaw8fk76","practice_cue","5e19961e1b8014222555c3b2","5f60e3c0a3b16e07647b2ff9","5f646a603b94e71f0cd3fd7f","false","null","<div style=""align-items: center; display: flex; color: darkorange; font-size: 90px""><b>ø</b></div>","null","","","","forget_cue","","","","","","","","","","","","","","","",""
"html-keyboard-response","87","556987","0.0-3.0-3.0-0.1","zd6jqnjxaw8fk76","practice_cue","5e19961e1b8014222555c3b2","5f60e3c0a3b16e07647b2ff9","5f646a603b94e71f0cd3fd7f","false","null","<span style=""color: black; font-size: 48px"">N + M</span>","null","","","","resp_prompt","","","","","","","","","","","","","","","",""
"categorize-image","88","557387","0.0-3.0-3.0-1.1","zd6jqnjxaw8fk76","practice_cue","5e19961e1b8014222555c3b2","5f60e3c0a3b16e07647b2ff9","5f646a603b94e71f0cd3fd7f","true","397.6399999955902","./Stimuli/ImagesPractice/SM97.jpg","76","","","","test","true","N + M","76","","SM","SM97.jpg","forget","old","34","3","practice_forget","right","","","",""
"html-keyboard-response","89","559387","0.0-3.0-3.0-3.1","zd6jqnjxaw8fk76","practice_cue","5e19961e1b8014222555c3b2","5f60e3c0a3b16e07647b2ff9","5f646a603b94e71f0cd3fd7f","false","null","<div style=""align-items: center; display: flex; color: darkorange; font-size: 90px""><b>ø</b></div>","null","","","","forget_cue","","","","","","","","","","","","","","","",""
"html-keyboard-response","90","560088","0.0-3.0-3.0-0.2","zd6jqnjxaw8fk76","practice_cue","5e19961e1b8014222555c3b2","5f60e3c0a3b16e07647b2ff9","5f646a603b94e71f0cd3fd7f","false","null","<span style=""color: black; font-size: 48px"">M + N</span>","null","","","","resp_prompt","","","","","","","","","","","","","","","",""
"categorize-image","91","560619","0.0-3.0-3.0-1.2","zd6jqnjxaw8fk76","practice_cue","5e19961e1b8014222555c3b2","5f60e3c0a3b16e07647b2ff9","5f646a603b94e71f0cd3fd7f","true","528.1699999904959","./Stimuli/ImagesPractice/LM143.jpg","83","","","","test","true","M + N","83","","LM","LM143.jpg","remember","old","35","3","practice_forget","left","","","",""
"html-keyboard-response","92","562620","0.0-3.0-3.0-3.2","zd6jqnjxaw8fk76","practice_cue","5e19961e1b8014222555c3b2","5f60e3c0a3b16e07647b2ff9","5f646a603b94e71f0cd3fd7f","false","null","<div style=""align-items: center; display: flex; color: dodgerblue; font-size: 90px""><b>o</b></div>","null","","","","forget_cue","","","","","","","","","","","","","","","",""
"html-keyboard-response","93","563320","0.0-3.0-3.0-0.3","zd6jqnjxaw8fk76","practice_cue","5e19961e1b8014222555c3b2","5f60e3c0a3b16e07647b2ff9","5f646a603b94e71f0cd3fd7f","false","null","<span style=""color: black; font-size: 48px"">N + M</span>","null","","","","resp_prompt","","","","","","","","","","","","","","","",""
"categorize-image","94","565326","0.0-3.0-3.0-1.3","zd6jqnjxaw8fk76","practice_cue","5e19961e1b8014222555c3b2","5f60e3c0a3b16e07647b2ff9","5f646a603b94e71f0cd3fd7f","true","null","./Stimuli/ImagesPractice/SN205.jpg","null","","","","test","false","N + M","83","","SN","SN205.jpg","forget","old","36","3","practice_forget","too_slow","","","",""
"html-keyboard-response","95","565827","0.0-3.0-3.0-2.3-0.3","zd6jqnjxaw8fk76","practice_cue","5e19961e1b8014222555c3b2","5f60e3c0a3b16e07647b2ff9","5f646a603b94e71f0cd3fd7f","false","null","<span style=""color: red; font-size: 48px"">Too slow!</span>","null","","","","feedback","","","","","","","","","","","","","","","",""
"html-keyboard-response","96","567828","0.0-3.0-3.0-3.3","zd6jqnjxaw8fk76","practice_cue","5e19961e1b8014222555c3b2","5f60e3c0a3b16e07647b2ff9","5f646a603b94e71f0cd3fd7f","false","null","<div style=""align-items: center; display: flex; color: darkorange; font-size: 90px""><b>ø</b></div>","null","","","","forget_cue","","","","","","","","","","","","","","","",""
"html-keyboard-response","97","568528","0.0-3.0-3.0-0.4","zd6jqnjxaw8fk76","practice_cue","5e19961e1b8014222555c3b2","5f60e3c0a3b16e07647b2ff9","5f646a603b94e71f0cd3fd7f","false","null","<span style=""color: black; font-size: 48px"">M + N</span>","null","","","","resp_prompt","","","","","","","","","","","","","","","",""
"categorize-image","98","568574","0.0-3.0-3.0-1.4","zd6jqnjxaw8fk76","practice_cue","5e19961e1b8014222555c3b2","5f60e3c0a3b16e07647b2ff9","5f646a603b94e71f0cd3fd7f","true","42.92999999597669","./Stimuli/ImagesPractice/SM62.jpg","76","","","","test","false","M + N","83","","SM","SM62.jpg","remember","old","37","3","practice_forget","right","","","",""
"html-keyboard-response","99","569075","0.0-3.0-3.0-2.4-0.4","zd6jqnjxaw8fk76","practice_cue","5e19961e1b8014222555c3b2","5f60e3c0a3b16e07647b2ff9","5f646a603b94e71f0cd3fd7f","false","null","<span style=""color: red; font-size: 48px"">Error!</span>","null","","","","feedback","","","","","","","","","","","","","","","",""
"html-keyboard-response","100","571076","0.0-3.0-3.0-3.4","zd6jqnjxaw8fk76","practice_cue","5e19961e1b8014222555c3b2","5f60e3c0a3b16e07647b2ff9","5f646a603b94e71f0cd3fd7f","false","null","<div style=""align-items: center; display: flex; color: dodgerblue; font-size: 90px""><b>o</b></div>","null","","","","forget_cue","","","","","","","","","","","","","","","",""
"html-keyboard-response","101","571777","0.0-3.0-3.0-0.5","zd6jqnjxaw8fk76","practice_cue","5e19961e1b8014222555c3b2","5f60e3c0a3b16e07647b2ff9","5f646a603b94e71f0cd3fd7f","false","null","<span style=""color: black; font-size: 48px"">M + N</span>","null","","","","resp_prompt","","","","","","","","","","","","","","","",""
"categorize-image","102","572248","0.0-3.0-3.0-1.5","zd6jqnjxaw8fk76","practice_cue","5e19961e1b8014222555c3b2","5f60e3c0a3b16e07647b2ff9","5f646a603b94e71f0cd3fd7f","true","467.9350000078557","./Stimuli/ImagesPractice/SN221.jpg","83","","","","test","false","M + N","76","","SN","SN221.jpg","forget","old","38","3","practice_forget","left","","","",""
"html-keyboard-response","103","572749","0.0-3.0-3.0-2.5-0.5","zd6jqnjxaw8fk76","practice_cue","5e19961e1b8014222555c3b2","5f60e3c0a3b16e07647b2ff9","5f646a603b94e71f0cd3fd7f","false","null","<span style=""color: red; font-size: 48px"">Error!</span>","null","","","","feedback","","","","","","","","","","","","","","","",""
"html-keyboard-response","104","574751","0.0-3.0-3.0-3.5","zd6jqnjxaw8fk76","practice_cue","5e19961e1b8014222555c3b2","5f60e3c0a3b16e07647b2ff9","5f646a603b94e71f0cd3fd7f","false","null","<div style=""align-items: center; display: flex; color: darkorange; font-size: 90px""><b>ø</b></div>","null","","","","forget_cue","","","","","","","","","","","","","","","",""
"html-keyboard-response","105","575452","0.0-3.0-3.0-0.6","zd6jqnjxaw8fk76","practice_cue","5e19961e1b8014222555c3b2","5f60e3c0a3b16e07647b2ff9","5f646a603b94e71f0cd3fd7f","false","null","<span style=""color: black; font-size: 48px"">N + M</span>","null","","","","resp_prompt","","","","","","","","","","","","","","","",""
"categorize-image","106","575962","0.0-3.0-3.0-1.6","zd6jqnjxaw8fk76","practice_cue","5e19961e1b8014222555c3b2","5f60e3c0a3b16e07647b2ff9","5f646a603b94e71f0cd3fd7f","true","507.5549999892246","./Stimuli/ImagesPractice/SM35.jpg","76","","","","test","true","N + M","76","","SM","SM35.jpg","remember","old","39","3","practice_forget","right","","","",""
"html-keyboard-response","107","577963","0.0-3.0-3.0-3.6","zd6jqnjxaw8fk76","practice_cue","5e19961e1b8014222555c3b2","5f60e3c0a3b16e07647b2ff9","5f646a603b94e71f0cd3fd7f","false","null","<div style=""align-items: center; display: flex; color: dodgerblue; font-size: 90px""><b>o</b></div>","null","","","","forget_cue","","","","","","","","","","","","","","","",""
"html-keyboard-response","108","578664","0.0-3.0-3.0-0.7","zd6jqnjxaw8fk76","practice_cue","5e19961e1b8014222555c3b2","5f60e3c0a3b16e07647b2ff9","5f646a603b94e71f0cd3fd7f","false","null","<span style=""color: black; font-size: 48px"">N + M</span>","null","","","","resp_prompt","","","","","","","","","","","","","","","",""
"categorize-image","109","579158","0.0-3.0-3.0-1.7","zd6jqnjxaw8fk76","practice_cue","5e19961e1b8014222555c3b2","5f60e3c0a3b16e07647b2ff9","5f646a603b94e71f0cd3fd7f","true","491.4349999889964","./Stimuli/ImagesPractice/LN2.jpg","76","","","","test","false","N + M","83","","LN","LN2.jpg","forget","old","40","3","practice_forget","right","","","",""
"html-keyboard-response","110","579659","0.0-3.0-3.0-2.7-0.7","zd6jqnjxaw8fk76","practice_cue","5e19961e1b8014222555c3b2","5f60e3c0a3b16e07647b2ff9","5f646a603b94e71f0cd3fd7f","false","null","<span style=""color: red; font-size: 48px"">Error!</span>","null","","","","feedback","","","","","","","","","","","","","","","",""
"html-keyboard-response","111","581660","0.0-3.0-3.0-3.7","zd6jqnjxaw8fk76","practice_cue","5e19961e1b8014222555c3b2","5f60e3c0a3b16e07647b2ff9","5f646a603b94e71f0cd3fd7f","false","null","<div style=""align-items: center; display: flex; color: darkorange; font-size: 90px""><b>ø</b></div>","null","","","","forget_cue","","","","","","","","","","","","","","","",""
"html-keyboard-response","112","582361","0.0-3.0-3.0-0.8","zd6jqnjxaw8fk76","practice_cue","5e19961e1b8014222555c3b2","5f60e3c0a3b16e07647b2ff9","5f646a603b94e71f0cd3fd7f","false","null","<span style=""color: black; font-size: 48px"">N + M</span>","null","","","","resp_prompt","","","","","","","","","","","","","","","",""
"categorize-image","113","582623","0.0-3.0-3.0-1.8","zd6jqnjxaw8fk76","practice_cue","5e19961e1b8014222555c3b2","5f60e3c0a3b16e07647b2ff9","5f646a603b94e71f0cd3fd7f","true","258.9000000007218","./Stimuli/ImagesPractice/LM224.jpg","83","","","","test","false","N + M","76","","LM","LM224.jpg","remember","old","41","3","practice_forget","left","","","",""
"html-keyboard-response","114","583123","0.0-3.0-3.0-2.8-0.8","zd6jqnjxaw8fk76","practice_cue","5e19961e1b8014222555c3b2","5f60e3c0a3b16e07647b2ff9","5f646a603b94e71f0cd3fd7f","false","null","<span style=""color: red; font-size: 48px"">Error!</span>","null","","","","feedback","","","","","","","","","","","","","","","",""
"html-keyboard-response","115","585124","0.0-3.0-3.0-3.8","zd6jqnjxaw8fk76","practice_cue","5e19961e1b8014222555c3b2","5f60e3c0a3b16e07647b2ff9","5f646a603b94e71f0cd3fd7f","false","null","<div style=""align-items: center; display: flex; color: dodgerblue; font-size: 90px""><b>o</b></div>","null","","","","forget_cue","","","","","","","","","","","","","","","",""
"html-keyboard-response","116","585826","0.0-3.0-3.0-0.9","zd6jqnjxaw8fk76","practice_cue","5e19961e1b8014222555c3b2","5f60e3c0a3b16e07647b2ff9","5f646a603b94e71f0cd3fd7f","false","null","<span style=""color: black; font-size: 48px"">N + M</span>","null","","","","resp_prompt","","","","","","","","","","","","","","","",""
"categorize-image","117","586071","0.0-3.0-3.0-1.9","zd6jqnjxaw8fk76","practice_cue","5e19961e1b8014222555c3b2","5f60e3c0a3b16e07647b2ff9","5f646a603b94e71f0cd3fd7f","true","243.05499999900348","./Stimuli/ImagesPractice/SN222.jpg","83","","","","test","true","N + M","83","","SN","SN222.jpg","remember","old","42","3","practice_forget","left","","","",""
"html-keyboard-response","118","588072","0.0-3.0-3.0-3.9","zd6jqnjxaw8fk76","practice_cue","5e19961e1b8014222555c3b2","5f60e3c0a3b16e07647b2ff9","5f646a603b94e71f0cd3fd7f","false","null","<div style=""align-items: center; display: flex; color: dodgerblue; font-size: 90px""><b>o</b></div>","null","","","","forget_cue","","","","","","","","","","","","","","","",""
"html-keyboard-response","119","588773","0.0-3.0-3.0-0.10","zd6jqnjxaw8fk76","practice_cue","5e19961e1b8014222555c3b2","5f60e3c0a3b16e07647b2ff9","5f646a603b94e71f0cd3fd7f","false","null","<span style=""color: black; font-size: 48px"">N + M</span>","null","","","","resp_prompt","","","","","","","","","","","","","","","",""
"categorize-image","120","589510","0.0-3.0-3.0-1.10","zd6jqnjxaw8fk76","practice_cue","5e19961e1b8014222555c3b2","5f60e3c0a3b16e07647b2ff9","5f646a603b94e71f0cd3fd7f","true","734.21499998949","./Stimuli/ImagesPractice/SM37.jpg","76","","","","test","true","N + M","76","","SM","SM37.jpg","remember","old","43","3","practice_forget","right","","","",""
"html-keyboard-response","121","591511","0.0-3.0-3.0-3.10","zd6jqnjxaw8fk76","practice_cue","5e19961e1b8014222555c3b2","5f60e3c0a3b16e07647b2ff9","5f646a603b94e71f0cd3fd7f","false","null","<div style=""align-items: center; display: flex; color: dodgerblue; font-size: 90px""><b>o</b></div>","null","","","","forget_cue","","","","","","","","","","","","","","","",""
"html-keyboard-response","122","592212","0.0-3.0-3.0-0.11","zd6jqnjxaw8fk76","practice_cue","5e19961e1b8014222555c3b2","5f60e3c0a3b16e07647b2ff9","5f646a603b94e71f0cd3fd7f","false","null","<span style=""color: black; font-size: 48px"">M + N</span>","null","","","","resp_prompt","","","","","","","","","","","","","","","",""
"categorize-image","123","592527","0.0-3.0-3.0-1.11","zd6jqnjxaw8fk76","practice_cue","5e19961e1b8014222555c3b2","5f60e3c0a3b16e07647b2ff9","5f646a603b94e71f0cd3fd7f","true","312.3199999972712","./Stimuli/ImagesPractice/LN17.jpg","83","","","","test","false","M + N","76","","LN","LN17.jpg","forget","old","44","3","practice_forget","left","","","",""
"html-keyboard-response","124","593027","0.0-3.0-3.0-2.11-0.11","zd6jqnjxaw8fk76","practice_cue","5e19961e1b8014222555c3b2","5f60e3c0a3b16e07647b2ff9","5f646a603b94e71f0cd3fd7f","false","null","<span style=""color: red; font-size: 48px"">Error!</span>","null","","","","feedback","","","","","","","","","","","","","","","",""
"html-keyboard-response","125","595028","0.0-3.0-3.0-3.11","zd6jqnjxaw8fk76","practice_cue","5e19961e1b8014222555c3b2","5f60e3c0a3b16e07647b2ff9","5f646a603b94e71f0cd3fd7f","false","null","<div style=""align-items: center; display: flex; color: darkorange; font-size: 90px""><b>ø</b></div>","null","","","","forget_cue","","","","","","","","","","","","","","","",""
"html-keyboard-response","126","595729","0.0-3.0-3.0-0.12","zd6jqnjxaw8fk76","practice_cue","5e19961e1b8014222555c3b2","5f60e3c0a3b16e07647b2ff9","5f646a603b94e71f0cd3fd7f","false","null","<span style=""color: black; font-size: 48px"">M + N</span>","null","","","","resp_prompt","","","","","","","","","","","","","","","",""
"categorize-image","127","596101","0.0-3.0-3.0-1.12","zd6jqnjxaw8fk76","practice_cue","5e19961e1b8014222555c3b2","5f60e3c0a3b16e07647b2ff9","5f646a603b94e71f0cd3fd7f","true","368.94000000029337","./Stimuli/ImagesPractice/LM239.jpg","76","","","","test","false","M + N","83","","LM","LM239.jpg","forget","old","45","3","practice_forget","right","","","",""
"html-keyboard-response","128","596601","0.0-3.0-3.0-2.12-0.12","zd6jqnjxaw8fk76","practice_cue","5e19961e1b8014222555c3b2","5f60e3c0a3b16e07647b2ff9","5f646a603b94e71f0cd3fd7f","false","null","<span style=""color: red; font-size: 48px"">Error!</span>","null","","","","feedback","","","","","","","","","","","","","","","",""
"html-keyboard-response","129","598602","0.0-3.0-3.0-3.12","zd6jqnjxaw8fk76","practice_cue","5e19961e1b8014222555c3b2","5f60e3c0a3b16e07647b2ff9","5f646a603b94e71f0cd3fd7f","false","null","<div style=""align-items: center; display: flex; color: darkorange; font-size: 90px""><b>ø</b></div>","null","","","","forget_cue","","","","","","","","","","","","","","","",""
"html-keyboard-response","130","599304","0.0-3.0-3.0-0.13","zd6jqnjxaw8fk76","practice_cue","5e19961e1b8014222555c3b2","5f60e3c0a3b16e07647b2ff9","5f646a603b94e71f0cd3fd7f","false","null","<span style=""color: black; font-size: 48px"">N + M</span>","null","","","","resp_prompt","","","","","","","","","","","","","","","",""
"categorize-image","131","599702","0.0-3.0-3.0-1.13","zd6jqnjxaw8fk76","practice_cue","5e19961e1b8014222555c3b2","5f60e3c0a3b16e07647b2ff9","5f646a603b94e71f0cd3fd7f","true","395.6849999958649","./Stimuli/ImagesPractice/LN4.jpg","83","","","","test","true","N + M","83","","LN","LN4.jpg","forget","old","46","3","practice_forget","left","","","",""
"html-keyboard-response","132","601703","0.0-3.0-3.0-3.13","zd6jqnjxaw8fk76","practice_cue","5e19961e1b8014222555c3b2","5f60e3c0a3b16e07647b2ff9","5f646a603b94e71f0cd3fd7f","false","null","<div style=""align-items: center; display: flex; color: darkorange; font-size: 90px""><b>ø</b></div>","null","","","","forget_cue","","","","","","","","","","","","","","","",""
"html-keyboard-response","133","602404","0.0-3.0-3.0-0.14","zd6jqnjxaw8fk76","practice_cue","5e19961e1b8014222555c3b2","5f60e3c0a3b16e07647b2ff9","5f646a603b94e71f0cd3fd7f","false","null","<span style=""color: black; font-size: 48px"">M + N</span>","null","","","","resp_prompt","","","","","","","","","","","","","","","",""
"categorize-image","134","602863","0.0-3.0-3.0-1.14","zd6jqnjxaw8fk76","practice_cue","5e19961e1b8014222555c3b2","5f60e3c0a3b16e07647b2ff9","5f646a603b94e71f0cd3fd7f","true","457.0499999972526","./Stimuli/ImagesPractice/SM61.jpg","83","","","","test","true","M + N","83","","SM","SM61.jpg","remember","old","47","3","practice_forget","left","","","",""
"html-keyboard-response","135","604865","0.0-3.0-3.0-3.14","zd6jqnjxaw8fk76","practice_cue","5e19961e1b8014222555c3b2","5f60e3c0a3b16e07647b2ff9","5f646a603b94e71f0cd3fd7f","false","null","<div style=""align-items: center; display: flex; color: dodgerblue; font-size: 90px""><b>o</b></div>","null","","","","forget_cue","","","","","","","","","","","","","","","",""
"html-keyboard-response","136","605566","0.0-3.0-3.0-0.15","zd6jqnjxaw8fk76","practice_cue","5e19961e1b8014222555c3b2","5f60e3c0a3b16e07647b2ff9","5f646a603b94e71f0cd3fd7f","false","null","<span style=""color: black; font-size: 48px"">M + N</span>","null","","","","resp_prompt","","","","","","","","","","","","","","","",""
"categorize-image","137","605953","0.0-3.0-3.0-1.15","zd6jqnjxaw8fk76","practice_cue","5e19961e1b8014222555c3b2","5f60e3c0a3b16e07647b2ff9","5f646a603b94e71f0cd3fd7f","true","384.00999999430496","./Stimuli/ImagesPractice/LM55.jpg","76","","","","test","false","M + N","83","","LM","LM55.jpg","remember","old","48","3","practice_forget","right","","","",""
"html-keyboard-response","138","606454","0.0-3.0-3.0-2.15-0.15","zd6jqnjxaw8fk76","practice_cue","5e19961e1b8014222555c3b2","5f60e3c0a3b16e07647b2ff9","5f646a603b94e71f0cd3fd7f","false","null","<span style=""color: red; font-size: 48px"">Error!</span>","null","","","","feedback","","","","","","","","","","","","","","","",""
"html-keyboard-response","139","608455","0.0-3.0-3.0-3.15","zd6jqnjxaw8fk76","practice_cue","5e19961e1b8014222555c3b2","5f60e3c0a3b16e07647b2ff9","5f646a603b94e71f0cd3fd7f","false","null","<div style=""align-items: center; display: flex; color: dodgerblue; font-size: 90px""><b>o</b></div>","null","","","","forget_cue","","","","","","","","","","","","","","","",""
"html-keyboard-response","140","613179","0.0-3.0-4.0","zd6jqnjxaw8fk76","break","5e19961e1b8014222555c3b2","5f60e3c0a3b16e07647b2ff9","5f646a603b94e71f0cd3fd7f","false","4723.080000010668","<p style='font-size: 32px;'>Break</><br><br><br><br><br><p style='font-size: 24px;'>In the last block, you committed 8 errors and did not respond in time on 1 trials.
</p><p style='font-size: 24px;'>Try to respond as fast and accurately as possible in the next block as well! </p><p style='font-size: 24px;'>Press SPACE to continue.</p>","32","","","","","","","","","","","","","","","","","","","",""
"html-keyboard-response","141","623603","0.0-3.0-5.0","zd6jqnjxaw8fk76","instructions","5e19961e1b8014222555c3b2","5f60e3c0a3b16e07647b2ff9","5f646a603b94e71f0cd3fd7f","false","10423.829999999725","<div align=left> Now, to practice, we kindly ask you to remember as many of the to-be-remembered pictures<br>of the previous learning phase as possible.<br><br>The pictures you were instructed to remember were the pictures followed by a <span style='color: dodgerblue; font-size: 28px'>O</span>.<br><br>In this memory test phase, you will also see some new pictures.<br>It is your task to remember whether you were presented with this specific picture in this study so far or not.<br>If you recognize an object (you have already seen it in this study), it is an OLD object. <br>If you do not recognize an object (you have NOT seen it in this study), it is a NEW object. <br><strong> Attention</strong>: As already mentioned, <span style='color: darkorange; font-size:28px'>Ø</span>-pictures will <strong>never</strong> appear in this memory test (neither as new objects). <br><br>Press SPACE to continue. </div>","32","","","","","","","","","","","","","","","","","","","",""
"html-keyboard-response","142","644389","0.0-3.0-6.0","zd6jqnjxaw8fk76","instructions","5e19961e1b8014222555c3b2","5f60e3c0a3b16e07647b2ff9","5f646a603b94e71f0cd3fd7f","false","20785.214999996242","<div align=left> M and N no longer will appear on the left/right of the fixation cross. <br>Instead there will be a note at the bottom of the left or right side  <br>indicating which key you should press for an old or new object:  <br> <br>Press the <strong>right</strong> key to classify an object as <strong>old</strong> and press the <strong>left</strong>, to classify an object as <strong>new</strong>.<br>Please classify the objects as new/old by again placing your index finger on the 'S' and 'L' keys <br>and press them accordingly.<br><br><strong>Old:</strong> This object has been presented before. <br><strong>New:</strong> This object has <strong>not</strong> been presented.<br><br>Now please put your right and left index fingers on the 'S' and 'L' keys of your keyboard. <br>Please respond as fast and as accurately as possible!<br><br>Press SPACE to continue. </div>","32","","","","","","","","","","","","","","","","","","","",""
"categorize-image","143","646852","0.0-3.0-7.0-0.0","zd6jqnjxaw8fk76","practice_recog","5e19961e1b8014222555c3b2","5f60e3c0a3b16e07647b2ff9","5f646a603b94e71f0cd3fd7f","true","1961.2049999996088","./Stimuli/ImagesPractice/SM35.jpg","76","","","","test","true","","76","","SM","SM35.jpg","","old","49","4","practice_recog","right","","","",""
"categorize-image","144","648415","0.0-3.0-7.0-0.1","zd6jqnjxaw8fk76","practice_recog","5e19961e1b8014222555c3b2","5f60e3c0a3b16e07647b2ff9","5f646a603b94e71f0cd3fd7f","true","1060.5700000014622","./Stimuli/ImagesPractice/LM230.jpg","83","","","","test","true","","83","","LM","LM230.jpg","","new","50","4","practice_recog","left","","","",""
"categorize-image","145","650011","0.0-3.0-7.0-0.2","zd6jqnjxaw8fk76","practice_recog","5e19961e1b8014222555c3b2","5f60e3c0a3b16e07647b2ff9","5f646a603b94e71f0cd3fd7f","true","1095.0149999989662","./Stimuli/ImagesPractice/SN75.jpg","83","","","","test","true","","83","","SN","SN75.jpg","","new","51","4","practice_recog","left","","","",""
"categorize-image","146","651254","0.0-3.0-7.0-0.3","zd6jqnjxaw8fk76","practice_recog","5e19961e1b8014222555c3b2","5f60e3c0a3b16e07647b2ff9","5f646a603b94e71f0cd3fd7f","true","740.9349999943515","./Stimuli/ImagesPractice/SN220.jpg","83","","","","test","true","","83","","SN","SN220.jpg","","new","52","4","practice_recog","left","","","",""
"categorize-image","147","652708","0.0-3.0-7.0-0.4","zd6jqnjxaw8fk76","practice_recog","5e19961e1b8014222555c3b2","5f60e3c0a3b16e07647b2ff9","5f646a603b94e71f0cd3fd7f","true","952.1249999961583","./Stimuli/ImagesPractice/LM147.jpg","83","","","","test","true","","83","","LM","LM147.jpg","","new","53","4","practice_recog","left","","","",""
"categorize-image","148","654320","0.0-3.0-7.0-0.5","zd6jqnjxaw8fk76","practice_recog","5e19961e1b8014222555c3b2","5f60e3c0a3b16e07647b2ff9","5f646a603b94e71f0cd3fd7f","true","1110.1100000087172","./Stimuli/ImagesPractice/SM62.jpg","76","","","","test","true","","76","","SM","SM62.jpg","","old","54","4","practice_recog","right","","","",""
"categorize-image","149","655688","0.0-3.0-7.0-0.6","zd6jqnjxaw8fk76","practice_recog","5e19961e1b8014222555c3b2","5f60e3c0a3b16e07647b2ff9","5f646a603b94e71f0cd3fd7f","true","866.6700000030687","./Stimuli/ImagesPractice/SN222.jpg","76","","","","test","true","","76","","SN","SN222.jpg","","old","55","4","practice_recog","right","","","",""
"categorize-image","150","656999","0.0-3.0-7.0-0.7","zd6jqnjxaw8fk76","practice_recog","5e19961e1b8014222555c3b2","5f60e3c0a3b16e07647b2ff9","5f646a603b94e71f0cd3fd7f","true","810.0899999990361","./Stimuli/ImagesPractice/SM98.jpg","83","","","","test","true","","83","","SM","SM98.jpg","","new","56","4","practice_recog","left","","","",""
"categorize-image","151","658417","0.0-3.0-7.0-0.8","zd6jqnjxaw8fk76","practice_recog","5e19961e1b8014222555c3b2","5f60e3c0a3b16e07647b2ff9","5f646a603b94e71f0cd3fd7f","true","916.5499999944586","./Stimuli/ImagesPractice/LM143.jpg","76","","","","test","true","","76","","LM","LM143.jpg","","old","57","4","practice_recog","right","","","",""
"categorize-image","152","660878","0.0-3.0-7.0-0.9","zd6jqnjxaw8fk76","practice_recog","5e19961e1b8014222555c3b2","5f60e3c0a3b16e07647b2ff9","5f646a603b94e71f0cd3fd7f","true","1958.9500000001863","./Stimuli/ImagesPractice/LM55.jpg","76","","","","test","true","","76","","LM","LM55.jpg","","old","58","4","practice_recog","right","","","",""
"categorize-image","153","662427","0.0-3.0-7.0-0.10","zd6jqnjxaw8fk76","practice_recog","5e19961e1b8014222555c3b2","5f60e3c0a3b16e07647b2ff9","5f646a603b94e71f0cd3fd7f","true","1047.1900000120513","./Stimuli/ImagesPractice/SN76.jpg","83","","","","test","true","","83","","SN","SN76.jpg","","new","59","4","practice_recog","left","","","",""
"categorize-image","154","664369","0.0-3.0-7.0-0.11","zd6jqnjxaw8fk76","practice_recog","5e19961e1b8014222555c3b2","5f60e3c0a3b16e07647b2ff9","5f646a603b94e71f0cd3fd7f","true","1439.9499999999534","./Stimuli/ImagesPractice/SM61.jpg","76","","","","test","true","","76","","SM","SM61.jpg","","old","60","4","practice_recog","right","","","",""
"categorize-image","155","665583","0.0-3.0-7.0-0.12","zd6jqnjxaw8fk76","practice_recog","5e19961e1b8014222555c3b2","5f60e3c0a3b16e07647b2ff9","5f646a603b94e71f0cd3fd7f","true","713.4400000068126","./Stimuli/ImagesPractice/LN15.jpg","83","","","","test","true","","83","","LN","LN15.jpg","","new","61","4","practice_recog","left","","","",""
"categorize-image","156","666800","0.0-3.0-7.0-0.13","zd6jqnjxaw8fk76","practice_recog","5e19961e1b8014222555c3b2","5f60e3c0a3b16e07647b2ff9","5f646a603b94e71f0cd3fd7f","true","715.0849999889033","./Stimuli/ImagesPractice/LM224.jpg","76","","","","test","true","","76","","LM","LM224.jpg","","old","62","4","practice_recog","right","","","",""
"categorize-image","157","669406","0.0-3.0-7.0-0.14","zd6jqnjxaw8fk76","practice_recog","5e19961e1b8014222555c3b2","5f60e3c0a3b16e07647b2ff9","5f646a603b94e71f0cd3fd7f","true","2104.8399999999674","./Stimuli/ImagesPractice/LN72.jpg","83","","","","test","true","","83","","LN","LN72.jpg","","new","63","4","practice_recog","left","","","",""
"categorize-image","158","670674","0.0-3.0-7.0-0.15","zd6jqnjxaw8fk76","practice_recog","5e19961e1b8014222555c3b2","5f60e3c0a3b16e07647b2ff9","5f646a603b94e71f0cd3fd7f","true","766.0049999976764","./Stimuli/ImagesPractice/SM37.jpg","76","","","","test","true","","76","","SM","SM37.jpg","","old","64","4","practice_recog","right","","","",""
"html-keyboard-response","159","680665","0.0-3.0-8.0","zd6jqnjxaw8fk76","instructions","5e19961e1b8014222555c3b2","5f60e3c0a3b16e07647b2ff9","5f646a603b94e71f0cd3fd7f","false","9990.770000003977","<div align=left> Great!<br><br>Are you ready to continue?<br>If you want to reread the instructions and redo the practice trials, please <br>press „Z“.<br><br>You can proceed when you are ready.<br><br>After the presentation of each object, you will receive an instruction whether to <br>remember or to forget the object.<br>We will test your memory of the following pictures only at the very end of <br>the experiment after all learning blocks are completed. <br><br>Press SPACE to CONTINUE when you are ready. </div>","90","","","","","","","","","","","","","","","","","","","",""
"html-keyboard-response","160","695209","0.0-3.1-0.1","zd6jqnjxaw8fk76","instructions","5e19961e1b8014222555c3b2","5f60e3c0a3b16e07647b2ff9","5f646a603b94e71f0cd3fd7f","false","14543.355000001611","<div align=left>Great!<br> <strong>Attention</strong>! You will now receive a second, additional task! <br><br>To this point it was you <strong>first task</strong> to correctly <strong>classify objects</strong>. <br><br>As mentioned in the beginning, we aim to examine how well humans can remember previously learned information.<br>We would like to find out whether our memory improves if we only remember information that is relevant to us. <br><br>Therefore, your <strong>second task</strong> will be to <strong>remember</strong> the pictures you are to categorize. <br> After the learning phase, there will be a memory test phase, in which you will be asked to indicate whether you have seen a picture before or not. <br>Some, but not all pictures shown in the learning phase will appear in the memory test phase.<br>After classifying a picture, you will be told whether you should remember it for the memory test phase or not. <br>Thus, some pictures can be forgotten, whereas others have to be remembered. <br><br>Note: From now on, feedback will only be displayed if you responded incorrectly or not in time.<br><br>Press SPACE to continue.</div>","32","","","","","","","","","","","","","","","","","","","",""
"html-keyboard-response","161","696895","0.0-3.1-1.1","zd6jqnjxaw8fk76","instructions","5e19961e1b8014222555c3b2","5f60e3c0a3b16e07647b2ff9","5f646a603b94e71f0cd3fd7f","false","1685.0199999898905","<div align=left>In the following part, you will thus have to remember only some pictures. <br>Immediately after seeing and classifying the picture, a symbol will be displayed, indicating whether you should remember or forget the previous picture. <br><br>A <span style='color: dodgerblue; font-size: 28px'>O</span> indicates REMEMBER. That means, you have to remember this picture, because it will be tested later. <br><br>A <span style='color: darkorange; font-size:28px'>Ø</span> indicates FORGET. You do not have to remember this picture. <br><br> As you will have to remember a lot of pictures, it will be hard for you to remember all of them. <br>It will put you at an advantage if you instantly forget the pictures you are not asked to remember. <br> This will make it easier for you to remember the pictures that will be tested afterwards. <br><br>Press SPACE to continue.</div>","32","","","","","","","","","","","","","","","","","","","",""
"html-keyboard-response","162","706245","0.0-3.1-2.1","zd6jqnjxaw8fk76","instructions","5e19961e1b8014222555c3b2","5f60e3c0a3b16e07647b2ff9","5f646a603b94e71f0cd3fd7f","false","9349.94000000006","<div align=left> Now you have the chance to practice both tasks together.<br><br>Remember: <br> <br><li>Please place your index fingers on the <strong>'S'</strong> and <strong>'L'</strong> keys <br>to respond as fast and accurately as possible.</li><li>Every picture can be classified as either mechanical or non-mechanical.</li><li>If you do not respond in time or commit an error, you will receive a corresponding feedback. <br>Please try to respond as <strong> fast </strong> and as <strong> accurately as possible </strong>.</li><li> Please remember only the to-be-remembered <span style='color: dodgerblue; font-size: 28px'>O</span> pictures. <br></li><li> Please minimize distractions and stay focused. </li><br><br>Press SPACE to START</div>","32","","","","","","","","","","","","","","","","","","","",""
"html-keyboard-response","163","706946","0.0-3.1-3.1-0.16","zd6jqnjxaw8fk76","practice_cue","5e19961e1b8014222555c3b2","5f60e3c0a3b16e07647b2ff9","5f646a603b94e71f0cd3fd7f","false","null","<span style=""color: black; font-size: 48px"">M + N</span>","null","","","","resp_prompt","","","","","","","","","","","","","","","",""
"categorize-image","164","707527","0.0-3.1-3.1-1.16","zd6jqnjxaw8fk76","practice_cue","5e19961e1b8014222555c3b2","5f60e3c0a3b16e07647b2ff9","5f646a603b94e71f0cd3fd7f","true","578.6150000058115","./Stimuli/ImagesPractice/LM143.jpg","83","","","","test","true","M + N","83","","LM","LM143.jpg","remember","old","65","4","practice_recog","left","","","",""
"html-keyboard-response","165","709529","0.0-3.1-3.1-3.16","zd6jqnjxaw8fk76","practice_cue","5e19961e1b8014222555c3b2","5f60e3c0a3b16e07647b2ff9","5f646a603b94e71f0cd3fd7f","false","null","<div style=""align-items: center; display: flex; color: dodgerblue; font-size: 90px""><b>o</b></div>","null","","","","forget_cue","","","","","","","","","","","","","","","",""
"html-keyboard-response","166","710230","0.0-3.1-3.1-0.17","zd6jqnjxaw8fk76","practice_cue","5e19961e1b8014222555c3b2","5f60e3c0a3b16e07647b2ff9","5f646a603b94e71f0cd3fd7f","false","null","<span style=""color: black; font-size: 48px"">N + M</span>","null","","","","resp_prompt","","","","","","","","","","","","","","","",""
"categorize-image","167","710712","0.0-3.1-3.1-1.17","zd6jqnjxaw8fk76","practice_cue","5e19961e1b8014222555c3b2","5f60e3c0a3b16e07647b2ff9","5f646a603b94e71f0cd3fd7f","true","480.60999999870546","./Stimuli/ImagesPractice/SM35.jpg","76","","","","test","true","N + M","76","","SM","SM35.jpg","remember","old","66","4","practice_recog","right","","","",""
"html-keyboard-response","168","712713","0.0-3.1-3.1-3.17","zd6jqnjxaw8fk76","practice_cue","5e19961e1b8014222555c3b2","5f60e3c0a3b16e07647b2ff9","5f646a603b94e71f0cd3fd7f","false","null","<div style=""align-items: center; display: flex; color: dodgerblue; font-size: 90px""><b>o</b></div>","null","","","","forget_cue","","","","","","","","","","","","","","","",""
"html-keyboard-response","169","713414","0.0-3.1-3.1-0.18","zd6jqnjxaw8fk76","practice_cue","5e19961e1b8014222555c3b2","5f60e3c0a3b16e07647b2ff9","5f646a603b94e71f0cd3fd7f","false","null","<span style=""color: black; font-size: 48px"">N + M</span>","null","","","","resp_prompt","","","","","","","","","","","","","","","",""
"categorize-image","170","714312","0.0-3.1-3.1-1.18","zd6jqnjxaw8fk76","practice_cue","5e19961e1b8014222555c3b2","5f60e3c0a3b16e07647b2ff9","5f646a603b94e71f0cd3fd7f","true","896.0499999957392","./Stimuli/ImagesPractice/SM37.jpg","83","","","","test","false","N + M","76","","SM","SM37.jpg","remember","old","67","4","practice_recog","left","","","",""
"html-keyboard-response","171","714813","0.0-3.1-3.1-2.18-0.18","zd6jqnjxaw8fk76","practice_cue","5e19961e1b8014222555c3b2","5f60e3c0a3b16e07647b2ff9","5f646a603b94e71f0cd3fd7f","false","null","<span style=""color: red; font-size: 48px"">Error!</span>","null","","","","feedback","","","","","","","","","","","","","","","",""
"html-keyboard-response","172","716814","0.0-3.1-3.1-3.18","zd6jqnjxaw8fk76","practice_cue","5e19961e1b8014222555c3b2","5f60e3c0a3b16e07647b2ff9","5f646a603b94e71f0cd3fd7f","false","null","<div style=""align-items: center; display: flex; color: dodgerblue; font-size: 90px""><b>o</b></div>","null","","","","forget_cue","","","","","","","","","","","","","","","",""
"html-keyboard-response","173","717515","0.0-3.1-3.1-0.19","zd6jqnjxaw8fk76","practice_cue","5e19961e1b8014222555c3b2","5f60e3c0a3b16e07647b2ff9","5f646a603b94e71f0cd3fd7f","false","null","<span style=""color: black; font-size: 48px"">M + N</span>","null","","","","resp_prompt","","","","","","","","","","","","","","","",""
"categorize-image","174","717946","0.0-3.1-3.1-1.19","zd6jqnjxaw8fk76","practice_cue","5e19961e1b8014222555c3b2","5f60e3c0a3b16e07647b2ff9","5f646a603b94e71f0cd3fd7f","true","428.5800000070594","./Stimuli/ImagesPractice/SM62.jpg","83","","","","test","true","M + N","83","","SM","SM62.jpg","remember","old","68","4","practice_recog","left","","","",""
"html-keyboard-response","175","719947","0.0-3.1-3.1-3.19","zd6jqnjxaw8fk76","practice_cue","5e19961e1b8014222555c3b2","5f60e3c0a3b16e07647b2ff9","5f646a603b94e71f0cd3fd7f","false","null","<div style=""align-items: center; display: flex; color: dodgerblue; font-size: 90px""><b>o</b></div>","null","","","","forget_cue","","","","","","","","","","","","","","","",""
"html-keyboard-response","176","720648","0.0-3.1-3.1-0.20","zd6jqnjxaw8fk76","practice_cue","5e19961e1b8014222555c3b2","5f60e3c0a3b16e07647b2ff9","5f646a603b94e71f0cd3fd7f","false","null","<span style=""color: black; font-size: 48px"">N + M</span>","null","","","","resp_prompt","","","","","","","","","","","","","","","",""
"categorize-image","177","721175","0.0-3.1-3.1-1.20","zd6jqnjxaw8fk76","practice_cue","5e19961e1b8014222555c3b2","5f60e3c0a3b16e07647b2ff9","5f646a603b94e71f0cd3fd7f","true","523.7550000019837","./Stimuli/ImagesPractice/SN222.jpg","76","","","","test","false","N + M","83","","SN","SN222.jpg","remember","old","69","4","practice_recog","right","","","",""
"html-keyboard-response","178","721676","0.0-3.1-3.1-2.20-0.20","zd6jqnjxaw8fk76","practice_cue","5e19961e1b8014222555c3b2","5f60e3c0a3b16e07647b2ff9","5f646a603b94e71f0cd3fd7f","false","null","<span style=""color: red; font-size: 48px"">Error!</span>","null","","","","feedback","","","","","","","","","","","","","","","",""
"html-keyboard-response","179","723677","0.0-3.1-3.1-3.20","zd6jqnjxaw8fk76","practice_cue","5e19961e1b8014222555c3b2","5f60e3c0a3b16e07647b2ff9","5f646a603b94e71f0cd3fd7f","false","null","<div style=""align-items: center; display: flex; color: dodgerblue; font-size: 90px""><b>o</b></div>","null","","","","forget_cue","","","","","","","","","","","","","","","",""
"html-keyboard-response","180","724378","0.0-3.1-3.1-0.21","zd6jqnjxaw8fk76","practice_cue","5e19961e1b8014222555c3b2","5f60e3c0a3b16e07647b2ff9","5f646a603b94e71f0cd3fd7f","false","null","<span style=""color: black; font-size: 48px"">M + N</span>","null","","","","resp_prompt","","","","","","","","","","","","","","","",""
"categorize-image","181","724766","0.0-3.1-3.1-1.21","zd6jqnjxaw8fk76","practice_cue","5e19961e1b8014222555c3b2","5f60e3c0a3b16e07647b2ff9","5f646a603b94e71f0cd3fd7f","true","384.74999999743886","./Stimuli/ImagesPractice/SN221.jpg","76","","","","test","true","M + N","76","","SN","SN221.jpg","forget","old","70","4","practice_recog","right","","","",""
"html-keyboard-response","182","726767","0.0-3.1-3.1-3.21","zd6jqnjxaw8fk76","practice_cue","5e19961e1b8014222555c3b2","5f60e3c0a3b16e07647b2ff9","5f646a603b94e71f0cd3fd7f","false","null","<div style=""align-items: center; display: flex; color: darkorange; font-size: 90px""><b>ø</b></div>","null","","","","forget_cue","","","","","","","","","","","","","","","",""
"html-keyboard-response","183","727468","0.0-3.1-3.1-0.22","zd6jqnjxaw8fk76","practice_cue","5e19961e1b8014222555c3b2","5f60e3c0a3b16e07647b2ff9","5f646a603b94e71f0cd3fd7f","false","null","<span style=""color: black; font-size: 48px"">N + M</span>","null","","","","resp_prompt","","","","","","","","","","","","","","","",""
"categorize-image","184","727781","0.0-3.1-3.1-1.22","zd6jqnjxaw8fk76","practice_cue","5e19961e1b8014222555c3b2","5f60e3c0a3b16e07647b2ff9","5f646a603b94e71f0cd3fd7f","true","310.21999999939","./Stimuli/ImagesPractice/SM97.jpg","83","","","","test","false","N + M","76","","SM","SM97.jpg","forget","old","71","4","practice_recog","left","","","",""
"html-keyboard-response","185","728282","0.0-3.1-3.1-2.22-0.22","zd6jqnjxaw8fk76","practice_cue","5e19961e1b8014222555c3b2","5f60e3c0a3b16e07647b2ff9","5f646a603b94e71f0cd3fd7f","false","null","<span style=""color: red; font-size: 48px"">Error!</span>","null","","","","feedback","","","","","","","","","","","","","","","",""
"html-keyboard-response","186","730283","0.0-3.1-3.1-3.22","zd6jqnjxaw8fk76","practice_cue","5e19961e1b8014222555c3b2","5f60e3c0a3b16e07647b2ff9","5f646a603b94e71f0cd3fd7f","false","null","<div style=""align-items: center; display: flex; color: darkorange; font-size: 90px""><b>ø</b></div>","null","","","","forget_cue","","","","","","","","","","","","","","","",""
"html-keyboard-response","187","730985","0.0-3.1-3.1-0.23","zd6jqnjxaw8fk76","practice_cue","5e19961e1b8014222555c3b2","5f60e3c0a3b16e07647b2ff9","5f646a603b94e71f0cd3fd7f","false","null","<span style=""color: black; font-size: 48px"">M + N</span>","null","","","","resp_prompt","","","","","","","","","","","","","","","",""
"categorize-image","188","731416","0.0-3.1-3.1-1.23","zd6jqnjxaw8fk76","practice_cue","5e19961e1b8014222555c3b2","5f60e3c0a3b16e07647b2ff9","5f646a603b94e71f0cd3fd7f","true","428.64000001281966","./Stimuli/ImagesPractice/LN17.jpg","83","","","","test","false","M + N","76","","LN","LN17.jpg","forget","old","72","4","practice_recog","left","","","",""
"html-keyboard-response","189","731917","0.0-3.1-3.1-2.23-0.23","zd6jqnjxaw8fk76","practice_cue","5e19961e1b8014222555c3b2","5f60e3c0a3b16e07647b2ff9","5f646a603b94e71f0cd3fd7f","false","null","<span style=""color: red; font-size: 48px"">Error!</span>","null","","","","feedback","","","","","","","","","","","","","","","",""
"html-keyboard-response","190","733918","0.0-3.1-3.1-3.23","zd6jqnjxaw8fk76","practice_cue","5e19961e1b8014222555c3b2","5f60e3c0a3b16e07647b2ff9","5f646a603b94e71f0cd3fd7f","false","null","<div style=""align-items: center; display: flex; color: darkorange; font-size: 90px""><b>ø</b></div>","null","","","","forget_cue","","","","","","","","","","","","","","","",""
"html-keyboard-response","191","734619","0.0-3.1-3.1-0.24","zd6jqnjxaw8fk76","practice_cue","5e19961e1b8014222555c3b2","5f60e3c0a3b16e07647b2ff9","5f646a603b94e71f0cd3fd7f","false","null","<span style=""color: black; font-size: 48px"">M + N</span>","null","","","","resp_prompt","","","","","","","","","","","","","","","",""
"categorize-image","192","735085","0.0-3.1-3.1-1.24","zd6jqnjxaw8fk76","practice_cue","5e19961e1b8014222555c3b2","5f60e3c0a3b16e07647b2ff9","5f646a603b94e71f0cd3fd7f","true","463.4200000000419","./Stimuli/ImagesPractice/LM55.jpg","76","","","","test","false","M + N","83","","LM","LM55.jpg","remember","old","73","4","practice_recog","right","","","",""
"html-keyboard-response","193","735585","0.0-3.1-3.1-2.24-0.24","zd6jqnjxaw8fk76","practice_cue","5e19961e1b8014222555c3b2","5f60e3c0a3b16e07647b2ff9","5f646a603b94e71f0cd3fd7f","false","null","<span style=""color: red; font-size: 48px"">Error!</span>","null","","","","feedback","","","","","","","","","","","","","","","",""
"html-keyboard-response","194","737586","0.0-3.1-3.1-3.24","zd6jqnjxaw8fk76","practice_cue","5e19961e1b8014222555c3b2","5f60e3c0a3b16e07647b2ff9","5f646a603b94e71f0cd3fd7f","false","null","<div style=""align-items: center; display: flex; color: dodgerblue; font-size: 90px""><b>o</b></div>","null","","","","forget_cue","","","","","","","","","","","","","","","",""
"html-keyboard-response","195","738287","0.0-3.1-3.1-0.25","zd6jqnjxaw8fk76","practice_cue","5e19961e1b8014222555c3b2","5f60e3c0a3b16e07647b2ff9","5f646a603b94e71f0cd3fd7f","false","null","<span style=""color: black; font-size: 48px"">M + N</span>","null","","","","resp_prompt","","","","","","","","","","","","","","","",""
"categorize-image","196","738690","0.0-3.1-3.1-1.25","zd6jqnjxaw8fk76","practice_cue","5e19961e1b8014222555c3b2","5f60e3c0a3b16e07647b2ff9","5f646a603b94e71f0cd3fd7f","true","401.2149999907706","./Stimuli/ImagesPractice/LM239.jpg","76","","","","test","false","M + N","83","","LM","LM239.jpg","forget","old","74","4","practice_recog","right","","","",""
"html-keyboard-response","197","739191","0.0-3.1-3.1-2.25-0.25","zd6jqnjxaw8fk76","practice_cue","5e19961e1b8014222555c3b2","5f60e3c0a3b16e07647b2ff9","5f646a603b94e71f0cd3fd7f","false","null","<span style=""color: red; font-size: 48px"">Error!</span>","null","","","","feedback","","","","","","","","","","","","","","","",""
"html-keyboard-response","198","741193","0.0-3.1-3.1-3.25","zd6jqnjxaw8fk76","practice_cue","5e19961e1b8014222555c3b2","5f60e3c0a3b16e07647b2ff9","5f646a603b94e71f0cd3fd7f","false","null","<div style=""align-items: center; display: flex; color: darkorange; font-size: 90px""><b>ø</b></div>","null","","","","forget_cue","","","","","","","","","","","","","","","",""
"html-keyboard-response","199","741894","0.0-3.1-3.1-0.26","zd6jqnjxaw8fk76","practice_cue","5e19961e1b8014222555c3b2","5f60e3c0a3b16e07647b2ff9","5f646a603b94e71f0cd3fd7f","false","null","<span style=""color: black; font-size: 48px"">M + N</span>","null","","","","resp_prompt","","","","","","","","","","","","","","","",""
"categorize-image","200","742213","0.0-3.1-3.1-1.26","zd6jqnjxaw8fk76","practice_cue","5e19961e1b8014222555c3b2","5f60e3c0a3b16e07647b2ff9","5f646a603b94e71f0cd3fd7f","true","317.0549999922514","./Stimuli/ImagesPractice/LN109.jpg","83","","","","test","false","M + N","76","","LN","LN109.jpg","forget","old","75","4","practice_recog","left","","","",""
"html-keyboard-response","201","742714","0.0-3.1-3.1-2.26-0.26","zd6jqnjxaw8fk76","practice_cue","5e19961e1b8014222555c3b2","5f60e3c0a3b16e07647b2ff9","5f646a603b94e71f0cd3fd7f","false","null","<span style=""color: red; font-size: 48px"">Error!</span>","null","","","","feedback","","","","","","","","","","","","","","","",""
"html-keyboard-response","202","744715","0.0-3.1-3.1-3.26","zd6jqnjxaw8fk76","practice_cue","5e19961e1b8014222555c3b2","5f60e3c0a3b16e07647b2ff9","5f646a603b94e71f0cd3fd7f","false","null","<div style=""align-items: center; display: flex; color: darkorange; font-size: 90px""><b>ø</b></div>","null","","","","forget_cue","","","","","","","","","","","","","","","",""
"html-keyboard-response","203","745415","0.0-3.1-3.1-0.27","zd6jqnjxaw8fk76","practice_cue","5e19961e1b8014222555c3b2","5f60e3c0a3b16e07647b2ff9","5f646a603b94e71f0cd3fd7f","false","null","<span style=""color: black; font-size: 48px"">N + M</span>","null","","","","resp_prompt","","","","","","","","","","","","","","","",""
"categorize-image","204","745668","0.0-3.1-3.1-1.27","zd6jqnjxaw8fk76","practice_cue","5e19961e1b8014222555c3b2","5f60e3c0a3b16e07647b2ff9","5f646a603b94e71f0cd3fd7f","true","249.5000000053551","./Stimuli/ImagesPractice/LM224.jpg","83","","","","test","false","N + M","76","","LM","LM224.jpg","remember","old","76","4","practice_recog","left","","","",""
"html-keyboard-response","205","746169","0.0-3.1-3.1-2.27-0.27","zd6jqnjxaw8fk76","practice_cue","5e19961e1b8014222555c3b2","5f60e3c0a3b16e07647b2ff9","5f646a603b94e71f0cd3fd7f","false","null","<span style=""color: red; font-size: 48px"">Error!</span>","null","","","","feedback","","","","","","","","","","","","","","","",""
"html-keyboard-response","206","748170","0.0-3.1-3.1-3.27","zd6jqnjxaw8fk76","practice_cue","5e19961e1b8014222555c3b2","5f60e3c0a3b16e07647b2ff9","5f646a603b94e71f0cd3fd7f","false","null","<div style=""align-items: center; display: flex; color: dodgerblue; font-size: 90px""><b>o</b></div>","null","","","","forget_cue","","","","","","","","","","","","","","","",""
"html-keyboard-response","207","748871","0.0-3.1-3.1-0.28","zd6jqnjxaw8fk76","practice_cue","5e19961e1b8014222555c3b2","5f60e3c0a3b16e07647b2ff9","5f646a603b94e71f0cd3fd7f","false","null","<span style=""color: black; font-size: 48px"">M + N</span>","null","","","","resp_prompt","","","","","","","","","","","","","","","",""
"categorize-image","208","749133","0.0-3.1-3.1-1.28","zd6jqnjxaw8fk76","practice_cue","5e19961e1b8014222555c3b2","5f60e3c0a3b16e07647b2ff9","5f646a603b94e71f0cd3fd7f","true","260.2049999986775","./Stimuli/ImagesPractice/SM61.jpg","76","","","","test","false","M + N","83","","SM","SM61.jpg","remember","old","77","4","practice_recog","right","","","",""
"html-keyboard-response","209","749635","0.0-3.1-3.1-2.28-0.28","zd6jqnjxaw8fk76","practice_cue","5e19961e1b8014222555c3b2","5f60e3c0a3b16e07647b2ff9","5f646a603b94e71f0cd3fd7f","false","null","<span style=""color: red; font-size: 48px"">Error!</span>","null","","","","feedback","","","","","","","","","","","","","","","",""
"html-keyboard-response","210","751636","0.0-3.1-3.1-3.28","zd6jqnjxaw8fk76","practice_cue","5e19961e1b8014222555c3b2","5f60e3c0a3b16e07647b2ff9","5f646a603b94e71f0cd3fd7f","false","null","<div style=""align-items: center; display: flex; color: dodgerblue; font-size: 90px""><b>o</b></div>","null","","","","forget_cue","","","","","","","","","","","","","","","",""
"html-keyboard-response","211","752338","0.0-3.1-3.1-0.29","zd6jqnjxaw8fk76","practice_cue","5e19961e1b8014222555c3b2","5f60e3c0a3b16e07647b2ff9","5f646a603b94e71f0cd3fd7f","false","null","<span style=""color: black; font-size: 48px"">N + M</span>","null","","","","resp_prompt","","","","","","","","","","","","","","","",""
"categorize-image","212","752629","0.0-3.1-3.1-1.29","zd6jqnjxaw8fk76","practice_cue","5e19961e1b8014222555c3b2","5f60e3c0a3b16e07647b2ff9","5f646a603b94e71f0cd3fd7f","true","288.83000000496395","./Stimuli/ImagesPractice/LN4.jpg","76","","","","test","false","N + M","83","","LN","LN4.jpg","forget","old","78","4","practice_recog","right","","","",""
"html-keyboard-response","213","753130","0.0-3.1-3.1-2.29-0.29","zd6jqnjxaw8fk76","practice_cue","5e19961e1b8014222555c3b2","5f60e3c0a3b16e07647b2ff9","5f646a603b94e71f0cd3fd7f","false","null","<span style=""color: red; font-size: 48px"">Error!</span>","null","","","","feedback","","","","","","","","","","","","","","","",""
"html-keyboard-response","214","755131","0.0-3.1-3.1-3.29","zd6jqnjxaw8fk76","practice_cue","5e19961e1b8014222555c3b2","5f60e3c0a3b16e07647b2ff9","5f646a603b94e71f0cd3fd7f","false","null","<div style=""align-items: center; display: flex; color: darkorange; font-size: 90px""><b>ø</b></div>","null","","","","forget_cue","","","","","","","","","","","","","","","",""
"html-keyboard-response","215","755832","0.0-3.1-3.1-0.30","zd6jqnjxaw8fk76","practice_cue","5e19961e1b8014222555c3b2","5f60e3c0a3b16e07647b2ff9","5f646a603b94e71f0cd3fd7f","false","null","<span style=""color: black; font-size: 48px"">N + M</span>","null","","","","resp_prompt","","","","","","","","","","","","","","","",""
"categorize-image","216","756077","0.0-3.1-3.1-1.30","zd6jqnjxaw8fk76","practice_cue","5e19961e1b8014222555c3b2","5f60e3c0a3b16e07647b2ff9","5f646a603b94e71f0cd3fd7f","true","241.99999999837019","./Stimuli/ImagesPractice/LN2.jpg","76","","","","test","false","N + M","83","","LN","LN2.jpg","forget","old","79","4","practice_recog","right","","","",""
"html-keyboard-response","217","756577","0.0-3.1-3.1-2.30-0.30","zd6jqnjxaw8fk76","practice_cue","5e19961e1b8014222555c3b2","5f60e3c0a3b16e07647b2ff9","5f646a603b94e71f0cd3fd7f","false","null","<span style=""color: red; font-size: 48px"">Error!</span>","null","","","","feedback","","","","","","","","","","","","","","","",""
"html-keyboard-response","218","758578","0.0-3.1-3.1-3.30","zd6jqnjxaw8fk76","practice_cue","5e19961e1b8014222555c3b2","5f60e3c0a3b16e07647b2ff9","5f646a603b94e71f0cd3fd7f","false","null","<div style=""align-items: center; display: flex; color: darkorange; font-size: 90px""><b>ø</b></div>","null","","","","forget_cue","","","","","","","","","","","","","","","",""
"html-keyboard-response","219","759279","0.0-3.1-3.1-0.31","zd6jqnjxaw8fk76","practice_cue","5e19961e1b8014222555c3b2","5f60e3c0a3b16e07647b2ff9","5f646a603b94e71f0cd3fd7f","false","null","<span style=""color: black; font-size: 48px"">N + M</span>","null","","","","resp_prompt","","","","","","","","","","","","","","","",""
"categorize-image","220","759497","0.0-3.1-3.1-1.31","zd6jqnjxaw8fk76","practice_cue","5e19961e1b8014222555c3b2","5f60e3c0a3b16e07647b2ff9","5f646a603b94e71f0cd3fd7f","true","214.879999999539","./Stimuli/ImagesPractice/SN205.jpg","83","","","","test","true","N + M","83","","SN","SN205.jpg","forget","old","80","4","practice_recog","left","","","",""
"html-keyboard-response","221","761498","0.0-3.1-3.1-3.31","zd6jqnjxaw8fk76","practice_cue","5e19961e1b8014222555c3b2","5f60e3c0a3b16e07647b2ff9","5f646a603b94e71f0cd3fd7f","false","null","<div style=""align-items: center; display: flex; color: darkorange; font-size: 90px""><b>ø</b></div>","null","","","","forget_cue","","","","","","","","","","","","","","","",""
"html-keyboard-response","222","766146","0.0-3.1-4.1","zd6jqnjxaw8fk76","break","5e19961e1b8014222555c3b2","5f60e3c0a3b16e07647b2ff9","5f646a603b94e71f0cd3fd7f","false","4647.414999999455","<p style='font-size: 32px;'>Break</><br><br><br><br><br><p style='font-size: 24px;'>In the last block, you committed 11 errors and did not respond in time on 0 trials.
</p><p style='font-size: 24px;'>Try to respond as fast and accurately as possible in the next block as well! </p><p style='font-size: 24px;'>Press SPACE to continue.</p>","32","","","","","","","","","","","","","","","","","","","",""
"html-keyboard-response","223","769090","0.0-3.1-5.1","zd6jqnjxaw8fk76","instructions","5e19961e1b8014222555c3b2","5f60e3c0a3b16e07647b2ff9","5f646a603b94e71f0cd3fd7f","false","2943.054999996093","<div align=left> Now, to practice, we kindly ask you to remember as many of the to-be-remembered pictures<br>of the previous learning phase as possible.<br><br>The pictures you were instructed to remember were the pictures followed by a <span style='color: dodgerblue; font-size: 28px'>O</span>.<br><br>In this memory test phase, you will also see some new pictures.<br>It is your task to remember whether you were presented with this specific picture in this study so far or not.<br>If you recognize an object (you have already seen it in this study), it is an OLD object. <br>If you do not recognize an object (you have NOT seen it in this study), it is a NEW object. <br><strong> Attention</strong>: As already mentioned, <span style='color: darkorange; font-size:28px'>Ø</span>-pictures will <strong>never</strong> appear in this memory test (neither as new objects). <br><br>Press SPACE to continue. </div>","32","","","","","","","","","","","","","","","","","","","",""
"html-keyboard-response","224","770716","0.0-3.1-6.1","zd6jqnjxaw8fk76","instructions","5e19961e1b8014222555c3b2","5f60e3c0a3b16e07647b2ff9","5f646a603b94e71f0cd3fd7f","false","1625.2200000017183","<div align=left> M and N no longer will appear on the left/right of the fixation cross. <br>Instead there will be a note at the bottom of the left or right side  <br>indicating which key you should press for an old or new object:  <br> <br>Press the <strong>right</strong> key to classify an object as <strong>old</strong> and press the <strong>left</strong>, to classify an object as <strong>new</strong>.<br>Please classify the objects as new/old by again placing your index finger on the 'S' and 'L' keys <br>and press them accordingly.<br><br><strong>Old:</strong> This object has been presented before. <br><strong>New:</strong> This object has <strong>not</strong> been presented.<br><br>Now please put your right and left index fingers on the 'S' and 'L' keys of your keyboard. <br>Please respond as fast and as accurately as possible!<br><br>Press SPACE to continue. </div>","32","","","","","","","","","","","","","","","","","","","",""
"categorize-image","225","772593","0.0-3.1-7.1-0.16","zd6jqnjxaw8fk76","practice_recog","5e19961e1b8014222555c3b2","5f60e3c0a3b16e07647b2ff9","5f646a603b94e71f0cd3fd7f","true","1375.0399999989895","./Stimuli/ImagesPractice/SM37.jpg","76","","","","test","true","","76","","SM","SM37.jpg","","old","81","5","practice_recog","right","","","",""
"categorize-image","226","773981","0.0-3.1-7.1-0.17","zd6jqnjxaw8fk76","practice_recog","5e19961e1b8014222555c3b2","5f60e3c0a3b16e07647b2ff9","5f646a603b94e71f0cd3fd7f","true","886.1199999955716","./Stimuli/ImagesPractice/SM35.jpg","76","","","","test","true","","76","","SM","SM35.jpg","","old","82","5","practice_recog","right","","","",""
"categorize-image","227","775133","0.0-3.1-7.1-0.18","zd6jqnjxaw8fk76","practice_recog","5e19961e1b8014222555c3b2","5f60e3c0a3b16e07647b2ff9","5f646a603b94e71f0cd3fd7f","true","650.1449999923352","./Stimuli/ImagesPractice/LM224.jpg","76","","","","test","true","","76","","LM","LM224.jpg","","old","83","5","practice_recog","right","","","",""
"categorize-image","228","777970","0.0-3.1-7.1-0.19","zd6jqnjxaw8fk76","practice_recog","5e19961e1b8014222555c3b2","5f60e3c0a3b16e07647b2ff9","5f646a603b94e71f0cd3fd7f","true","2335.399999996298","./Stimuli/ImagesPractice/SN75.jpg","83","","","","test","true","","83","","SN","SN75.jpg","","new","84","5","practice_recog","left","","","",""
"categorize-image","229","779255","0.0-3.1-7.1-0.20","zd6jqnjxaw8fk76","practice_recog","5e19961e1b8014222555c3b2","5f60e3c0a3b16e07647b2ff9","5f646a603b94e71f0cd3fd7f","true","782.8000000008615","./Stimuli/ImagesPractice/SN222.jpg","76","","","","test","true","","76","","SN","SN222.jpg","","old","85","5","practice_recog","right","","","",""
"categorize-image","230","781039","0.0-3.1-7.1-0.21","zd6jqnjxaw8fk76","practice_recog","5e19961e1b8014222555c3b2","5f60e3c0a3b16e07647b2ff9","5f646a603b94e71f0cd3fd7f","true","1283.0899999971734","./Stimuli/ImagesPractice/LN72.jpg","83","","","","test","true","","83","","LN","LN72.jpg","","new","86","5","practice_recog","left","","","",""
"categorize-image","231","782764","0.0-3.1-7.1-0.22","zd6jqnjxaw8fk76","practice_recog","5e19961e1b8014222555c3b2","5f60e3c0a3b16e07647b2ff9","5f646a603b94e71f0cd3fd7f","true","1223.8050000014482","./Stimuli/ImagesPractice/SM62.jpg","76","","","","test","true","","76","","SM","SM62.jpg","","old","87","5","practice_recog","right","","","",""
"categorize-image","232","785223","0.0-3.1-7.1-0.23","zd6jqnjxaw8fk76","practice_recog","5e19961e1b8014222555c3b2","5f60e3c0a3b16e07647b2ff9","5f646a603b94e71f0cd3fd7f","true","1957.6399999932619","./Stimuli/ImagesPractice/LM230.jpg","83","","","","test","true","","83","","LM","LM230.jpg","","new","88","5","practice_recog","left","","","",""
"categorize-image","233","786654","0.0-3.1-7.1-0.24","zd6jqnjxaw8fk76","practice_recog","5e19961e1b8014222555c3b2","5f60e3c0a3b16e07647b2ff9","5f646a603b94e71f0cd3fd7f","true","929.4999999983702","./Stimuli/ImagesPractice/SM61.jpg","76","","","","test","true","","76","","SM","SM61.jpg","","old","89","5","practice_recog","right","","","",""
