"trial_type","trial_index","time_elapsed","internal_node_id","subject","exp_part","prolific_PID","study_ID","session_ID","use","rt","stimulus","key_press","button_pressed","responses","question_order","trial_part","correct","resp_map","correct_resp","probe_condition","category","image","forget_condition","list","trial_num","block_num","block","response","test_part","n_span","sequence","num_spaces"
"pavlovia","0","11","0.0-0.0","69245ub2ud666qm","","5ee91b02e2573929f460e50b","5f60e3c0a3b16e07647b2ff9","5f60ec3d7010ac2bcf1","false","","","","","","","","","","","","","","","","","","","","","","",""
"html-keyboard-response","1","35121","0.0-1.0-0.0-0.0","69245ub2ud666qm","welcome","5ee91b02e2573929f460e50b","5f60e3c0a3b16e07647b2ff9","5f60ec3d7010ac2bcf1","false","35104.090000037104","<div align=left>Dear participant, <br> thank you for participating in an online study of the Cognition, Action, and Sustainability Unit of the University of Freiburg! <br> <br>The aim of this study is to examine our ability to remember previously learned information. <br>Our goal is to find out, whether our memory improves, when we only remember information that is relevant to us. <br>The experiment will take about 35 minutes to complete. <br> <br>Please, note that you can only participate in this study if you are using a device with a keyboard (PC, Laptop etc.) <br>and not if you are using a mobile device such as a tablet or smartphone.<br> <br>Press 'SPACE' to proceed to the experiment. </div>","32","","","","","","","","","","","","","","","","","","","",""
"html-keyboard-response","2","66367","0.0-1.0-0.0-1.0","69245ub2ud666qm","welcome","5ee91b02e2573929f460e50b","5f60e3c0a3b16e07647b2ff9","5f60ec3d7010ac2bcf1","false","31241.44500005059","<div align=left><strong> Time Course of this experiment: </strong> <br><br> <strong> 1.</strong>  First, please fill in some information regarding your demographic data. <br><br> <strong> 2.</strong>  Next, your task will be to classify everyday objects. <br>In addition, you will be asked to remember certain objects and recall them later. <br>Working on these tasks requires your undivided attention and concentration.<br>It is therefore essential that you eliminate any sources of distraction in your  <br>environment and ensure that you will not be disturbed. <br><br><strong> 3.</strong>  At the end of the experiment, you will be asked to answer a few additional questions. <br> <br><strong> Important:</strong> After finishing the experiment, only close the browser window <br> by clicking on the 'end the experiment'-button when you are asked to do so. <br>Closing the browser window prematurely will make the allocation of your participation credit impossible. <br><br> Press 'SPACE' to start the experiment. </div>","32","","","","","","","","","","","","","","","","","","","",""
"html-button-response","3","71109","0.0-1.0-0.0-2.0","69245ub2ud666qm","welcome","5ee91b02e2573929f460e50b","5f60e3c0a3b16e07647b2ff9","5f60ec3d7010ac2bcf1","true","4738.724999828264","<div align=left><strong> Informed consent </strong>  <br>The aim of our research is to better understand human behavior and mental processes. <br>In the following study your behavior (e.g. choices, reaction times) will be studied. <br> <br><strong> Voluntariness and Anonymity </strong> <br>Your participation in this study is  <strong> voluntary</strong>.<br>You may withdraw your consent to participate at any time without providing a reason for doing so and without fear of prejudice. <br><br>As no personal data will be collected, <strong>your data and your person cannot be connected after data collection</strong> – the data-set is anonymous. <br>Respectively, deletion of your data will not be possible after data collection has been completed, as we cannot retrace your data-set.<br>The results and anonymized data collected in this study will be published as a scientific publication. <br>This will happen in an <strong>anonymized format</strong>, so that no data can be traced back to a specific person. <br> <br>The anonymized data of this study will be made available to other researchers and/or in a data archive on the Internet as a means of transparency and to enable subsequent re-use. By doing so, this study follows the recommendations of the Deutsche Forschungsgemeinschaft (DFG, German Research Foundation) and Deutsche Gesellschaft für Psychologie (DGPS, German Psychological Society) regarding quality assurance in research.<br>If you have any questions now or after the experiment, please contact our team (experiments@cs.uni-freiburg.de).<br><br><br>I hereby declare, that I understand the above described conditions of participation and I agree to participate under these conditions. <br><br> </div>","","0","","","","","","","","","","","","","","","","","","",""
"html-keyboard-response","4","90830","0.0-1.0-0.0-3.0","69245ub2ud666qm","welcome","5ee91b02e2573929f460e50b","5f60e3c0a3b16e07647b2ff9","5f60ec3d7010ac2bcf1","false","19716.495000058785","<div align=left><strong> General information concerning the experiment </strong>  <br> <br>Please follow the instructions:<ol> <li><strong> Do not leave this tab (your browser window) during the experiment and do not reload this tab! </strong>  <br>If you do switch tabs/windows during the experiment (to check your mail or visit another website, for example), <br>the experiment will end automatically and you will <strong>not receive credit</strong> for your participation. <br>Repeated participation or resumption of the experiment is impossible.</li> <br><li>Please close all other programs for the duration of your participation. </li> <br><li>Please mute or turn off your phone and put it out of your reach. </li> <br><li>Please also take off any disturbing accessories (such as wristwatches, bracelets, etc.). </li> <br><li>If you have music playing in the background, please turn it off now. </li> <br></ol>Thank you! <br>Press 'SPACE' to continue. </div>","32","","","","","","","","","","","","","","","","","","","",""
"survey-text","5","95682","0.0-1.0-1.0-0.0","69245ub2ud666qm","demographics","5ee91b02e2573929f460e50b","5f60e3c0a3b16e07647b2ff9","5f60ec3d7010ac2bcf1","true","4840.564999962226","","","","{""age"":""26""}","","","","","","","","","","","","","","","","","",""
"survey-multi-choice","6","127977","0.0-1.0-1.0-1.0","69245ub2ud666qm","demographics","5ee91b02e2573929f460e50b","5f60e3c0a3b16e07647b2ff9","5f60ec3d7010ac2bcf1","true","32289.55000010319","","","","{""gender"":""male"",""school"":""high school"",""education"":""Doctorate degree""}","[0,1,2]","","","","","","","","","","","","","","","","",""
"html-keyboard-response","7","145638","0.0-1.0-2.0","69245ub2ud666qm","instructions","5ee91b02e2573929f460e50b","5f60e3c0a3b16e07647b2ff9","5f60ec3d7010ac2bcf1","false","17649.64000019245","<div align=left> The experiment is now about to start: <br> <br>In the following part, you will be presented pictures of everyday objects. <br>Your first task is to <strong>classify these objects. </strong> <br> <br> You will classify them either as mechanical or non-mechanical objects. <br> <br>Objects that include any kind of technical mechanism (for example, wheels, switches, levers, <br> electronic components) fall under the category of <strong>mechanical</strong> objects. <br>Only objects without any kind of technical mechanism should be classified as <strong>non-mechanical</strong>. <br><br>Press 'SPACE' to continue. </div>","32","","","","","","","","","","","","","","","","","","","",""
"html-keyboard-response","8","215226","0.0-2.0-0.0","69245ub2ud666qm","instructions","5ee91b02e2573929f460e50b","5f60e3c0a3b16e07647b2ff9","5f60ec3d7010ac2bcf1","false","69585.44999989681","<div align=justify>You will classify the objects using the <strong>'S'</strong> and the <strong>'L'</strong> keys on your keyboard.<br>For doing so, please place your <strong>left index finger</strong> on the <strong>'S'</strong> key and place your <strong>right index finger</strong> on the <strong>'L'</strong> key. <br><br> Each trial starts with an instruction, indicating which key ('S'/'L') you need to press to classify <br>the object as mechanical (letter M) or non-mechanical (letter N).<br>The instruction <strong>M + N</strong> indicates that, in the current trial, by pressing the left key ('S') you classify the displayed object as mechanical (M) <br> and by pressing the right key ('L') you classify the object as non-mechanical (N). <br>The instruction <strong>N + M</strong> on the other hand indicates that by pressing the left key ('S') you classify the displayed object as non-mechanical (N) <br> and by pressing the right key ('L') you classify the object as mechanical (M). <br><br>Please press the key corresponding to the correct classification as fast as possible as soon as the object is displayed and try to avoid making mistakes.<br>If you do not respond within a 2 second window, a corresponding feedback will be displayed and the next trial will start.<br> The experiment is divided into multiple blocks to give you the opportunity to take a break after each block. <br>First, you can now practice this task. <br><br>Please place your <strong>LEFT INDEX FINGER</strong> on the 'S' key and your <strong>RIGHT INDEX FINGER</strong> on the 'L' key now. <br><br>Press SPACE to continue.</div>","32","","","","","","","","","","","","","","","","","","","",""
"html-keyboard-response","9","219913","0.0-2.0-1.0","69245ub2ud666qm","instructions","5ee91b02e2573929f460e50b","5f60e3c0a3b16e07647b2ff9","5f60ec3d7010ac2bcf1","false","4685.274999821559","<div align=left> You will now have time to practice this task.<br><br>Remember: <br> <br><li>Please place your index fingers on the <strong>'S'</strong> and <strong>'L'</strong> keys <br>to respond as fast and accurately as possible.</li><li>Every picture can be classified as either mechanical or non-mechanical.</li><li>If you do not respond in time or commit an error, you will receive a corresponding feedback. </li><li> Please try to respond as <strong> fast </strong> and as <strong> accurately as possible </strong> .<br><li>To ensure optimal results, please minimize distractions and stay focused. </li><br><br>Press SPACE to continue.</div>","32","","","","","","","","","","","","","","","","","","","",""
"html-keyboard-response","10","220623","0.0-2.0-2.0-0.0","69245ub2ud666qm","practice_no_cue","5ee91b02e2573929f460e50b","5f60e3c0a3b16e07647b2ff9","5f60ec3d7010ac2bcf1","false","null","<span style=""color: black; font-size: 48px"">N + M</span>","null","","","","resp_prompt","","","","","","","","","","","","","","","",""
"categorize-image","11","222332","0.0-2.0-2.0-1.0","69245ub2ud666qm","practice_no_cue","5ee91b02e2573929f460e50b","5f60e3c0a3b16e07647b2ff9","5f60ec3d7010ac2bcf1","true","1198.2249999418855","./Stimuli/ImagesPractice/LM239.jpg","76","","","","test","true","N + M","76","","LM","LM239.jpg","forget","old","1","1","start","right","","","",""
"html-keyboard-response","12","223037","0.0-2.0-2.0-0.1","69245ub2ud666qm","practice_no_cue","5ee91b02e2573929f460e50b","5f60e3c0a3b16e07647b2ff9","5f60ec3d7010ac2bcf1","false","null","<span style=""color: black; font-size: 48px"">N + M</span>","null","","","","resp_prompt","","","","","","","","","","","","","","","",""
"categorize-image","13","224469","0.0-2.0-2.0-1.1","69245ub2ud666qm","practice_no_cue","5ee91b02e2573929f460e50b","5f60e3c0a3b16e07647b2ff9","5f60ec3d7010ac2bcf1","true","927.9800001531839","./Stimuli/ImagesPractice/LM230.jpg","76","","","","test","true","N + M","76","","LM","LM230.jpg","forget","old","2","1","start","right","","","",""
"html-keyboard-response","14","225184","0.0-2.0-2.0-0.2","69245ub2ud666qm","practice_no_cue","5ee91b02e2573929f460e50b","5f60e3c0a3b16e07647b2ff9","5f60ec3d7010ac2bcf1","false","null","<span style=""color: black; font-size: 48px"">N + M</span>","null","","","","resp_prompt","","","","","","","","","","","","","","","",""
"categorize-image","15","226334","0.0-2.0-2.0-1.2","69245ub2ud666qm","practice_no_cue","5ee91b02e2573929f460e50b","5f60e3c0a3b16e07647b2ff9","5f60ec3d7010ac2bcf1","true","647.0749999862164","./Stimuli/ImagesPractice/SN220.jpg","83","","","","test","true","N + M","83","","SN","SN220.jpg","remember","old","3","1","start","left","","","",""
"html-keyboard-response","16","227039","0.0-2.0-2.0-0.3","69245ub2ud666qm","practice_no_cue","5ee91b02e2573929f460e50b","5f60e3c0a3b16e07647b2ff9","5f60ec3d7010ac2bcf1","false","null","<span style=""color: black; font-size: 48px"">N + M</span>","null","","","","resp_prompt","","","","","","","","","","","","","","","",""
"categorize-image","17","228115","0.0-2.0-2.0-1.3","69245ub2ud666qm","practice_no_cue","5ee91b02e2573929f460e50b","5f60e3c0a3b16e07647b2ff9","5f60ec3d7010ac2bcf1","true","559.8699999973178","./Stimuli/ImagesPractice/SM35.jpg","76","","","","test","true","N + M","76","","SM","SM35.jpg","forget","old","4","1","start","right","","","",""
"html-keyboard-response","18","228825","0.0-2.0-2.0-0.4","69245ub2ud666qm","practice_no_cue","5ee91b02e2573929f460e50b","5f60e3c0a3b16e07647b2ff9","5f60ec3d7010ac2bcf1","false","null","<span style=""color: black; font-size: 48px"">M + N</span>","null","","","","resp_prompt","","","","","","","","","","","","","","","",""
"categorize-image","19","229978","0.0-2.0-2.0-1.4","69245ub2ud666qm","practice_no_cue","5ee91b02e2573929f460e50b","5f60e3c0a3b16e07647b2ff9","5f60ec3d7010ac2bcf1","true","644.0850000362843","./Stimuli/ImagesPractice/LM147.jpg","83","","","","test","true","M + N","83","","LM","LM147.jpg","forget","old","5","1","start","left","","","",""
"html-keyboard-response","20","230695","0.0-2.0-2.0-0.5","69245ub2ud666qm","practice_no_cue","5ee91b02e2573929f460e50b","5f60e3c0a3b16e07647b2ff9","5f60ec3d7010ac2bcf1","false","null","<span style=""color: black; font-size: 48px"">N + M</span>","null","","","","resp_prompt","","","","","","","","","","","","","","","",""
"categorize-image","21","231666","0.0-2.0-2.0-1.5","69245ub2ud666qm","practice_no_cue","5ee91b02e2573929f460e50b","5f60e3c0a3b16e07647b2ff9","5f60ec3d7010ac2bcf1","true","466.50500013493","./Stimuli/ImagesPractice/LM55.jpg","76","","","","test","true","N + M","76","","LM","LM55.jpg","remember","old","6","1","start","right","","","",""
"html-keyboard-response","22","232373","0.0-2.0-2.0-0.6","69245ub2ud666qm","practice_no_cue","5ee91b02e2573929f460e50b","5f60e3c0a3b16e07647b2ff9","5f60ec3d7010ac2bcf1","false","null","<span style=""color: black; font-size: 48px"">M + N</span>","null","","","","resp_prompt","","","","","","","","","","","","","","","",""
"categorize-image","23","233416","0.0-2.0-2.0-1.6","69245ub2ud666qm","practice_no_cue","5ee91b02e2573929f460e50b","5f60e3c0a3b16e07647b2ff9","5f60ec3d7010ac2bcf1","true","525.2249999903142","./Stimuli/ImagesPractice/SM37.jpg","83","","","","test","true","M + N","83","","SM","SM37.jpg","forget","old","7","1","start","left","","","",""
"html-keyboard-response","24","234126","0.0-2.0-2.0-0.7","69245ub2ud666qm","practice_no_cue","5ee91b02e2573929f460e50b","5f60e3c0a3b16e07647b2ff9","5f60ec3d7010ac2bcf1","false","null","<span style=""color: black; font-size: 48px"">N + M</span>","null","","","","resp_prompt","","","","","","","","","","","","","","","",""
"categorize-image","25","235217","0.0-2.0-2.0-1.7","69245ub2ud666qm","practice_no_cue","5ee91b02e2573929f460e50b","5f60e3c0a3b16e07647b2ff9","5f60ec3d7010ac2bcf1","true","580.9700000099838","./Stimuli/ImagesPractice/LN2.jpg","83","","","","test","true","N + M","83","","LN","LN2.jpg","remember","old","8","1","start","left","","","",""
"html-keyboard-response","26","235926","0.0-2.0-2.0-0.8","69245ub2ud666qm","practice_no_cue","5ee91b02e2573929f460e50b","5f60e3c0a3b16e07647b2ff9","5f60ec3d7010ac2bcf1","false","null","<span style=""color: black; font-size: 48px"">N + M</span>","null","","","","resp_prompt","","","","","","","","","","","","","","","",""
"categorize-image","27","236970","0.0-2.0-2.0-1.8","69245ub2ud666qm","practice_no_cue","5ee91b02e2573929f460e50b","5f60e3c0a3b16e07647b2ff9","5f60ec3d7010ac2bcf1","true","528.0049999710172","./Stimuli/ImagesPractice/SN221.jpg","83","","","","test","true","N + M","83","","SN","SN221.jpg","forget","old","9","1","start","left","","","",""
"html-keyboard-response","28","237678","0.0-2.0-2.0-0.9","69245ub2ud666qm","practice_no_cue","5ee91b02e2573929f460e50b","5f60e3c0a3b16e07647b2ff9","5f60ec3d7010ac2bcf1","false","null","<span style=""color: black; font-size: 48px"">M + N</span>","null","","","","resp_prompt","","","","","","","","","","","","","","","",""
"categorize-image","29","239218","0.0-2.0-2.0-1.9","69245ub2ud666qm","practice_no_cue","5ee91b02e2573929f460e50b","5f60e3c0a3b16e07647b2ff9","5f60ec3d7010ac2bcf1","true","1031.0649999883026","./Stimuli/ImagesPractice/SM98.jpg","83","","","","test","true","M + N","83","","SM","SM98.jpg","forget","old","10","1","start","left","","","",""
"html-keyboard-response","30","239934","0.0-2.0-2.0-0.10","69245ub2ud666qm","practice_no_cue","5ee91b02e2573929f460e50b","5f60e3c0a3b16e07647b2ff9","5f60ec3d7010ac2bcf1","false","null","<span style=""color: black; font-size: 48px"">N + M</span>","null","","","","resp_prompt","","","","","","","","","","","","","","","",""
"categorize-image","31","241431","0.0-2.0-2.0-1.10","69245ub2ud666qm","practice_no_cue","5ee91b02e2573929f460e50b","5f60e3c0a3b16e07647b2ff9","5f60ec3d7010ac2bcf1","true","984.8400000482798","./Stimuli/ImagesPractice/SM62.jpg","76","","","","test","true","N + M","76","","SM","SM62.jpg","remember","old","11","1","start","right","","","",""
"html-keyboard-response","32","242133","0.0-2.0-2.0-0.11","69245ub2ud666qm","practice_no_cue","5ee91b02e2573929f460e50b","5f60e3c0a3b16e07647b2ff9","5f60ec3d7010ac2bcf1","false","null","<span style=""color: black; font-size: 48px"">M + N</span>","null","","","","resp_prompt","","","","","","","","","","","","","","","",""
"categorize-image","33","243405","0.0-2.0-2.0-1.11","69245ub2ud666qm","practice_no_cue","5ee91b02e2573929f460e50b","5f60e3c0a3b16e07647b2ff9","5f60ec3d7010ac2bcf1","true","765.4249998740852","./Stimuli/ImagesPractice/LN4.jpg","76","","","","test","true","M + N","76","","LN","LN4.jpg","remember","old","12","1","start","right","","","",""
"html-keyboard-response","34","244108","0.0-2.0-2.0-0.12","69245ub2ud666qm","practice_no_cue","5ee91b02e2573929f460e50b","5f60e3c0a3b16e07647b2ff9","5f60ec3d7010ac2bcf1","false","null","<span style=""color: black; font-size: 48px"">M + N</span>","null","","","","resp_prompt","","","","","","","","","","","","","","","",""
"categorize-image","35","245423","0.0-2.0-2.0-1.12","69245ub2ud666qm","practice_no_cue","5ee91b02e2573929f460e50b","5f60e3c0a3b16e07647b2ff9","5f60ec3d7010ac2bcf1","true","803.9649999700487","./Stimuli/ImagesPractice/LN17.jpg","83","","","","test","false","M + N","76","","LN","LN17.jpg","remember","old","13","1","start","left","","","",""
"html-keyboard-response","36","246130","0.0-2.0-2.0-0.13","69245ub2ud666qm","practice_no_cue","5ee91b02e2573929f460e50b","5f60e3c0a3b16e07647b2ff9","5f60ec3d7010ac2bcf1","false","null","<span style=""color: black; font-size: 48px"">M + N</span>","null","","","","resp_prompt","","","","","","","","","","","","","","","",""
"categorize-image","37","247438","0.0-2.0-2.0-1.13","69245ub2ud666qm","practice_no_cue","5ee91b02e2573929f460e50b","5f60e3c0a3b16e07647b2ff9","5f60ec3d7010ac2bcf1","true","791.5149999316782","./Stimuli/ImagesPractice/SN75.jpg","76","","","","test","true","M + N","76","","SN","SN75.jpg","remember","old","14","1","start","right","","","",""
"html-keyboard-response","38","248150","0.0-2.0-2.0-0.14","69245ub2ud666qm","practice_no_cue","5ee91b02e2573929f460e50b","5f60e3c0a3b16e07647b2ff9","5f60ec3d7010ac2bcf1","false","null","<span style=""color: black; font-size: 48px"">M + N</span>","null","","","","resp_prompt","","","","","","","","","","","","","","","",""
"categorize-image","39","249676","0.0-2.0-2.0-1.14","69245ub2ud666qm","practice_no_cue","5ee91b02e2573929f460e50b","5f60e3c0a3b16e07647b2ff9","5f60ec3d7010ac2bcf1","true","1018.3499997947365","./Stimuli/ImagesPractice/LN109.jpg","76","","","","test","true","M + N","76","","LN","LN109.jpg","remember","old","15","1","start","right","","","",""
"html-keyboard-response","40","250381","0.0-2.0-2.0-0.15","69245ub2ud666qm","practice_no_cue","5ee91b02e2573929f460e50b","5f60e3c0a3b16e07647b2ff9","5f60ec3d7010ac2bcf1","false","null","<span style=""color: black; font-size: 48px"">M + N</span>","null","","","","resp_prompt","","","","","","","","","","","","","","","",""
"categorize-image","41","251588","0.0-2.0-2.0-1.15","69245ub2ud666qm","practice_no_cue","5ee91b02e2573929f460e50b","5f60e3c0a3b16e07647b2ff9","5f60ec3d7010ac2bcf1","true","703.490000218153","./Stimuli/ImagesPractice/SN76.jpg","76","","","","test","true","M + N","76","","SN","SN76.jpg","forget","old","16","1","start","right","","","",""
"html-keyboard-response","42","271156","0.0-2.0-3.0","69245ub2ud666qm","break","5ee91b02e2573929f460e50b","5f60e3c0a3b16e07647b2ff9","5f60ec3d7010ac2bcf1","false","19564.114999957383","<p style='font-size: 32px;'>Break</><br><br><br><br><br><p style='font-size: 24px;'>In the last block, you committed 1 errors and did not respond in time on 0 trials.
</p><p style='font-size: 24px;'>Try to respond as fast and accurately as possible in the next block as well! </p><p style='font-size: 24px;'>Press SPACE to continue.</p>","32","","","","","","","","","","","","","","","","","","","",""
"html-keyboard-response","43","281427","0.0-2.0-4.0","69245ub2ud666qm","instructions","5ee91b02e2573929f460e50b","5f60e3c0a3b16e07647b2ff9","5f60ec3d7010ac2bcf1","false","10269.164999946952","<div align=left> Great!<br><br>Are you ready to continue?<br><br>If you want to reread the instructions and redo the practice trials, <br>please press „Z“. <br><br>Press SPACE to CONTINUE with the experiment when you are ready. </div>","32","","","","","","","","","","","","","","","","","","","",""
"html-keyboard-response","44","335788","0.0-3.0-0.0","69245ub2ud666qm","instructions","5ee91b02e2573929f460e50b","5f60e3c0a3b16e07647b2ff9","5f60ec3d7010ac2bcf1","false","54359.2400001362","<div align=left>Great!<br> <strong>Attention</strong>! You will now receive a second, additional task! <br><br>To this point it was you <strong>first task</strong> to correctly <strong>classify objects</strong>. <br><br>As mentioned in the beginning, we aim to examine how well humans can remember previously learned information.<br>We would like to find out whether our memory improves if we only remember information that is relevant to us. <br><br>Therefore, your <strong>second task</strong> will be to <strong>remember</strong> the pictures you are to categorize. <br> After the learning phase, there will be a memory test phase, in which you will be asked to indicate whether you have seen a picture before or not. <br>Some, but not all pictures shown in the learning phase will appear in the memory test phase.<br>After classifying a picture, you will be told whether you should remember it for the memory test phase or not. <br>Thus, some pictures can be forgotten, whereas others have to be remembered. <br><br>Note: From now on, feedback will only be displayed if you responded incorrectly or not in time.<br><br>Press SPACE to continue.</div>","32","","","","","","","","","","","","","","","","","","","",""
"html-keyboard-response","45","367909","0.0-3.0-1.0","69245ub2ud666qm","instructions","5ee91b02e2573929f460e50b","5f60e3c0a3b16e07647b2ff9","5f60ec3d7010ac2bcf1","false","32119.08999993466","<div align=left>In the following part, you will thus have to remember only some pictures. <br>Immediately after seeing and classifying the picture, a symbol will be displayed, indicating whether you should remember or forget the previous picture. <br><br>A <span style='color: dodgerblue; font-size: 28px'>O</span> indicates REMEMBER. That means, you have to remember this picture, because it will be tested later. <br><br>A <span style='color: darkorange; font-size:28px'>Ø</span> indicates FORGET. You do not have to remember this picture. <br><br> As you will have to remember a lot of pictures, it will be hard for you to remember all of them. <br>It will put you at an advantage if you instantly forget the pictures you are not asked to remember. <br> This will make it easier for you to remember the pictures that will be tested afterwards. <br><br>Press SPACE to continue.</div>","32","","","","","","","","","","","","","","","","","","","",""
"html-keyboard-response","46","373385","0.0-3.0-2.0","69245ub2ud666qm","instructions","5ee91b02e2573929f460e50b","5f60e3c0a3b16e07647b2ff9","5f60ec3d7010ac2bcf1","false","5471.6199999675155","<div align=left> Now you have the chance to practice both tasks together.<br><br>Remember: <br> <br><li>Please place your index fingers on the <strong>'S'</strong> and <strong>'L'</strong> keys <br>to respond as fast and accurately as possible.</li><li>Every picture can be classified as either mechanical or non-mechanical.</li><li>If you do not respond in time or commit an error, you will receive a corresponding feedback. <br>Please try to respond as <strong> fast </strong> and as <strong> accurately as possible </strong>.</li><li> Please remember only the to-be-remembered <span style='color: dodgerblue; font-size: 28px'>O</span> pictures. <br></li><li> Please minimize distractions and stay focused. </li><br><br>Press SPACE to START</div>","32","","","","","","","","","","","","","","","","","","","",""
"html-keyboard-response","47","374098","0.0-3.0-3.0-0.0","69245ub2ud666qm","practice_cue","5ee91b02e2573929f460e50b","5f60e3c0a3b16e07647b2ff9","5f60ec3d7010ac2bcf1","false","null","<span style=""color: black; font-size: 48px"">N + M</span>","null","","","","resp_prompt","","","","","","","","","","","","","","","",""
"categorize-image","48","374601","0.0-3.0-3.0-1.0","69245ub2ud666qm","practice_cue","5ee91b02e2573929f460e50b","5f60e3c0a3b16e07647b2ff9","5f60ec3d7010ac2bcf1","true","493.0600000079721","./Stimuli/ImagesPractice/LM230.jpg","76","","","","test","true","N + M","76","","LM","LM230.jpg","forget","old","17","2","practice_forget","right","","","",""
"html-keyboard-response","49","376612","0.0-3.0-3.0-3.0","69245ub2ud666qm","practice_cue","5ee91b02e2573929f460e50b","5f60e3c0a3b16e07647b2ff9","5f60ec3d7010ac2bcf1","false","null","<div style=""align-items: center; display: flex; color: darkorange; font-size: 90px""><b>ø</b></div>","null","","","","forget_cue","","","","","","","","","","","","","","","",""
"html-keyboard-response","50","377329","0.0-3.0-3.0-0.1","69245ub2ud666qm","practice_cue","5ee91b02e2573929f460e50b","5f60e3c0a3b16e07647b2ff9","5f60ec3d7010ac2bcf1","false","null","<span style=""color: black; font-size: 48px"">M + N</span>","null","","","","resp_prompt","","","","","","","","","","","","","","","",""
"categorize-image","51","377960","0.0-3.0-3.0-1.1","69245ub2ud666qm","practice_cue","5ee91b02e2573929f460e50b","5f60e3c0a3b16e07647b2ff9","5f60ec3d7010ac2bcf1","true","622.9449999518692","./Stimuli/ImagesPractice/LN4.jpg","76","","","","test","true","M + N","76","","LN","LN4.jpg","remember","old","18","2","practice_forget","right","","","",""
"html-keyboard-response","52","379973","0.0-3.0-3.0-3.1","69245ub2ud666qm","practice_cue","5ee91b02e2573929f460e50b","5f60e3c0a3b16e07647b2ff9","5f60ec3d7010ac2bcf1","false","null","<div style=""align-items: center; display: flex; color: dodgerblue; font-size: 90px""><b>o</b></div>","null","","","","forget_cue","","","","","","","","","","","","","","","",""
"html-keyboard-response","53","380678","0.0-3.0-3.0-0.2","69245ub2ud666qm","practice_cue","5ee91b02e2573929f460e50b","5f60e3c0a3b16e07647b2ff9","5f60ec3d7010ac2bcf1","false","null","<span style=""color: black; font-size: 48px"">M + N</span>","null","","","","resp_prompt","","","","","","","","","","","","","","","",""
"categorize-image","54","381230","0.0-3.0-3.0-1.2","69245ub2ud666qm","practice_cue","5ee91b02e2573929f460e50b","5f60e3c0a3b16e07647b2ff9","5f60ec3d7010ac2bcf1","true","542.3850000370294","./Stimuli/ImagesPractice/SM98.jpg","83","","","","test","true","M + N","83","","SM","SM98.jpg","forget","old","19","2","practice_forget","left","","","",""
"html-keyboard-response","55","383244","0.0-3.0-3.0-3.2","69245ub2ud666qm","practice_cue","5ee91b02e2573929f460e50b","5f60e3c0a3b16e07647b2ff9","5f60ec3d7010ac2bcf1","false","null","<div style=""align-items: center; display: flex; color: darkorange; font-size: 90px""><b>ø</b></div>","null","","","","forget_cue","","","","","","","","","","","","","","","",""
"html-keyboard-response","56","383962","0.0-3.0-3.0-0.3","69245ub2ud666qm","practice_cue","5ee91b02e2573929f460e50b","5f60e3c0a3b16e07647b2ff9","5f60ec3d7010ac2bcf1","false","null","<span style=""color: black; font-size: 48px"">N + M</span>","null","","","","resp_prompt","","","","","","","","","","","","","","","",""
"categorize-image","57","384535","0.0-3.0-3.0-1.3","69245ub2ud666qm","practice_cue","5ee91b02e2573929f460e50b","5f60e3c0a3b16e07647b2ff9","5f60ec3d7010ac2bcf1","true","565.279999980703","./Stimuli/ImagesPractice/SN220.jpg","83","","","","test","true","N + M","83","","SN","SN220.jpg","remember","old","20","2","practice_forget","left","","","",""
"html-keyboard-response","58","386550","0.0-3.0-3.0-3.3","69245ub2ud666qm","practice_cue","5ee91b02e2573929f460e50b","5f60e3c0a3b16e07647b2ff9","5f60ec3d7010ac2bcf1","false","null","<div style=""align-items: center; display: flex; color: dodgerblue; font-size: 90px""><b>o</b></div>","null","","","","forget_cue","","","","","","","","","","","","","","","",""
"html-keyboard-response","59","387263","0.0-3.0-3.0-0.4","69245ub2ud666qm","practice_cue","5ee91b02e2573929f460e50b","5f60e3c0a3b16e07647b2ff9","5f60ec3d7010ac2bcf1","false","null","<span style=""color: black; font-size: 48px"">M + N</span>","null","","","","resp_prompt","","","","","","","","","","","","","","","",""
"categorize-image","60","388141","0.0-3.0-3.0-1.4","69245ub2ud666qm","practice_cue","5ee91b02e2573929f460e50b","5f60e3c0a3b16e07647b2ff9","5f60ec3d7010ac2bcf1","true","868.3100000489503","./Stimuli/ImagesPractice/LM147.jpg","83","","","","test","true","M + N","83","","LM","LM147.jpg","forget","old","21","2","practice_forget","left","","","",""
"html-keyboard-response","61","390148","0.0-3.0-3.0-3.4","69245ub2ud666qm","practice_cue","5ee91b02e2573929f460e50b","5f60e3c0a3b16e07647b2ff9","5f60ec3d7010ac2bcf1","false","null","<div style=""align-items: center; display: flex; color: darkorange; font-size: 90px""><b>ø</b></div>","null","","","","forget_cue","","","","","","","","","","","","","","","",""
"html-keyboard-response","62","390857","0.0-3.0-3.0-0.5","69245ub2ud666qm","practice_cue","5ee91b02e2573929f460e50b","5f60e3c0a3b16e07647b2ff9","5f60ec3d7010ac2bcf1","false","null","<span style=""color: black; font-size: 48px"">N + M</span>","null","","","","resp_prompt","","","","","","","","","","","","","","","",""
"categorize-image","63","391887","0.0-3.0-3.0-1.5","69245ub2ud666qm","practice_cue","5ee91b02e2573929f460e50b","5f60e3c0a3b16e07647b2ff9","5f60ec3d7010ac2bcf1","true","1023.2900001574308","./Stimuli/ImagesPractice/SM35.jpg","76","","","","test","true","N + M","76","","SM","SM35.jpg","forget","old","22","2","practice_forget","right","","","",""
"html-keyboard-response","64","393904","0.0-3.0-3.0-3.5","69245ub2ud666qm","practice_cue","5ee91b02e2573929f460e50b","5f60e3c0a3b16e07647b2ff9","5f60ec3d7010ac2bcf1","false","null","<div style=""align-items: center; display: flex; color: darkorange; font-size: 90px""><b>ø</b></div>","null","","","","forget_cue","","","","","","","","","","","","","","","",""
"html-keyboard-response","65","394614","0.0-3.0-3.0-0.6","69245ub2ud666qm","practice_cue","5ee91b02e2573929f460e50b","5f60e3c0a3b16e07647b2ff9","5f60ec3d7010ac2bcf1","false","null","<span style=""color: black; font-size: 48px"">N + M</span>","null","","","","resp_prompt","","","","","","","","","","","","","","","",""
"categorize-image","66","395180","0.0-3.0-3.0-1.6","69245ub2ud666qm","practice_cue","5ee91b02e2573929f460e50b","5f60e3c0a3b16e07647b2ff9","5f60ec3d7010ac2bcf1","true","557.1400001645088","./Stimuli/ImagesPractice/LM55.jpg","76","","","","test","true","N + M","76","","LM","LM55.jpg","remember","old","23","2","practice_forget","right","","","",""
"html-keyboard-response","67","397198","0.0-3.0-3.0-3.6","69245ub2ud666qm","practice_cue","5ee91b02e2573929f460e50b","5f60e3c0a3b16e07647b2ff9","5f60ec3d7010ac2bcf1","false","null","<div style=""align-items: center; display: flex; color: dodgerblue; font-size: 90px""><b>o</b></div>","null","","","","forget_cue","","","","","","","","","","","","","","","",""
"html-keyboard-response","68","397905","0.0-3.0-3.0-0.7","69245ub2ud666qm","practice_cue","5ee91b02e2573929f460e50b","5f60e3c0a3b16e07647b2ff9","5f60ec3d7010ac2bcf1","false","null","<span style=""color: black; font-size: 48px"">N + M</span>","null","","","","resp_prompt","","","","","","","","","","","","","","","",""
"categorize-image","69","399007","0.0-3.0-3.0-1.7","69245ub2ud666qm","practice_cue","5ee91b02e2573929f460e50b","5f60e3c0a3b16e07647b2ff9","5f60ec3d7010ac2bcf1","true","1093.8549998681992","./Stimuli/ImagesPractice/SN221.jpg","83","","","","test","true","N + M","83","","SN","SN221.jpg","forget","old","24","2","practice_forget","left","","","",""
"html-keyboard-response","70","401020","0.0-3.0-3.0-3.7","69245ub2ud666qm","practice_cue","5ee91b02e2573929f460e50b","5f60e3c0a3b16e07647b2ff9","5f60ec3d7010ac2bcf1","false","null","<div style=""align-items: center; display: flex; color: darkorange; font-size: 90px""><b>ø</b></div>","null","","","","forget_cue","","","","","","","","","","","","","","","",""
"html-keyboard-response","71","401737","0.0-3.0-3.0-0.8","69245ub2ud666qm","practice_cue","5ee91b02e2573929f460e50b","5f60e3c0a3b16e07647b2ff9","5f60ec3d7010ac2bcf1","false","null","<span style=""color: black; font-size: 48px"">N + M</span>","null","","","","resp_prompt","","","","","","","","","","","","","","","",""
"categorize-image","72","402301","0.0-3.0-3.0-1.8","69245ub2ud666qm","practice_cue","5ee91b02e2573929f460e50b","5f60e3c0a3b16e07647b2ff9","5f60ec3d7010ac2bcf1","true","553.5649999510497","./Stimuli/ImagesPractice/LM239.jpg","76","","","","test","true","N + M","76","","LM","LM239.jpg","forget","old","25","2","practice_forget","right","","","",""
"html-keyboard-response","73","404317","0.0-3.0-3.0-3.8","69245ub2ud666qm","practice_cue","5ee91b02e2573929f460e50b","5f60e3c0a3b16e07647b2ff9","5f60ec3d7010ac2bcf1","false","null","<div style=""align-items: center; display: flex; color: darkorange; font-size: 90px""><b>ø</b></div>","null","","","","forget_cue","","","","","","","","","","","","","","","",""
"html-keyboard-response","74","405029","0.0-3.0-3.0-0.9","69245ub2ud666qm","practice_cue","5ee91b02e2573929f460e50b","5f60e3c0a3b16e07647b2ff9","5f60ec3d7010ac2bcf1","false","null","<span style=""color: black; font-size: 48px"">M + N</span>","null","","","","resp_prompt","","","","","","","","","","","","","","","",""
"categorize-image","75","405577","0.0-3.0-3.0-1.9","69245ub2ud666qm","practice_cue","5ee91b02e2573929f460e50b","5f60e3c0a3b16e07647b2ff9","5f60ec3d7010ac2bcf1","true","538.93500007689","./Stimuli/ImagesPractice/SM37.jpg","83","","","","test","true","M + N","83","","SM","SM37.jpg","forget","old","26","2","practice_forget","left","","","",""
"html-keyboard-response","76","407585","0.0-3.0-3.0-3.9","69245ub2ud666qm","practice_cue","5ee91b02e2573929f460e50b","5f60e3c0a3b16e07647b2ff9","5f60ec3d7010ac2bcf1","false","null","<div style=""align-items: center; display: flex; color: darkorange; font-size: 90px""><b>ø</b></div>","null","","","","forget_cue","","","","","","","","","","","","","","","",""
"html-keyboard-response","77","408290","0.0-3.0-3.0-0.10","69245ub2ud666qm","practice_cue","5ee91b02e2573929f460e50b","5f60e3c0a3b16e07647b2ff9","5f60ec3d7010ac2bcf1","false","null","<span style=""color: black; font-size: 48px"">M + N</span>","null","","","","resp_prompt","","","","","","","","","","","","","","","",""
"categorize-image","78","408918","0.0-3.0-3.0-1.10","69245ub2ud666qm","practice_cue","5ee91b02e2573929f460e50b","5f60e3c0a3b16e07647b2ff9","5f60ec3d7010ac2bcf1","true","614.4799999892712","./Stimuli/ImagesPractice/SN76.jpg","76","","","","test","true","M + N","76","","SN","SN76.jpg","forget","old","27","2","practice_forget","right","","","",""
"html-keyboard-response","79","410923","0.0-3.0-3.0-3.10","69245ub2ud666qm","practice_cue","5ee91b02e2573929f460e50b","5f60e3c0a3b16e07647b2ff9","5f60ec3d7010ac2bcf1","false","null","<div style=""align-items: center; display: flex; color: darkorange; font-size: 90px""><b>ø</b></div>","null","","","","forget_cue","","","","","","","","","","","","","","","",""
"html-keyboard-response","80","411626","0.0-3.0-3.0-0.11","69245ub2ud666qm","practice_cue","5ee91b02e2573929f460e50b","5f60e3c0a3b16e07647b2ff9","5f60ec3d7010ac2bcf1","false","null","<span style=""color: black; font-size: 48px"">M + N</span>","null","","","","resp_prompt","","","","","","","","","","","","","","","",""
"categorize-image","81","412200","0.0-3.0-3.0-1.11","69245ub2ud666qm","practice_cue","5ee91b02e2573929f460e50b","5f60e3c0a3b16e07647b2ff9","5f60ec3d7010ac2bcf1","true","564.9999999441206","./Stimuli/ImagesPractice/SN75.jpg","76","","","","test","true","M + N","76","","SN","SN75.jpg","remember","old","28","2","practice_forget","right","","","",""
"html-keyboard-response","82","414211","0.0-3.0-3.0-3.11","69245ub2ud666qm","practice_cue","5ee91b02e2573929f460e50b","5f60e3c0a3b16e07647b2ff9","5f60ec3d7010ac2bcf1","false","null","<div style=""align-items: center; display: flex; color: dodgerblue; font-size: 90px""><b>o</b></div>","null","","","","forget_cue","","","","","","","","","","","","","","","",""
"html-keyboard-response","83","414927","0.0-3.0-3.0-0.12","69245ub2ud666qm","practice_cue","5ee91b02e2573929f460e50b","5f60e3c0a3b16e07647b2ff9","5f60ec3d7010ac2bcf1","false","null","<span style=""color: black; font-size: 48px"">M + N</span>","null","","","","resp_prompt","","","","","","","","","","","","","","","",""
"categorize-image","84","415637","0.0-3.0-3.0-1.12","69245ub2ud666qm","practice_cue","5ee91b02e2573929f460e50b","5f60e3c0a3b16e07647b2ff9","5f60ec3d7010ac2bcf1","true","701.0550000704825","./Stimuli/ImagesPractice/LN109.jpg","76","","","","test","true","M + N","76","","LN","LN109.jpg","remember","old","29","2","practice_forget","right","","","",""
"html-keyboard-response","85","417650","0.0-3.0-3.0-3.12","69245ub2ud666qm","practice_cue","5ee91b02e2573929f460e50b","5f60e3c0a3b16e07647b2ff9","5f60ec3d7010ac2bcf1","false","null","<div style=""align-items: center; display: flex; color: dodgerblue; font-size: 90px""><b>o</b></div>","null","","","","forget_cue","","","","","","","","","","","","","","","",""
"html-keyboard-response","86","418366","0.0-3.0-3.0-0.13","69245ub2ud666qm","practice_cue","5ee91b02e2573929f460e50b","5f60e3c0a3b16e07647b2ff9","5f60ec3d7010ac2bcf1","false","null","<span style=""color: black; font-size: 48px"">N + M</span>","null","","","","resp_prompt","","","","","","","","","","","","","","","",""
"categorize-image","87","419180","0.0-3.0-3.0-1.13","69245ub2ud666qm","practice_cue","5ee91b02e2573929f460e50b","5f60e3c0a3b16e07647b2ff9","5f60ec3d7010ac2bcf1","true","804.865000071004","./Stimuli/ImagesPractice/SM62.jpg","76","","","","test","true","N + M","76","","SM","SM62.jpg","remember","old","30","2","practice_forget","right","","","",""
"html-keyboard-response","88","421191","0.0-3.0-3.0-3.13","69245ub2ud666qm","practice_cue","5ee91b02e2573929f460e50b","5f60e3c0a3b16e07647b2ff9","5f60ec3d7010ac2bcf1","false","null","<div style=""align-items: center; display: flex; color: dodgerblue; font-size: 90px""><b>o</b></div>","null","","","","forget_cue","","","","","","","","","","","","","","","",""
"html-keyboard-response","89","421897","0.0-3.0-3.0-0.14","69245ub2ud666qm","practice_cue","5ee91b02e2573929f460e50b","5f60e3c0a3b16e07647b2ff9","5f60ec3d7010ac2bcf1","false","null","<span style=""color: black; font-size: 48px"">N + M</span>","null","","","","resp_prompt","","","","","","","","","","","","","","","",""
"categorize-image","90","422688","0.0-3.0-3.0-1.14","69245ub2ud666qm","practice_cue","5ee91b02e2573929f460e50b","5f60e3c0a3b16e07647b2ff9","5f60ec3d7010ac2bcf1","true","783.0149999354035","./Stimuli/ImagesPractice/LN2.jpg","83","","","","test","true","N + M","83","","LN","LN2.jpg","remember","old","31","2","practice_forget","left","","","",""
"html-keyboard-response","91","424699","0.0-3.0-3.0-3.14","69245ub2ud666qm","practice_cue","5ee91b02e2573929f460e50b","5f60e3c0a3b16e07647b2ff9","5f60ec3d7010ac2bcf1","false","null","<div style=""align-items: center; display: flex; color: dodgerblue; font-size: 90px""><b>o</b></div>","null","","","","forget_cue","","","","","","","","","","","","","","","",""
"html-keyboard-response","92","425408","0.0-3.0-3.0-0.15","69245ub2ud666qm","practice_cue","5ee91b02e2573929f460e50b","5f60e3c0a3b16e07647b2ff9","5f60ec3d7010ac2bcf1","false","null","<span style=""color: black; font-size: 48px"">M + N</span>","null","","","","resp_prompt","","","","","","","","","","","","","","","",""
"categorize-image","93","425974","0.0-3.0-3.0-1.15","69245ub2ud666qm","practice_cue","5ee91b02e2573929f460e50b","5f60e3c0a3b16e07647b2ff9","5f60ec3d7010ac2bcf1","true","556.5599999390543","./Stimuli/ImagesPractice/LN17.jpg","83","","","","test","false","M + N","76","","LN","LN17.jpg","remember","old","32","2","practice_forget","left","","","",""
"html-keyboard-response","94","426486","0.0-3.0-3.0-2.15-0.15","69245ub2ud666qm","practice_cue","5ee91b02e2573929f460e50b","5f60e3c0a3b16e07647b2ff9","5f60ec3d7010ac2bcf1","false","null","<span style=""color: red; font-size: 48px"">Error!</span>","null","","","","feedback","","","","","","","","","","","","","","","",""
"html-keyboard-response","95","428491","0.0-3.0-3.0-3.15","69245ub2ud666qm","practice_cue","5ee91b02e2573929f460e50b","5f60e3c0a3b16e07647b2ff9","5f60ec3d7010ac2bcf1","false","null","<div style=""align-items: center; display: flex; color: dodgerblue; font-size: 90px""><b>o</b></div>","null","","","","forget_cue","","","","","","","","","","","","","","","",""
"html-keyboard-response","96","437358","0.0-3.0-4.0","69245ub2ud666qm","break","5ee91b02e2573929f460e50b","5f60e3c0a3b16e07647b2ff9","5f60ec3d7010ac2bcf1","false","8863.18499990739","<p style='font-size: 32px;'>Break</><br><br><br><br><br><p style='font-size: 24px;'>In the last block, you committed 1 errors and did not respond in time on 0 trials.
</p><p style='font-size: 24px;'>Try to respond as fast and accurately as possible in the next block as well! </p><p style='font-size: 24px;'>Press SPACE to continue.</p>","32","","","","","","","","","","","","","","","","","","","",""
"html-keyboard-response","97","464304","0.0-3.0-5.0","69245ub2ud666qm","instructions","5ee91b02e2573929f460e50b","5f60e3c0a3b16e07647b2ff9","5f60ec3d7010ac2bcf1","false","26942.754999967292","<div align=left> Now, to practice, we kindly ask you to remember as many of the to-be-remembered pictures<br>of the previous learning phase as possible.<br><br>The pictures you were instructed to remember were the pictures followed by a <span style='color: dodgerblue; font-size: 28px'>O</span>.<br><br>In this memory test phase, you will also see some new pictures.<br>It is your task to remember whether you were presented with this specific picture in this study so far or not.<br>If you recognize an object (you have already seen it in this study), it is an OLD object. <br>If you do not recognize an object (you have NOT seen it in this study), it is a NEW object. <br><strong> Attention</strong>: As already mentioned, <span style='color: darkorange; font-size:28px'>Ø</span>-pictures will <strong>never</strong> appear in this memory test (neither as new objects). <br><br>Press SPACE to continue. </div>","32","","","","","","","","","","","","","","","","","","","",""
"html-keyboard-response","98","513377","0.0-3.0-6.0","69245ub2ud666qm","instructions","5ee91b02e2573929f460e50b","5f60e3c0a3b16e07647b2ff9","5f60ec3d7010ac2bcf1","false","49068.14999994822","<div align=left> M and N no longer will appear on the left/right of the fixation cross. <br>Instead there will be a note at the bottom of the left or right side  <br>indicating which key you should press for an old or new object:  <br> <br>Press the <strong>right</strong> key to classify an object as <strong>old</strong> and press the <strong>left</strong>, to classify an object as <strong>new</strong>.<br>Please classify the objects as new/old by again placing your index finger on the 'S' and 'L' keys <br>and press them accordingly.<br><br><strong>Old:</strong> This object has been presented before. <br><strong>New:</strong> This object has <strong>not</strong> been presented.<br><br>Now please put your right and left index fingers on the 'S' and 'L' keys of your keyboard. <br>Please respond as fast and as accurately as possible!<br><br>Press SPACE to continue. </div>","32","","","","","","","","","","","","","","","","","","","",""
"categorize-image","99","514923","0.0-3.0-7.0-0.0","69245ub2ud666qm","practice_recog","5ee91b02e2573929f460e50b","5f60e3c0a3b16e07647b2ff9","5f60ec3d7010ac2bcf1","true","1024.4400000665337","./Stimuli/ImagesPractice/SN75.jpg","76","","","","test","false","","83","","SN","SN75.jpg","","old","33","3","practice_recog","right","","","",""
"categorize-image","100","517095","0.0-3.0-7.0-0.1","69245ub2ud666qm","practice_recog","5ee91b02e2573929f460e50b","5f60e3c0a3b16e07647b2ff9","5f60ec3d7010ac2bcf1","true","1660.4649999644607","./Stimuli/ImagesPractice/LM224.jpg","76","","","","test","true","","76","","LM","LM224.jpg","","new","34","3","practice_recog","right","","","",""
"categorize-image","101","519076","0.0-3.0-7.0-0.2","69245ub2ud666qm","practice_recog","5ee91b02e2573929f460e50b","5f60e3c0a3b16e07647b2ff9","5f60ec3d7010ac2bcf1","true","1461.7850000504404","./Stimuli/ImagesPractice/LM143.jpg","76","","","","test","true","","76","","LM","LM143.jpg","","new","35","3","practice_recog","right","","","",""
"categorize-image","102","520827","0.0-3.0-7.0-0.3","69245ub2ud666qm","practice_recog","5ee91b02e2573929f460e50b","5f60e3c0a3b16e07647b2ff9","5f60ec3d7010ac2bcf1","true","1230.615000007674","./Stimuli/ImagesPractice/SN205.jpg","76","","","","test","true","","76","","SN","SN205.jpg","","new","36","3","practice_recog","right","","","",""
"categorize-image","103","522602","0.0-3.0-7.0-0.4","69245ub2ud666qm","practice_recog","5ee91b02e2573929f460e50b","5f60e3c0a3b16e07647b2ff9","5f60ec3d7010ac2bcf1","true","1264.1200001817197","./Stimuli/ImagesPractice/LN109.jpg","83","","","","test","true","","83","","LN","LN109.jpg","","old","37","3","practice_recog","left","","","",""
"categorize-image","104","524063","0.0-3.0-7.0-0.5","69245ub2ud666qm","practice_recog","5ee91b02e2573929f460e50b","5f60e3c0a3b16e07647b2ff9","5f60ec3d7010ac2bcf1","true","944.300000090152","./Stimuli/ImagesPractice/LN15.jpg","76","","","","test","true","","76","","LN","LN15.jpg","","new","38","3","practice_recog","right","","","",""
"categorize-image","105","525421","0.0-3.0-7.0-0.6","69245ub2ud666qm","practice_recog","5ee91b02e2573929f460e50b","5f60e3c0a3b16e07647b2ff9","5f60ec3d7010ac2bcf1","true","848.2250000815839","./Stimuli/ImagesPractice/LM55.jpg","76","","","","test","false","","83","","LM","LM55.jpg","","old","39","3","practice_recog","right","","","",""
"categorize-image","106","526895","0.0-3.0-7.0-0.7","69245ub2ud666qm","practice_recog","5ee91b02e2573929f460e50b","5f60e3c0a3b16e07647b2ff9","5f60ec3d7010ac2bcf1","true","966.1750001832843","./Stimuli/ImagesPractice/SN222.jpg","76","","","","test","true","","76","","SN","SN222.jpg","","new","40","3","practice_recog","right","","","",""
"categorize-image","107","528397","0.0-3.0-7.0-0.8","69245ub2ud666qm","practice_recog","5ee91b02e2573929f460e50b","5f60e3c0a3b16e07647b2ff9","5f60ec3d7010ac2bcf1","true","988.8850001152605","./Stimuli/ImagesPractice/LN4.jpg","83","","","","test","true","","83","","LN","LN4.jpg","","old","41","3","practice_recog","left","","","",""
"categorize-image","108","529742","0.0-3.0-7.0-0.9","69245ub2ud666qm","practice_recog","5ee91b02e2573929f460e50b","5f60e3c0a3b16e07647b2ff9","5f60ec3d7010ac2bcf1","true","828.8650000467896","./Stimuli/ImagesPractice/LN17.jpg","83","","","","test","true","","83","","LN","LN17.jpg","","old","42","3","practice_recog","left","","","",""
"categorize-image","109","531269","0.0-3.0-7.0-0.10","69245ub2ud666qm","practice_recog","5ee91b02e2573929f460e50b","5f60e3c0a3b16e07647b2ff9","5f60ec3d7010ac2bcf1","true","1020.8700001239777","./Stimuli/ImagesPractice/SM97.jpg","76","","","","test","true","","76","","SM","SM97.jpg","","new","43","3","practice_recog","right","","","",""
"categorize-image","110","532650","0.0-3.0-7.0-0.11","69245ub2ud666qm","practice_recog","5ee91b02e2573929f460e50b","5f60e3c0a3b16e07647b2ff9","5f60ec3d7010ac2bcf1","true","878.6450000479817","./Stimuli/ImagesPractice/LN2.jpg","83","","","","test","true","","83","","LN","LN2.jpg","","old","44","3","practice_recog","left","","","",""
"categorize-image","111","533902","0.0-3.0-7.0-0.12","69245ub2ud666qm","practice_recog","5ee91b02e2573929f460e50b","5f60e3c0a3b16e07647b2ff9","5f60ec3d7010ac2bcf1","true","735.2149998769164","./Stimuli/ImagesPractice/SM62.jpg","83","","","","test","true","","83","","SM","SM62.jpg","","old","45","3","practice_recog","left","","","",""
"categorize-image","112","535171","0.0-3.0-7.0-0.13","69245ub2ud666qm","practice_recog","5ee91b02e2573929f460e50b","5f60e3c0a3b16e07647b2ff9","5f60ec3d7010ac2bcf1","true","757.9749999567866","./Stimuli/ImagesPractice/SM61.jpg","76","","","","test","true","","76","","SM","SM61.jpg","","new","46","3","practice_recog","right","","","",""
"categorize-image","113","536484","0.0-3.0-7.0-0.14","69245ub2ud666qm","practice_recog","5ee91b02e2573929f460e50b","5f60e3c0a3b16e07647b2ff9","5f60ec3d7010ac2bcf1","true","801.8350000493228","./Stimuli/ImagesPractice/SN220.jpg","83","","","","test","true","","83","","SN","SN220.jpg","","old","47","3","practice_recog","left","","","",""
"categorize-image","114","537981","0.0-3.0-7.0-0.15","69245ub2ud666qm","practice_recog","5ee91b02e2573929f460e50b","5f60e3c0a3b16e07647b2ff9","5f60ec3d7010ac2bcf1","true","981.1299999710172","./Stimuli/ImagesPractice/LN72.jpg","76","","","","test","true","","76","","LN","LN72.jpg","","new","48","3","practice_recog","right","","","",""
"html-keyboard-response","115","545163","0.0-3.0-8.0","69245ub2ud666qm","instructions","5ee91b02e2573929f460e50b","5f60e3c0a3b16e07647b2ff9","5f60ec3d7010ac2bcf1","false","7178.079999983311","<div align=left> Great!<br><br>Are you ready to continue?<br>If you want to reread the instructions and redo the practice trials, please <br>press „Z“.<br><br>You can proceed when you are ready.<br><br>After the presentation of each object, you will receive an instruction whether to <br>remember or to forget the object.<br>We will test your memory of the following pictures only at the very end of <br>the experiment after all learning blocks are completed. <br><br>Press SPACE to CONTINUE when you are ready. </div>","32","","","","","","","","","","","","","","","","","","","",""
"html-keyboard-response","116","546717","0.0-4.0-0.0","69245ub2ud666qm","instructions","5ee91b02e2573929f460e50b","5f60e3c0a3b16e07647b2ff9","5f60ec3d7010ac2bcf1","false","1550.5700001958758","<div align=left> The actual experiment is about to start.<br>The practice trials are over!<br><br>Please always respond both fast and accurately!<br><br>Remember: <br> <br><li> Please place your index fingers on the <strong>'S'</strong> and <strong>'L'</strong> keys <br>to respond as fast and accurately as possible.</li><li> Every picture can be classified as either mechanical or non-mechanical.</li><li> If you do not respond in time or commit an error, you will receive a corresponding feedback.<br> Please try to respond as <strong> fast </strong> and as <strong> accurately as possible </strong>.</li><li> Remember the <span style='color: dodgerblue; font-size: 28px'>O</span> pictures. <br></li><li> Please minimize distractions and stay focused. </li><br><br>Press SPACE to START.</div>","32","","","","","","","","","","","","","","","","","","","",""
"html-keyboard-response","117","547435","0.0-4.0-1.0-0.0","69245ub2ud666qm","prime","5ee91b02e2573929f460e50b","5f60e3c0a3b16e07647b2ff9","5f60ec3d7010ac2bcf1","false","null","<span style=""color: black; font-size: 48px"">M + N</span>","null","","","","resp_prompt","","","","","","","","","","","","","","","",""
"categorize-image","118","549446","0.0-4.0-1.0-1.0","69245ub2ud666qm","prime","5ee91b02e2573929f460e50b","5f60e3c0a3b16e07647b2ff9","5f60ec3d7010ac2bcf1","true","null","./Stimuli/SelectedImages/SM/SM108.bmp","null","","","","test","false","M + N","83","switch","SM","SM108.bmp","forget","","49","3","prime1","too_slow","","","",""
"html-keyboard-response","119","549958","0.0-4.0-1.0-2.0-0.0","69245ub2ud666qm","prime","5ee91b02e2573929f460e50b","5f60e3c0a3b16e07647b2ff9","5f60ec3d7010ac2bcf1","false","null","<span style=""color: red; font-size: 48px"">Too slow!</span>","null","","","","feedback","","","","","","","","","","","","","","","",""
"html-keyboard-response","120","551968","0.0-4.0-1.0-3.0","69245ub2ud666qm","prime","5ee91b02e2573929f460e50b","5f60e3c0a3b16e07647b2ff9","5f60ec3d7010ac2bcf1","false","null","<div style=""align-items: center; display: flex; color: darkorange; font-size: 90px""><b>ø</b></div>","null","","","","forget_cue","","","","","","","","","","","","","","","",""
"html-keyboard-response","121","552684","0.0-4.0-1.0-0.1","69245ub2ud666qm","prime","5ee91b02e2573929f460e50b","5f60e3c0a3b16e07647b2ff9","5f60ec3d7010ac2bcf1","false","null","<span style=""color: black; font-size: 48px"">N + M</span>","null","","","","resp_prompt","","","","","","","","","","","","","","","",""
"categorize-image","122","553326","0.0-4.0-1.0-1.1","69245ub2ud666qm","prime","5ee91b02e2573929f460e50b","5f60e3c0a3b16e07647b2ff9","5f60ec3d7010ac2bcf1","true","633.4700000006706","./Stimuli/SelectedImages/SM/SM184.bmp","76","","","","test","true","N + M","76","switch","SM","SM184.bmp","remember","","50","3","prime1","right","","","",""
"html-keyboard-response","123","555329","0.0-4.0-1.0-3.1","69245ub2ud666qm","prime","5ee91b02e2573929f460e50b","5f60e3c0a3b16e07647b2ff9","5f60ec3d7010ac2bcf1","false","null","<div style=""align-items: center; display: flex; color: dodgerblue; font-size: 90px""><b>o</b></div>","null","","","","forget_cue","","","","","","","","","","","","","","","",""
"html-keyboard-response","124","556034","0.0-4.0-1.0-0.2","69245ub2ud666qm","prime","5ee91b02e2573929f460e50b","5f60e3c0a3b16e07647b2ff9","5f60ec3d7010ac2bcf1","false","null","<span style=""color: black; font-size: 48px"">N + M</span>","null","","","","resp_prompt","","","","","","","","","","","","","","","",""
"categorize-image","125","556596","0.0-4.0-1.0-1.2","69245ub2ud666qm","prime","5ee91b02e2573929f460e50b","5f60e3c0a3b16e07647b2ff9","5f60ec3d7010ac2bcf1","true","552.5350000243634","./Stimuli/SelectedImages/SN/SN179.bmp","83","","","","test","true","N + M","83","switch","SN","SN179.bmp","remember","","51","3","prime1","left","","","",""
"html-keyboard-response","126","558608","0.0-4.0-1.0-3.2","69245ub2ud666qm","prime","5ee91b02e2573929f460e50b","5f60e3c0a3b16e07647b2ff9","5f60ec3d7010ac2bcf1","false","null","<div style=""align-items: center; display: flex; color: dodgerblue; font-size: 90px""><b>o</b></div>","null","","","","forget_cue","","","","","","","","","","","","","","","",""
"html-keyboard-response","127","559320","0.0-4.0-1.0-0.3","69245ub2ud666qm","prime","5ee91b02e2573929f460e50b","5f60e3c0a3b16e07647b2ff9","5f60ec3d7010ac2bcf1","false","null","<span style=""color: black; font-size: 48px"">M + N</span>","null","","","","resp_prompt","","","","","","","","","","","","","","","",""
"categorize-image","128","560735","0.0-4.0-1.0-1.3","69245ub2ud666qm","prime","5ee91b02e2573929f460e50b","5f60e3c0a3b16e07647b2ff9","5f60ec3d7010ac2bcf1","true","1407.3199999984354","./Stimuli/SelectedImages/SM/SM106.bmp","76","","","","test","false","M + N","83","repetition","SM","SM106.bmp","forget","","52","3","prime1","right","","","",""
"html-keyboard-response","129","561251","0.0-4.0-1.0-2.3-0.3","69245ub2ud666qm","prime","5ee91b02e2573929f460e50b","5f60e3c0a3b16e07647b2ff9","5f60ec3d7010ac2bcf1","false","null","<span style=""color: red; font-size: 48px"">Error!</span>","null","","","","feedback","","","","","","","","","","","","","","","",""
"html-keyboard-response","130","563261","0.0-4.0-1.0-3.3","69245ub2ud666qm","prime","5ee91b02e2573929f460e50b","5f60e3c0a3b16e07647b2ff9","5f60ec3d7010ac2bcf1","false","null","<div style=""align-items: center; display: flex; color: darkorange; font-size: 90px""><b>ø</b></div>","null","","","","forget_cue","","","","","","","","","","","","","","","",""
"html-keyboard-response","131","563978","0.0-4.0-1.0-0.4","69245ub2ud666qm","prime","5ee91b02e2573929f460e50b","5f60e3c0a3b16e07647b2ff9","5f60ec3d7010ac2bcf1","false","null","<span style=""color: black; font-size: 48px"">N + M</span>","null","","","","resp_prompt","","","","","","","","","","","","","","","",""
"categorize-image","132","564633","0.0-4.0-1.0-1.4","69245ub2ud666qm","prime","5ee91b02e2573929f460e50b","5f60e3c0a3b16e07647b2ff9","5f60ec3d7010ac2bcf1","true","646.4249999262393","./Stimuli/SelectedImages/SN/SN240.bmp","83","","","","test","true","N + M","83","repetition","SN","SN240.bmp","remember","","53","3","prime1","left","","","",""
"html-keyboard-response","133","566641","0.0-4.0-1.0-3.4","69245ub2ud666qm","prime","5ee91b02e2573929f460e50b","5f60e3c0a3b16e07647b2ff9","5f60ec3d7010ac2bcf1","false","null","<div style=""align-items: center; display: flex; color: dodgerblue; font-size: 90px""><b>o</b></div>","null","","","","forget_cue","","","","","","","","","","","","","","","",""
"html-keyboard-response","134","567357","0.0-4.0-1.0-0.5","69245ub2ud666qm","prime","5ee91b02e2573929f460e50b","5f60e3c0a3b16e07647b2ff9","5f60ec3d7010ac2bcf1","false","null","<span style=""color: black; font-size: 48px"">N + M</span>","null","","","","resp_prompt","","","","","","","","","","","","","","","",""
"categorize-image","135","568476","0.0-4.0-1.0-1.5","69245ub2ud666qm","prime","5ee91b02e2573929f460e50b","5f60e3c0a3b16e07647b2ff9","5f60ec3d7010ac2bcf1","true","1111.1500000115484","./Stimuli/SelectedImages/LN/LN92.bmp","83","","","","test","true","N + M","83","switch","LN","LN92.bmp","forget","","54","3","prime1","left","","","",""
"html-keyboard-response","136","570487","0.0-4.0-1.0-3.5","69245ub2ud666qm","prime","5ee91b02e2573929f460e50b","5f60e3c0a3b16e07647b2ff9","5f60ec3d7010ac2bcf1","false","null","<div style=""align-items: center; display: flex; color: darkorange; font-size: 90px""><b>ø</b></div>","null","","","","forget_cue","","","","","","","","","","","","","","","",""
"html-keyboard-response","137","571190","0.0-4.0-1.0-0.6","69245ub2ud666qm","prime","5ee91b02e2573929f460e50b","5f60e3c0a3b16e07647b2ff9","5f60ec3d7010ac2bcf1","false","null","<span style=""color: black; font-size: 48px"">N + M</span>","null","","","","resp_prompt","","","","","","","","","","","","","","","",""
"categorize-image","138","571750","0.0-4.0-1.0-1.6","69245ub2ud666qm","prime","5ee91b02e2573929f460e50b","5f60e3c0a3b16e07647b2ff9","5f60ec3d7010ac2bcf1","true","550.7400000933558","./Stimuli/SelectedImages/LM/LM129.bmp","76","","","","test","true","N + M","76","switch","LM","LM129.bmp","remember","","55","3","prime1","right","","","",""
"html-keyboard-response","139","573760","0.0-4.0-1.0-3.6","69245ub2ud666qm","prime","5ee91b02e2573929f460e50b","5f60e3c0a3b16e07647b2ff9","5f60ec3d7010ac2bcf1","false","null","<div style=""align-items: center; display: flex; color: dodgerblue; font-size: 90px""><b>o</b></div>","null","","","","forget_cue","","","","","","","","","","","","","","","",""
"html-keyboard-response","140","574465","0.0-4.0-1.0-0.7","69245ub2ud666qm","prime","5ee91b02e2573929f460e50b","5f60e3c0a3b16e07647b2ff9","5f60ec3d7010ac2bcf1","false","null","<span style=""color: black; font-size: 48px"">N + M</span>","null","","","","resp_prompt","","","","","","","","","","","","","","","",""
"categorize-image","141","575031","0.0-4.0-1.0-1.7","69245ub2ud666qm","prime","5ee91b02e2573929f460e50b","5f60e3c0a3b16e07647b2ff9","5f60ec3d7010ac2bcf1","true","556.770000141114","./Stimuli/SelectedImages/LN/LN177.bmp","83","","","","test","true","N + M","83","repetition","LN","LN177.bmp","forget","","56","3","prime1","left","","","",""
"html-keyboard-response","142","577035","0.0-4.0-1.0-3.7","69245ub2ud666qm","prime","5ee91b02e2573929f460e50b","5f60e3c0a3b16e07647b2ff9","5f60ec3d7010ac2bcf1","false","null","<div style=""align-items: center; display: flex; color: darkorange; font-size: 90px""><b>ø</b></div>","null","","","","forget_cue","","","","","","","","","","","","","","","",""
"html-keyboard-response","143","577746","0.0-4.0-1.0-0.8","69245ub2ud666qm","prime","5ee91b02e2573929f460e50b","5f60e3c0a3b16e07647b2ff9","5f60ec3d7010ac2bcf1","false","null","<span style=""color: black; font-size: 48px"">M + N</span>","null","","","","resp_prompt","","","","","","","","","","","","","","","",""
"categorize-image","144","578531","0.0-4.0-1.0-1.8","69245ub2ud666qm","prime","5ee91b02e2573929f460e50b","5f60e3c0a3b16e07647b2ff9","5f60ec3d7010ac2bcf1","true","776.3049998320639","./Stimuli/SelectedImages/LN/LN59.bmp","83","","","","test","false","M + N","76","repetition","LN","LN59.bmp","remember","","57","3","prime1","left","","","",""
"html-keyboard-response","145","579044","0.0-4.0-1.0-2.8-0.8","69245ub2ud666qm","prime","5ee91b02e2573929f460e50b","5f60e3c0a3b16e07647b2ff9","5f60ec3d7010ac2bcf1","false","null","<span style=""color: red; font-size: 48px"">Error!</span>","null","","","","feedback","","","","","","","","","","","","","","","",""
"html-keyboard-response","146","581062","0.0-4.0-1.0-3.8","69245ub2ud666qm","prime","5ee91b02e2573929f460e50b","5f60e3c0a3b16e07647b2ff9","5f60ec3d7010ac2bcf1","false","null","<div style=""align-items: center; display: flex; color: dodgerblue; font-size: 90px""><b>o</b></div>","null","","","","forget_cue","","","","","","","","","","","","","","","",""
"html-keyboard-response","147","581768","0.0-4.0-1.0-0.9","69245ub2ud666qm","prime","5ee91b02e2573929f460e50b","5f60e3c0a3b16e07647b2ff9","5f60ec3d7010ac2bcf1","false","null","<span style=""color: black; font-size: 48px"">M + N</span>","null","","","","resp_prompt","","","","","","","","","","","","","","","",""
"categorize-image","148","582319","0.0-4.0-1.0-1.9","69245ub2ud666qm","prime","5ee91b02e2573929f460e50b","5f60e3c0a3b16e07647b2ff9","5f60ec3d7010ac2bcf1","true","546.4099999517202","./Stimuli/SelectedImages/SN/SN182.bmp","83","","","","test","false","M + N","76","repetition","SN","SN182.bmp","remember","","58","3","prime1","left","","","",""
"html-keyboard-response","149","582834","0.0-4.0-1.0-2.9-0.9","69245ub2ud666qm","prime","5ee91b02e2573929f460e50b","5f60e3c0a3b16e07647b2ff9","5f60ec3d7010ac2bcf1","false","null","<span style=""color: red; font-size: 48px"">Error!</span>","null","","","","feedback","","","","","","","","","","","","","","","",""
"html-keyboard-response","150","584849","0.0-4.0-1.0-3.9","69245ub2ud666qm","prime","5ee91b02e2573929f460e50b","5f60e3c0a3b16e07647b2ff9","5f60ec3d7010ac2bcf1","false","null","<div style=""align-items: center; display: flex; color: dodgerblue; font-size: 90px""><b>o</b></div>","null","","","","forget_cue","","","","","","","","","","","","","","","",""
"html-keyboard-response","151","585553","0.0-4.0-1.0-0.10","69245ub2ud666qm","prime","5ee91b02e2573929f460e50b","5f60e3c0a3b16e07647b2ff9","5f60ec3d7010ac2bcf1","false","null","<span style=""color: black; font-size: 48px"">N + M</span>","null","","","","resp_prompt","","","","","","","","","","","","","","","",""
"categorize-image","152","586239","0.0-4.0-1.0-1.10","69245ub2ud666qm","prime","5ee91b02e2573929f460e50b","5f60e3c0a3b16e07647b2ff9","5f60ec3d7010ac2bcf1","true","682.8349998686463","./Stimuli/SelectedImages/LN/LN42.bmp","83","","","","test","true","N + M","83","switch","LN","LN42.bmp","forget","","59","3","prime1","left","","","",""
"html-keyboard-response","153","588257","0.0-4.0-1.0-3.10","69245ub2ud666qm","prime","5ee91b02e2573929f460e50b","5f60e3c0a3b16e07647b2ff9","5f60ec3d7010ac2bcf1","false","null","<div style=""align-items: center; display: flex; color: darkorange; font-size: 90px""><b>ø</b></div>","null","","","","forget_cue","","","","","","","","","","","","","","","",""
"html-keyboard-response","154","588972","0.0-4.0-1.0-0.11","69245ub2ud666qm","prime","5ee91b02e2573929f460e50b","5f60e3c0a3b16e07647b2ff9","5f60ec3d7010ac2bcf1","false","null","<span style=""color: black; font-size: 48px"">M + N</span>","null","","","","resp_prompt","","","","","","","","","","","","","","","",""
"categorize-image","155","589803","0.0-4.0-1.0-1.11","69245ub2ud666qm","prime","5ee91b02e2573929f460e50b","5f60e3c0a3b16e07647b2ff9","5f60ec3d7010ac2bcf1","true","822.26000004448","./Stimuli/SelectedImages/SN/SN64.bmp","83","","","","test","false","M + N","76","switch","SN","SN64.bmp","remember","","60","3","prime1","left","","","",""
"html-keyboard-response","156","590311","0.0-4.0-1.0-2.11-0.11","69245ub2ud666qm","prime","5ee91b02e2573929f460e50b","5f60e3c0a3b16e07647b2ff9","5f60ec3d7010ac2bcf1","false","null","<span style=""color: red; font-size: 48px"">Error!</span>","null","","","","feedback","","","","","","","","","","","","","","","",""
"html-keyboard-response","157","592315","0.0-4.0-1.0-3.11","69245ub2ud666qm","prime","5ee91b02e2573929f460e50b","5f60e3c0a3b16e07647b2ff9","5f60ec3d7010ac2bcf1","false","null","<div style=""align-items: center; display: flex; color: dodgerblue; font-size: 90px""><b>o</b></div>","null","","","","forget_cue","","","","","","","","","","","","","","","",""
"html-keyboard-response","158","593024","0.0-4.0-1.0-0.12","69245ub2ud666qm","prime","5ee91b02e2573929f460e50b","5f60e3c0a3b16e07647b2ff9","5f60ec3d7010ac2bcf1","false","null","<span style=""color: black; font-size: 48px"">M + N</span>","null","","","","resp_prompt","","","","","","","","","","","","","","","",""
"categorize-image","159","594022","0.0-4.0-1.0-1.12","69245ub2ud666qm","prime","5ee91b02e2573929f460e50b","5f60e3c0a3b16e07647b2ff9","5f60ec3d7010ac2bcf1","true","990.6899998895824","./Stimuli/SelectedImages/SM/SM213.bmp","83","","","","test","true","M + N","83","repetition","SM","SM213.bmp","forget","","61","3","prime1","left","","","",""
"html-keyboard-response","160","596033","0.0-4.0-1.0-3.12","69245ub2ud666qm","prime","5ee91b02e2573929f460e50b","5f60e3c0a3b16e07647b2ff9","5f60ec3d7010ac2bcf1","false","null","<div style=""align-items: center; display: flex; color: darkorange; font-size: 90px""><b>ø</b></div>","null","","","","forget_cue","","","","","","","","","","","","","","","",""
"html-keyboard-response","161","596740","0.0-4.0-1.0-0.13","69245ub2ud666qm","prime","5ee91b02e2573929f460e50b","5f60e3c0a3b16e07647b2ff9","5f60ec3d7010ac2bcf1","false","null","<span style=""color: black; font-size: 48px"">N + M</span>","null","","","","resp_prompt","","","","","","","","","","","","","","","",""
"categorize-image","162","597402","0.0-4.0-1.0-1.13","69245ub2ud666qm","prime","5ee91b02e2573929f460e50b","5f60e3c0a3b16e07647b2ff9","5f60ec3d7010ac2bcf1","true","653.1799999065697","./Stimuli/SelectedImages/SN/SN111.bmp","83","","","","test","true","N + M","83","switch","SN","SN111.bmp","forget","","62","3","prime1","left","","","",""
"html-keyboard-response","163","599415","0.0-4.0-1.0-3.13","69245ub2ud666qm","prime","5ee91b02e2573929f460e50b","5f60e3c0a3b16e07647b2ff9","5f60ec3d7010ac2bcf1","false","null","<div style=""align-items: center; display: flex; color: darkorange; font-size: 90px""><b>ø</b></div>","null","","","","forget_cue","","","","","","","","","","","","","","","",""
"html-keyboard-response","164","600131","0.0-4.0-1.0-0.14","69245ub2ud666qm","prime","5ee91b02e2573929f460e50b","5f60e3c0a3b16e07647b2ff9","5f60ec3d7010ac2bcf1","false","null","<span style=""color: black; font-size: 48px"">M + N</span>","null","","","","resp_prompt","","","","","","","","","","","","","","","",""
"categorize-image","165","601572","0.0-4.0-1.0-1.14","69245ub2ud666qm","prime","5ee91b02e2573929f460e50b","5f60e3c0a3b16e07647b2ff9","5f60ec3d7010ac2bcf1","true","1431.7049998790026","./Stimuli/SelectedImages/SN/SN181.bmp","76","","","","test","true","M + N","76","repetition","SN","SN181.bmp","forget","","63","3","prime1","right","","","",""
"html-keyboard-response","166","603587","0.0-4.0-1.0-3.14","69245ub2ud666qm","prime","5ee91b02e2573929f460e50b","5f60e3c0a3b16e07647b2ff9","5f60ec3d7010ac2bcf1","false","null","<div style=""align-items: center; display: flex; color: darkorange; font-size: 90px""><b>ø</b></div>","null","","","","forget_cue","","","","","","","","","","","","","","","",""
"html-keyboard-response","167","604290","0.0-4.0-1.0-0.15","69245ub2ud666qm","prime","5ee91b02e2573929f460e50b","5f60e3c0a3b16e07647b2ff9","5f60ec3d7010ac2bcf1","false","null","<span style=""color: black; font-size: 48px"">M + N</span>","null","","","","resp_prompt","","","","","","","","","","","","","","","",""
"categorize-image","168","605093","0.0-4.0-1.0-1.15","69245ub2ud666qm","prime","5ee91b02e2573929f460e50b","5f60e3c0a3b16e07647b2ff9","5f60ec3d7010ac2bcf1","true","793.8650001306087","./Stimuli/SelectedImages/LN/LN149.bmp","76","","","","test","true","M + N","76","switch","LN","LN149.bmp","remember","","64","3","prime1","right","","","",""
"html-keyboard-response","169","607103","0.0-4.0-1.0-3.15","69245ub2ud666qm","prime","5ee91b02e2573929f460e50b","5f60e3c0a3b16e07647b2ff9","5f60ec3d7010ac2bcf1","false","null","<div style=""align-items: center; display: flex; color: dodgerblue; font-size: 90px""><b>o</b></div>","null","","","","forget_cue","","","","","","","","","","","","","","","",""
"html-keyboard-response","170","607807","0.0-4.0-1.0-0.16","69245ub2ud666qm","prime","5ee91b02e2573929f460e50b","5f60e3c0a3b16e07647b2ff9","5f60ec3d7010ac2bcf1","false","null","<span style=""color: black; font-size: 48px"">M + N</span>","null","","","","resp_prompt","","","","","","","","","","","","","","","",""
"categorize-image","171","609675","0.0-4.0-1.0-1.16","69245ub2ud666qm","prime","5ee91b02e2573929f460e50b","5f60e3c0a3b16e07647b2ff9","5f60ec3d7010ac2bcf1","true","1858.0849999561906","./Stimuli/SelectedImages/LN/LN13.bmp","76","","","","test","true","M + N","76","repetition","LN","LN13.bmp","forget","","65","3","prime1","right","","","",""
"html-keyboard-response","172","611684","0.0-4.0-1.0-3.16","69245ub2ud666qm","prime","5ee91b02e2573929f460e50b","5f60e3c0a3b16e07647b2ff9","5f60ec3d7010ac2bcf1","false","null","<div style=""align-items: center; display: flex; color: darkorange; font-size: 90px""><b>ø</b></div>","null","","","","forget_cue","","","","","","","","","","","","","","","",""
"html-keyboard-response","173","612393","0.0-4.0-1.0-0.17","69245ub2ud666qm","prime","5ee91b02e2573929f460e50b","5f60e3c0a3b16e07647b2ff9","5f60ec3d7010ac2bcf1","false","null","<span style=""color: black; font-size: 48px"">M + N</span>","null","","","","resp_prompt","","","","","","","","","","","","","","","",""
"categorize-image","174","613158","0.0-4.0-1.0-1.17","69245ub2ud666qm","prime","5ee91b02e2573929f460e50b","5f60e3c0a3b16e07647b2ff9","5f60ec3d7010ac2bcf1","true","755.6300000287592","./Stimuli/SelectedImages/LM/LM51.bmp","83","","","","test","true","M + N","83","repetition","LM","LM51.bmp","forget","","66","3","prime1","left","","","",""
"html-keyboard-response","175","615175","0.0-4.0-1.0-3.17","69245ub2ud666qm","prime","5ee91b02e2573929f460e50b","5f60e3c0a3b16e07647b2ff9","5f60ec3d7010ac2bcf1","false","null","<div style=""align-items: center; display: flex; color: darkorange; font-size: 90px""><b>ø</b></div>","null","","","","forget_cue","","","","","","","","","","","","","","","",""
"html-keyboard-response","176","615886","0.0-4.0-1.0-0.18","69245ub2ud666qm","prime","5ee91b02e2573929f460e50b","5f60e3c0a3b16e07647b2ff9","5f60ec3d7010ac2bcf1","false","null","<span style=""color: black; font-size: 48px"">N + M</span>","null","","","","resp_prompt","","","","","","","","","","","","","","","",""
"categorize-image","177","616523","0.0-4.0-1.0-1.18","69245ub2ud666qm","prime","5ee91b02e2573929f460e50b","5f60e3c0a3b16e07647b2ff9","5f60ec3d7010ac2bcf1","true","627.8750000055879","./Stimuli/SelectedImages/LM/LM157.bmp","76","","","","test","true","N + M","76","repetition","LM","LM157.bmp","remember","","67","3","prime1","right","","","",""
"html-keyboard-response","178","618538","0.0-4.0-1.0-3.18","69245ub2ud666qm","prime","5ee91b02e2573929f460e50b","5f60e3c0a3b16e07647b2ff9","5f60ec3d7010ac2bcf1","false","null","<div style=""align-items: center; display: flex; color: dodgerblue; font-size: 90px""><b>o</b></div>","null","","","","forget_cue","","","","","","","","","","","","","","","",""
"html-keyboard-response","179","619240","0.0-4.0-1.0-0.19","69245ub2ud666qm","prime","5ee91b02e2573929f460e50b","5f60e3c0a3b16e07647b2ff9","5f60ec3d7010ac2bcf1","false","null","<span style=""color: black; font-size: 48px"">N + M</span>","null","","","","resp_prompt","","","","","","","","","","","","","","","",""
"categorize-image","180","619941","0.0-4.0-1.0-1.19","69245ub2ud666qm","prime","5ee91b02e2573929f460e50b","5f60e3c0a3b16e07647b2ff9","5f60ec3d7010ac2bcf1","true","691.724999807775","./Stimuli/SelectedImages/SN/SN60.bmp","83","","","","test","true","N + M","83","repetition","SN","SN60.bmp","forget","","68","3","prime1","left","","","",""
"html-keyboard-response","181","621944","0.0-4.0-1.0-3.19","69245ub2ud666qm","prime","5ee91b02e2573929f460e50b","5f60e3c0a3b16e07647b2ff9","5f60ec3d7010ac2bcf1","false","null","<div style=""align-items: center; display: flex; color: darkorange; font-size: 90px""><b>ø</b></div>","null","","","","forget_cue","","","","","","","","","","","","","","","",""
"html-keyboard-response","182","622649","0.0-4.0-1.0-0.20","69245ub2ud666qm","prime","5ee91b02e2573929f460e50b","5f60e3c0a3b16e07647b2ff9","5f60ec3d7010ac2bcf1","false","null","<span style=""color: black; font-size: 48px"">N + M</span>","null","","","","resp_prompt","","","","","","","","","","","","","","","",""
"categorize-image","183","623156","0.0-4.0-1.0-1.20","69245ub2ud666qm","prime","5ee91b02e2573929f460e50b","5f60e3c0a3b16e07647b2ff9","5f60ec3d7010ac2bcf1","true","497.0949999988079","./Stimuli/SelectedImages/LM/LM58.bmp","76","","","","test","true","N + M","76","switch","LM","LM58.bmp","forget","","69","3","prime1","right","","","",""
"html-keyboard-response","184","625167","0.0-4.0-1.0-3.20","69245ub2ud666qm","prime","5ee91b02e2573929f460e50b","5f60e3c0a3b16e07647b2ff9","5f60ec3d7010ac2bcf1","false","null","<div style=""align-items: center; display: flex; color: darkorange; font-size: 90px""><b>ø</b></div>","null","","","","forget_cue","","","","","","","","","","","","","","","",""
"html-keyboard-response","185","625884","0.0-4.0-1.0-0.21","69245ub2ud666qm","prime","5ee91b02e2573929f460e50b","5f60e3c0a3b16e07647b2ff9","5f60ec3d7010ac2bcf1","false","null","<span style=""color: black; font-size: 48px"">M + N</span>","null","","","","resp_prompt","","","","","","","","","","","","","","","",""
"categorize-image","186","626507","0.0-4.0-1.0-1.21","69245ub2ud666qm","prime","5ee91b02e2573929f460e50b","5f60e3c0a3b16e07647b2ff9","5f60ec3d7010ac2bcf1","true","613.7399999424815","./Stimuli/SelectedImages/LM/LM150.bmp","83","","","","test","true","M + N","83","switch","LM","LM150.bmp","forget","","70","3","prime1","left","","","",""
"html-keyboard-response","187","628518","0.0-4.0-1.0-3.21","69245ub2ud666qm","prime","5ee91b02e2573929f460e50b","5f60e3c0a3b16e07647b2ff9","5f60ec3d7010ac2bcf1","false","null","<div style=""align-items: center; display: flex; color: darkorange; font-size: 90px""><b>ø</b></div>","null","","","","forget_cue","","","","","","","","","","","","","","","",""
"html-keyboard-response","188","629232","0.0-4.0-1.0-0.22","69245ub2ud666qm","prime","5ee91b02e2573929f460e50b","5f60e3c0a3b16e07647b2ff9","5f60ec3d7010ac2bcf1","false","null","<span style=""color: black; font-size: 48px"">M + N</span>","null","","","","resp_prompt","","","","","","","","","","","","","","","",""
"categorize-image","189","629858","0.0-4.0-1.0-1.22","69245ub2ud666qm","prime","5ee91b02e2573929f460e50b","5f60e3c0a3b16e07647b2ff9","5f60ec3d7010ac2bcf1","true","621.1550000589341","./Stimuli/SelectedImages/LN/LN111.bmp","76","","","","test","true","M + N","76","switch","LN","LN111.bmp","forget","","71","3","prime1","right","","","",""
"html-keyboard-response","190","631872","0.0-4.0-1.0-3.22","69245ub2ud666qm","prime","5ee91b02e2573929f460e50b","5f60e3c0a3b16e07647b2ff9","5f60ec3d7010ac2bcf1","false","null","<div style=""align-items: center; display: flex; color: darkorange; font-size: 90px""><b>ø</b></div>","null","","","","forget_cue","","","","","","","","","","","","","","","",""
"html-keyboard-response","191","632573","0.0-4.0-1.0-0.23","69245ub2ud666qm","prime","5ee91b02e2573929f460e50b","5f60e3c0a3b16e07647b2ff9","5f60ec3d7010ac2bcf1","false","null","<span style=""color: black; font-size: 48px"">M + N</span>","null","","","","resp_prompt","","","","","","","","","","","","","","","",""
"categorize-image","192","633209","0.0-4.0-1.0-1.23","69245ub2ud666qm","prime","5ee91b02e2573929f460e50b","5f60e3c0a3b16e07647b2ff9","5f60ec3d7010ac2bcf1","true","625.2550000790507","./Stimuli/SelectedImages/LM/LM216.bmp","83","","","","test","true","M + N","83","switch","LM","LM216.bmp","forget","","72","3","prime1","left","","","",""
"html-keyboard-response","193","635225","0.0-4.0-1.0-3.23","69245ub2ud666qm","prime","5ee91b02e2573929f460e50b","5f60e3c0a3b16e07647b2ff9","5f60ec3d7010ac2bcf1","false","null","<div style=""align-items: center; display: flex; color: darkorange; font-size: 90px""><b>ø</b></div>","null","","","","forget_cue","","","","","","","","","","","","","","","",""
"html-keyboard-response","194","635934","0.0-4.0-1.0-0.24","69245ub2ud666qm","prime","5ee91b02e2573929f460e50b","5f60e3c0a3b16e07647b2ff9","5f60ec3d7010ac2bcf1","false","null","<span style=""color: black; font-size: 48px"">N + M</span>","null","","","","resp_prompt","","","","","","","","","","","","","","","",""
"categorize-image","195","636453","0.0-4.0-1.0-1.24","69245ub2ud666qm","prime","5ee91b02e2573929f460e50b","5f60e3c0a3b16e07647b2ff9","5f60ec3d7010ac2bcf1","true","509.89000010304153","./Stimuli/SelectedImages/SN/SN49.bmp","83","","","","test","true","N + M","83","repetition","SN","SN49.bmp","forget","","73","3","prime1","left","","","",""
"html-keyboard-response","196","638461","0.0-4.0-1.0-3.24","69245ub2ud666qm","prime","5ee91b02e2573929f460e50b","5f60e3c0a3b16e07647b2ff9","5f60ec3d7010ac2bcf1","false","null","<div style=""align-items: center; display: flex; color: darkorange; font-size: 90px""><b>ø</b></div>","null","","","","forget_cue","","","","","","","","","","","","","","","",""
"html-keyboard-response","197","639177","0.0-4.0-1.0-0.25","69245ub2ud666qm","prime","5ee91b02e2573929f460e50b","5f60e3c0a3b16e07647b2ff9","5f60ec3d7010ac2bcf1","false","null","<span style=""color: black; font-size: 48px"">M + N</span>","null","","","","resp_prompt","","","","","","","","","","","","","","","",""
"categorize-image","198","639643","0.0-4.0-1.0-1.25","69245ub2ud666qm","prime","5ee91b02e2573929f460e50b","5f60e3c0a3b16e07647b2ff9","5f60ec3d7010ac2bcf1","true","457.9249999951571","./Stimuli/SelectedImages/LM/LM235.bmp","83","","","","test","true","M + N","83","repetition","LM","LM235.bmp","remember","","74","3","prime1","left","","","",""
"html-keyboard-response","199","641648","0.0-4.0-1.0-3.25","69245ub2ud666qm","prime","5ee91b02e2573929f460e50b","5f60e3c0a3b16e07647b2ff9","5f60ec3d7010ac2bcf1","false","null","<div style=""align-items: center; display: flex; color: dodgerblue; font-size: 90px""><b>o</b></div>","null","","","","forget_cue","","","","","","","","","","","","","","","",""
"html-keyboard-response","200","642364","0.0-4.0-1.0-0.26","69245ub2ud666qm","prime","5ee91b02e2573929f460e50b","5f60e3c0a3b16e07647b2ff9","5f60ec3d7010ac2bcf1","false","null","<span style=""color: black; font-size: 48px"">N + M</span>","null","","","","resp_prompt","","","","","","","","","","","","","","","",""
"categorize-image","201","642993","0.0-4.0-1.0-1.26","69245ub2ud666qm","prime","5ee91b02e2573929f460e50b","5f60e3c0a3b16e07647b2ff9","5f60ec3d7010ac2bcf1","true","620.070000179112","./Stimuli/SelectedImages/LM/LM103.bmp","76","","","","test","true","N + M","76","repetition","LM","LM103.bmp","forget","","75","3","prime1","right","","","",""
"html-keyboard-response","202","645007","0.0-4.0-1.0-3.26","69245ub2ud666qm","prime","5ee91b02e2573929f460e50b","5f60e3c0a3b16e07647b2ff9","5f60ec3d7010ac2bcf1","false","null","<div style=""align-items: center; display: flex; color: darkorange; font-size: 90px""><b>ø</b></div>","null","","","","forget_cue","","","","","","","","","","","","","","","",""
"html-keyboard-response","203","645724","0.0-4.0-1.0-0.27","69245ub2ud666qm","prime","5ee91b02e2573929f460e50b","5f60e3c0a3b16e07647b2ff9","5f60ec3d7010ac2bcf1","false","null","<span style=""color: black; font-size: 48px"">M + N</span>","null","","","","resp_prompt","","","","","","","","","","","","","","","",""
"categorize-image","204","646259","0.0-4.0-1.0-1.27","69245ub2ud666qm","prime","5ee91b02e2573929f460e50b","5f60e3c0a3b16e07647b2ff9","5f60ec3d7010ac2bcf1","true","526.964999968186","./Stimuli/SelectedImages/SM/SM74.bmp","83","","","","test","true","M + N","83","switch","SM","SM74.bmp","remember","","76","3","prime1","left","","","",""
"html-keyboard-response","205","648266","0.0-4.0-1.0-3.27","69245ub2ud666qm","prime","5ee91b02e2573929f460e50b","5f60e3c0a3b16e07647b2ff9","5f60ec3d7010ac2bcf1","false","null","<div style=""align-items: center; display: flex; color: dodgerblue; font-size: 90px""><b>o</b></div>","null","","","","forget_cue","","","","","","","","","","","","","","","",""
"html-keyboard-response","206","648972","0.0-4.0-1.0-0.28","69245ub2ud666qm","prime","5ee91b02e2573929f460e50b","5f60e3c0a3b16e07647b2ff9","5f60ec3d7010ac2bcf1","false","null","<span style=""color: black; font-size: 48px"">M + N</span>","null","","","","resp_prompt","","","","","","","","","","","","","","","",""
"categorize-image","207","649590","0.0-4.0-1.0-1.28","69245ub2ud666qm","prime","5ee91b02e2573929f460e50b","5f60e3c0a3b16e07647b2ff9","5f60ec3d7010ac2bcf1","true","607.1099999826401","./Stimuli/SelectedImages/SM/SM128.bmp","83","","","","test","true","M + N","83","switch","SM","SM128.bmp","remember","","77","3","prime1","left","","","",""
"html-keyboard-response","208","651604","0.0-4.0-1.0-3.28","69245ub2ud666qm","prime","5ee91b02e2573929f460e50b","5f60e3c0a3b16e07647b2ff9","5f60ec3d7010ac2bcf1","false","null","<div style=""align-items: center; display: flex; color: dodgerblue; font-size: 90px""><b>o</b></div>","null","","","","forget_cue","","","","","","","","","","","","","","","",""
"html-keyboard-response","209","652309","0.0-4.0-1.0-0.29","69245ub2ud666qm","prime","5ee91b02e2573929f460e50b","5f60e3c0a3b16e07647b2ff9","5f60ec3d7010ac2bcf1","false","null","<span style=""color: black; font-size: 48px"">N + M</span>","null","","","","resp_prompt","","","","","","","","","","","","","","","",""
"categorize-image","210","652805","0.0-4.0-1.0-1.29","69245ub2ud666qm","prime","5ee91b02e2573929f460e50b","5f60e3c0a3b16e07647b2ff9","5f60ec3d7010ac2bcf1","true","486.57499998807907","./Stimuli/SelectedImages/LN/LN12.bmp","83","","","","test","true","N + M","83","repetition","LN","LN12.bmp","forget","","78","3","prime1","left","","","",""
"html-keyboard-response","211","654815","0.0-4.0-1.0-3.29","69245ub2ud666qm","prime","5ee91b02e2573929f460e50b","5f60e3c0a3b16e07647b2ff9","5f60ec3d7010ac2bcf1","false","null","<div style=""align-items: center; display: flex; color: darkorange; font-size: 90px""><b>ø</b></div>","null","","","","forget_cue","","","","","","","","","","","","","","","",""
"html-keyboard-response","212","655519","0.0-4.0-1.0-0.30","69245ub2ud666qm","prime","5ee91b02e2573929f460e50b","5f60e3c0a3b16e07647b2ff9","5f60ec3d7010ac2bcf1","false","null","<span style=""color: black; font-size: 48px"">N + M</span>","null","","","","resp_prompt","","","","","","","","","","","","","","","",""
"categorize-image","213","656053","0.0-4.0-1.0-1.30","69245ub2ud666qm","prime","5ee91b02e2573929f460e50b","5f60e3c0a3b16e07647b2ff9","5f60ec3d7010ac2bcf1","true","525.9599999990314","./Stimuli/SelectedImages/SN/SN140.bmp","83","","","","test","true","N + M","83","switch","SN","SN140.bmp","remember","","79","3","prime1","left","","","",""
"html-keyboard-response","214","658056","0.0-4.0-1.0-3.30","69245ub2ud666qm","prime","5ee91b02e2573929f460e50b","5f60e3c0a3b16e07647b2ff9","5f60ec3d7010ac2bcf1","false","null","<div style=""align-items: center; display: flex; color: dodgerblue; font-size: 90px""><b>o</b></div>","null","","","","forget_cue","","","","","","","","","","","","","","","",""
"html-keyboard-response","215","658761","0.0-4.0-1.0-0.31","69245ub2ud666qm","prime","5ee91b02e2573929f460e50b","5f60e3c0a3b16e07647b2ff9","5f60ec3d7010ac2bcf1","false","null","<span style=""color: black; font-size: 48px"">N + M</span>","null","","","","resp_prompt","","","","","","","","","","","","","","","",""
"categorize-image","216","659306","0.0-4.0-1.0-1.31","69245ub2ud666qm","prime","5ee91b02e2573929f460e50b","5f60e3c0a3b16e07647b2ff9","5f60ec3d7010ac2bcf1","true","534.9799999967217","./Stimuli/SelectedImages/LN/LN82.bmp","83","","","","test","true","N + M","83","repetition","LN","LN82.bmp","remember","","80","3","prime1","left","","","",""
"html-keyboard-response","217","661323","0.0-4.0-1.0-3.31","69245ub2ud666qm","prime","5ee91b02e2573929f460e50b","5f60e3c0a3b16e07647b2ff9","5f60ec3d7010ac2bcf1","false","null","<div style=""align-items: center; display: flex; color: dodgerblue; font-size: 90px""><b>o</b></div>","null","","","","forget_cue","","","","","","","","","","","","","","","",""
"html-keyboard-response","218","662028","0.0-4.0-1.0-0.32","69245ub2ud666qm","prime","5ee91b02e2573929f460e50b","5f60e3c0a3b16e07647b2ff9","5f60ec3d7010ac2bcf1","false","null","<span style=""color: black; font-size: 48px"">N + M</span>","null","","","","resp_prompt","","","","","","","","","","","","","","","",""
"categorize-image","219","662613","0.0-4.0-1.0-1.32","69245ub2ud666qm","prime","5ee91b02e2573929f460e50b","5f60e3c0a3b16e07647b2ff9","5f60ec3d7010ac2bcf1","true","575.6750002037734","./Stimuli/SelectedImages/SM/SM200.bmp","76","","","","test","true","N + M","76","repetition","SM","SM200.bmp","remember","","81","3","prime1","right","","","",""
"html-keyboard-response","220","664622","0.0-4.0-1.0-3.32","69245ub2ud666qm","prime","5ee91b02e2573929f460e50b","5f60e3c0a3b16e07647b2ff9","5f60ec3d7010ac2bcf1","false","null","<div style=""align-items: center; display: flex; color: dodgerblue; font-size: 90px""><b>o</b></div>","null","","","","forget_cue","","","","","","","","","","","","","","","",""
"html-keyboard-response","221","665340","0.0-4.0-1.0-0.33","69245ub2ud666qm","prime","5ee91b02e2573929f460e50b","5f60e3c0a3b16e07647b2ff9","5f60ec3d7010ac2bcf1","false","null","<span style=""color: black; font-size: 48px"">N + M</span>","null","","","","resp_prompt","","","","","","","","","","","","","","","",""
"categorize-image","222","665912","0.0-4.0-1.0-1.33","69245ub2ud666qm","prime","5ee91b02e2573929f460e50b","5f60e3c0a3b16e07647b2ff9","5f60ec3d7010ac2bcf1","true","564.089999999851","./Stimuli/SelectedImages/LM/LM75.bmp","76","","","","test","true","N + M","76","repetition","LM","LM75.bmp","remember","","82","3","prime1","right","","","",""
"html-keyboard-response","223","667921","0.0-4.0-1.0-3.33","69245ub2ud666qm","prime","5ee91b02e2573929f460e50b","5f60e3c0a3b16e07647b2ff9","5f60ec3d7010ac2bcf1","false","null","<div style=""align-items: center; display: flex; color: dodgerblue; font-size: 90px""><b>o</b></div>","null","","","","forget_cue","","","","","","","","","","","","","","","",""
"html-keyboard-response","224","668631","0.0-4.0-1.0-0.34","69245ub2ud666qm","prime","5ee91b02e2573929f460e50b","5f60e3c0a3b16e07647b2ff9","5f60ec3d7010ac2bcf1","false","null","<span style=""color: black; font-size: 48px"">M + N</span>","null","","","","resp_prompt","","","","","","","","","","","","","","","",""
"categorize-image","225","669234","0.0-4.0-1.0-1.34","69245ub2ud666qm","prime","5ee91b02e2573929f460e50b","5f60e3c0a3b16e07647b2ff9","5f60ec3d7010ac2bcf1","true","594.4149999413639","./Stimuli/SelectedImages/SN/SN128.bmp","76","","","","test","true","M + N","76","repetition","SN","SN128.bmp","forget","","83","3","prime1","right","","","",""
"html-keyboard-response","226","671249","0.0-4.0-1.0-3.34","69245ub2ud666qm","prime","5ee91b02e2573929f460e50b","5f60e3c0a3b16e07647b2ff9","5f60ec3d7010ac2bcf1","false","null","<div style=""align-items: center; display: flex; color: darkorange; font-size: 90px""><b>ø</b></div>","null","","","","forget_cue","","","","","","","","","","","","","","","",""
"html-keyboard-response","227","671956","0.0-4.0-1.0-0.35","69245ub2ud666qm","prime","5ee91b02e2573929f460e50b","5f60e3c0a3b16e07647b2ff9","5f60ec3d7010ac2bcf1","false","null","<span style=""color: black; font-size: 48px"">N + M</span>","null","","","","resp_prompt","","","","","","","","","","","","","","","",""
"categorize-image","228","672494","0.0-4.0-1.0-1.35","69245ub2ud666qm","prime","5ee91b02e2573929f460e50b","5f60e3c0a3b16e07647b2ff9","5f60ec3d7010ac2bcf1","true","528.989999787882","./Stimuli/SelectedImages/SM/SM195.bmp","76","","","","test","true","N + M","76","repetition","SM","SM195.bmp","remember","","84","3","prime1","right","","","",""
"html-keyboard-response","229","674505","0.0-4.0-1.0-3.35","69245ub2ud666qm","prime","5ee91b02e2573929f460e50b","5f60e3c0a3b16e07647b2ff9","5f60ec3d7010ac2bcf1","false","null","<div style=""align-items: center; display: flex; color: dodgerblue; font-size: 90px""><b>o</b></div>","null","","","","forget_cue","","","","","","","","","","","","","","","",""
"html-keyboard-response","230","675209","0.0-4.0-1.0-0.36","69245ub2ud666qm","prime","5ee91b02e2573929f460e50b","5f60e3c0a3b16e07647b2ff9","5f60ec3d7010ac2bcf1","false","null","<span style=""color: black; font-size: 48px"">N + M</span>","null","","","","resp_prompt","","","","","","","","","","","","","","","",""
"categorize-image","231","675773","0.0-4.0-1.0-1.36","69245ub2ud666qm","prime","5ee91b02e2573929f460e50b","5f60e3c0a3b16e07647b2ff9","5f60ec3d7010ac2bcf1","true","555.7899998966604","./Stimuli/SelectedImages/LN/LN9.bmp","83","","","","test","true","N + M","83","switch","LN","LN9.bmp","remember","","85","3","prime1","left","","","",""
"html-keyboard-response","232","677784","0.0-4.0-1.0-3.36","69245ub2ud666qm","prime","5ee91b02e2573929f460e50b","5f60e3c0a3b16e07647b2ff9","5f60ec3d7010ac2bcf1","false","null","<div style=""align-items: center; display: flex; color: dodgerblue; font-size: 90px""><b>o</b></div>","null","","","","forget_cue","","","","","","","","","","","","","","","",""
"html-keyboard-response","233","678496","0.0-4.0-1.0-0.37","69245ub2ud666qm","prime","5ee91b02e2573929f460e50b","5f60e3c0a3b16e07647b2ff9","5f60ec3d7010ac2bcf1","false","null","<span style=""color: black; font-size: 48px"">N + M</span>","null","","","","resp_prompt","","","","","","","","","","","","","","","",""
"categorize-image","234","679144","0.0-4.0-1.0-1.37","69245ub2ud666qm","prime","5ee91b02e2573929f460e50b","5f60e3c0a3b16e07647b2ff9","5f60ec3d7010ac2bcf1","true","639.000000199303","./Stimuli/SelectedImages/SN/SN18.bmp","83","","","","test","true","N + M","83","switch","SN","SN18.bmp","forget","","86","3","prime1","left","","","",""
"html-keyboard-response","235","681163","0.0-4.0-1.0-3.37","69245ub2ud666qm","prime","5ee91b02e2573929f460e50b","5f60e3c0a3b16e07647b2ff9","5f60ec3d7010ac2bcf1","false","null","<div style=""align-items: center; display: flex; color: darkorange; font-size: 90px""><b>ø</b></div>","null","","","","forget_cue","","","","","","","","","","","","","","","",""
"html-keyboard-response","236","681872","0.0-4.0-1.0-0.38","69245ub2ud666qm","prime","5ee91b02e2573929f460e50b","5f60e3c0a3b16e07647b2ff9","5f60ec3d7010ac2bcf1","false","null","<span style=""color: black; font-size: 48px"">M + N</span>","null","","","","resp_prompt","","","","","","","","","","","","","","","",""
"categorize-image","237","682444","0.0-4.0-1.0-1.38","69245ub2ud666qm","prime","5ee91b02e2573929f460e50b","5f60e3c0a3b16e07647b2ff9","5f60ec3d7010ac2bcf1","true","564.3299999646842","./Stimuli/SelectedImages/LN/LN166.bmp","76","","","","test","true","M + N","76","repetition","LN","LN166.bmp","forget","","87","3","prime1","right","","","",""
"html-keyboard-response","238","684455","0.0-4.0-1.0-3.38","69245ub2ud666qm","prime","5ee91b02e2573929f460e50b","5f60e3c0a3b16e07647b2ff9","5f60ec3d7010ac2bcf1","false","null","<div style=""align-items: center; display: flex; color: darkorange; font-size: 90px""><b>ø</b></div>","null","","","","forget_cue","","","","","","","","","","","","","","","",""
"html-keyboard-response","239","685166","0.0-4.0-1.0-0.39","69245ub2ud666qm","prime","5ee91b02e2573929f460e50b","5f60e3c0a3b16e07647b2ff9","5f60ec3d7010ac2bcf1","false","null","<span style=""color: black; font-size: 48px"">M + N</span>","null","","","","resp_prompt","","","","","","","","","","","","","","","",""
"categorize-image","240","686008","0.0-4.0-1.0-1.39","69245ub2ud666qm","prime","5ee91b02e2573929f460e50b","5f60e3c0a3b16e07647b2ff9","5f60ec3d7010ac2bcf1","true","832.7850000932813","./Stimuli/SelectedImages/SM/SM148.bmp","83","","","","test","true","M + N","83","repetition","SM","SM148.bmp","remember","","88","3","prime1","left","","","",""
"html-keyboard-response","241","688024","0.0-4.0-1.0-3.39","69245ub2ud666qm","prime","5ee91b02e2573929f460e50b","5f60e3c0a3b16e07647b2ff9","5f60ec3d7010ac2bcf1","false","null","<div style=""align-items: center; display: flex; color: dodgerblue; font-size: 90px""><b>o</b></div>","null","","","","forget_cue","","","","","","","","","","","","","","","",""
"html-keyboard-response","242","688728","0.0-4.0-1.0-0.40","69245ub2ud666qm","prime","5ee91b02e2573929f460e50b","5f60e3c0a3b16e07647b2ff9","5f60ec3d7010ac2bcf1","false","null","<span style=""color: black; font-size: 48px"">M + N</span>","null","","","","resp_prompt","","","","","","","","","","","","","","","",""
"categorize-image","243","689286","0.0-4.0-1.0-1.40","69245ub2ud666qm","prime","5ee91b02e2573929f460e50b","5f60e3c0a3b16e07647b2ff9","5f60ec3d7010ac2bcf1","true","548.9199999719858","./Stimuli/SelectedImages/LM/LM100.bmp","76","","","","test","false","M + N","83","repetition","LM","LM100.bmp","forget","","89","3","prime1","right","","","",""
"html-keyboard-response","244","689792","0.0-4.0-1.0-2.40-0.40","69245ub2ud666qm","prime","5ee91b02e2573929f460e50b","5f60e3c0a3b16e07647b2ff9","5f60ec3d7010ac2bcf1","false","null","<span style=""color: red; font-size: 48px"">Error!</span>","null","","","","feedback","","","","","","","","","","","","","","","",""
"html-keyboard-response","245","691810","0.0-4.0-1.0-3.40","69245ub2ud666qm","prime","5ee91b02e2573929f460e50b","5f60e3c0a3b16e07647b2ff9","5f60ec3d7010ac2bcf1","false","null","<div style=""align-items: center; display: flex; color: darkorange; font-size: 90px""><b>ø</b></div>","null","","","","forget_cue","","","","","","","","","","","","","","","",""
"html-keyboard-response","246","692517","0.0-4.0-1.0-0.41","69245ub2ud666qm","prime","5ee91b02e2573929f460e50b","5f60e3c0a3b16e07647b2ff9","5f60ec3d7010ac2bcf1","false","null","<span style=""color: black; font-size: 48px"">M + N</span>","null","","","","resp_prompt","","","","","","","","","","","","","","","",""
"categorize-image","247","693075","0.0-4.0-1.0-1.41","69245ub2ud666qm","prime","5ee91b02e2573929f460e50b","5f60e3c0a3b16e07647b2ff9","5f60ec3d7010ac2bcf1","true","548.4800001140684","./Stimuli/SelectedImages/LN/LN101.bmp","76","","","","test","true","M + N","76","repetition","LN","LN101.bmp","remember","","90","3","prime1","right","","","",""
"html-keyboard-response","248","695086","0.0-4.0-1.0-3.41","69245ub2ud666qm","prime","5ee91b02e2573929f460e50b","5f60e3c0a3b16e07647b2ff9","5f60ec3d7010ac2bcf1","false","null","<div style=""align-items: center; display: flex; color: dodgerblue; font-size: 90px""><b>o</b></div>","null","","","","forget_cue","","","","","","","","","","","","","","","",""
"html-keyboard-response","249","695795","0.0-4.0-1.0-0.42","69245ub2ud666qm","prime","5ee91b02e2573929f460e50b","5f60e3c0a3b16e07647b2ff9","5f60ec3d7010ac2bcf1","false","null","<span style=""color: black; font-size: 48px"">N + M</span>","null","","","","resp_prompt","","","","","","","","","","","","","","","",""
"categorize-image","250","696306","0.0-4.0-1.0-1.42","69245ub2ud666qm","prime","5ee91b02e2573929f460e50b","5f60e3c0a3b16e07647b2ff9","5f60ec3d7010ac2bcf1","true","502.2199999075383","./Stimuli/SelectedImages/LN/LN128.bmp","83","","","","test","true","N + M","83","switch","LN","LN128.bmp","remember","","91","3","prime1","left","","","",""
"html-keyboard-response","251","698321","0.0-4.0-1.0-3.42","69245ub2ud666qm","prime","5ee91b02e2573929f460e50b","5f60e3c0a3b16e07647b2ff9","5f60ec3d7010ac2bcf1","false","null","<div style=""align-items: center; display: flex; color: dodgerblue; font-size: 90px""><b>o</b></div>","null","","","","forget_cue","","","","","","","","","","","","","","","",""
"html-keyboard-response","252","699024","0.0-4.0-1.0-0.43","69245ub2ud666qm","prime","5ee91b02e2573929f460e50b","5f60e3c0a3b16e07647b2ff9","5f60ec3d7010ac2bcf1","false","null","<span style=""color: black; font-size: 48px"">N + M</span>","null","","","","resp_prompt","","","","","","","","","","","","","","","",""
"categorize-image","253","699500","0.0-4.0-1.0-1.43","69245ub2ud666qm","prime","5ee91b02e2573929f460e50b","5f60e3c0a3b16e07647b2ff9","5f60ec3d7010ac2bcf1","true","467.19500003382564","./Stimuli/SelectedImages/LM/LM167.bmp","76","","","","test","true","N + M","76","switch","LM","LM167.bmp","remember","","92","3","prime1","right","","","",""
"html-keyboard-response","254","701517","0.0-4.0-1.0-3.43","69245ub2ud666qm","prime","5ee91b02e2573929f460e50b","5f60e3c0a3b16e07647b2ff9","5f60ec3d7010ac2bcf1","false","null","<div style=""align-items: center; display: flex; color: dodgerblue; font-size: 90px""><b>o</b></div>","null","","","","forget_cue","","","","","","","","","","","","","","","",""
"html-keyboard-response","255","702223","0.0-4.0-1.0-0.44","69245ub2ud666qm","prime","5ee91b02e2573929f460e50b","5f60e3c0a3b16e07647b2ff9","5f60ec3d7010ac2bcf1","false","null","<span style=""color: black; font-size: 48px"">N + M</span>","null","","","","resp_prompt","","","","","","","","","","","","","","","",""
"categorize-image","256","702814","0.0-4.0-1.0-1.44","69245ub2ud666qm","prime","5ee91b02e2573929f460e50b","5f60e3c0a3b16e07647b2ff9","5f60ec3d7010ac2bcf1","true","581.0100000817329","./Stimuli/SelectedImages/SM/SM17.bmp","76","","","","test","true","N + M","76","switch","SM","SM17.bmp","forget","","93","3","prime1","right","","","",""
