"trial_type","trial_index","time_elapsed","internal_node_id","subject","exp_part","prolific_PID","study_ID","session_ID","use","rt","stimulus","key_press","button_pressed","responses","question_order","trial_part","correct","resp_map","correct_resp","probe_condition","category","image","forget_condition","list","trial_num","block_num","block","response","test_part","n_span","sequence","num_spaces"
"pavlovia","0","3","0.0-0.0","8amzjhbbklvtwer","","5f2b24f1ad7456522f27686c","5f60e3c0a3b16e07647b2ff9","5f646a61fc17021fd817ad1b","false","","","","","","","","","","","","","","","","","","","","","","",""
"html-keyboard-response","1","12162","0.0-1.0-0.0-0.0","8amzjhbbklvtwer","welcome","5f2b24f1ad7456522f27686c","5f60e3c0a3b16e07647b2ff9","5f646a61fc17021fd817ad1b","false","12158.374999999069","<div align=left>Dear participant, <br> thank you for participating in an online study of the Cognition, Action, and Sustainability Unit of the University of Freiburg! <br> <br>The aim of this study is to examine our ability to remember previously learned information. <br>Our goal is to find out, whether our memory improves, when we only remember information that is relevant to us. <br>The experiment will take about 35 minutes to complete. <br> <br>Please, note that you can only participate in this study if you are using a device with a keyboard (PC, Laptop etc.) <br>and not if you are using a mobile device such as a tablet or smartphone.<br> <br>Press 'SPACE' to proceed to the experiment. </div>","32","","","","","","","","","","","","","","","","","","","",""
"html-keyboard-response","2","31319","0.0-1.0-0.0-1.0","8amzjhbbklvtwer","welcome","5f2b24f1ad7456522f27686c","5f60e3c0a3b16e07647b2ff9","5f646a61fc17021fd817ad1b","false","19155.469999997877","<div align=left><strong> Time Course of this experiment: </strong> <br><br> <strong> 1.</strong>  First, please fill in some information regarding your demographic data. <br><br> <strong> 2.</strong>  Next, your task will be to classify everyday objects. <br>In addition, you will be asked to remember certain objects and recall them later. <br>Working on these tasks requires your undivided attention and concentration.<br>It is therefore essential that you eliminate any sources of distraction in your  <br>environment and ensure that you will not be disturbed. <br><br><strong> 3.</strong>  At the end of the experiment, you will be asked to answer a few additional questions. <br> <br><strong> Important:</strong> After finishing the experiment, only close the browser window <br> by clicking on the 'end the experiment'-button when you are asked to do so. <br>Closing the browser window prematurely will make the allocation of your participation credit impossible. <br><br> Press 'SPACE' to start the experiment. </div>","32","","","","","","","","","","","","","","","","","","","",""
"html-button-response","3","43470","0.0-1.0-0.0-2.0","8amzjhbbklvtwer","welcome","5f2b24f1ad7456522f27686c","5f60e3c0a3b16e07647b2ff9","5f646a61fc17021fd817ad1b","true","12148.169999942183","<div align=left><strong> Informed consent </strong>  <br>The aim of our research is to better understand human behavior and mental processes. <br>In the following study your behavior (e.g. choices, reaction times) will be studied. <br> <br><strong> Voluntariness and Anonymity </strong> <br>Your participation in this study is  <strong> voluntary</strong>.<br>You may withdraw your consent to participate at any time without providing a reason for doing so and without fear of prejudice. <br><br>As no personal data will be collected, <strong>your data and your person cannot be connected after data collection</strong> – the data-set is anonymous. <br>Respectively, deletion of your data will not be possible after data collection has been completed, as we cannot retrace your data-set.<br>The results and anonymized data collected in this study will be published as a scientific publication. <br>This will happen in an <strong>anonymized format</strong>, so that no data can be traced back to a specific person. <br> <br>The anonymized data of this study will be made available to other researchers and/or in a data archive on the Internet as a means of transparency and to enable subsequent re-use. By doing so, this study follows the recommendations of the Deutsche Forschungsgemeinschaft (DFG, German Research Foundation) and Deutsche Gesellschaft für Psychologie (DGPS, German Psychological Society) regarding quality assurance in research.<br>If you have any questions now or after the experiment, please contact our team (experiments@cs.uni-freiburg.de).<br><br><br>I hereby declare, that I understand the above described conditions of participation and I agree to participate under these conditions. <br><br> </div>","","0","","","","","","","","","","","","","","","","","","",""
"html-keyboard-response","4","58795","0.0-1.0-0.0-3.0","8amzjhbbklvtwer","welcome","5f2b24f1ad7456522f27686c","5f60e3c0a3b16e07647b2ff9","5f646a61fc17021fd817ad1b","false","15323.09499999974","<div align=left><strong> General information concerning the experiment </strong>  <br> <br>Please follow the instructions:<ol> <li><strong> Do not leave this tab (your browser window) during the experiment and do not reload this tab! </strong>  <br>If you do switch tabs/windows during the experiment (to check your mail or visit another website, for example), <br>the experiment will end automatically and you will <strong>not receive credit</strong> for your participation. <br>Repeated participation or resumption of the experiment is impossible.</li> <br><li>Please close all other programs for the duration of your participation. </li> <br><li>Please mute or turn off your phone and put it out of your reach. </li> <br><li>Please also take off any disturbing accessories (such as wristwatches, bracelets, etc.). </li> <br><li>If you have music playing in the background, please turn it off now. </li> <br></ol>Thank you! <br>Press 'SPACE' to continue. </div>","32","","","","","","","","","","","","","","","","","","","",""
"survey-text","5","64297","0.0-1.0-1.0-0.0","8amzjhbbklvtwer","demographics","5f2b24f1ad7456522f27686c","5f60e3c0a3b16e07647b2ff9","5f646a61fc17021fd817ad1b","true","5496.500000008382","","","","{""age"":""36""}","","","","","","","","","","","","","","","","","",""
"survey-multi-choice","6","85274","0.0-1.0-1.0-1.0","8amzjhbbklvtwer","demographics","5f2b24f1ad7456522f27686c","5f60e3c0a3b16e07647b2ff9","5f646a61fc17021fd817ad1b","true","20973.549999995157","","","","{""gender"":""male"",""school"":""high school"",""education"":""Completed university degree or equivalent""}","[0,1,2]","","","","","","","","","","","","","","","","",""
"html-keyboard-response","7","105019","0.0-1.0-2.0","8amzjhbbklvtwer","instructions","5f2b24f1ad7456522f27686c","5f60e3c0a3b16e07647b2ff9","5f646a61fc17021fd817ad1b","false","19739.844999974594","<div align=left> The experiment is now about to start: <br> <br>In the following part, you will be presented pictures of everyday objects. <br>Your first task is to <strong>classify these objects. </strong> <br> <br> You will classify them either as mechanical or non-mechanical objects. <br> <br>Objects that include any kind of technical mechanism (for example, wheels, switches, levers, <br> electronic components) fall under the category of <strong>mechanical</strong> objects. <br>Only objects without any kind of technical mechanism should be classified as <strong>non-mechanical</strong>. <br><br>Press 'SPACE' to continue. </div>","32","","","","","","","","","","","","","","","","","","","",""
"html-keyboard-response","8","145888","0.0-2.0-0.0","8amzjhbbklvtwer","instructions","5f2b24f1ad7456522f27686c","5f60e3c0a3b16e07647b2ff9","5f646a61fc17021fd817ad1b","false","40867.21499997657","<div align=justify>You will classify the objects using the <strong>'S'</strong> and the <strong>'L'</strong> keys on your keyboard.<br>For doing so, please place your <strong>left index finger</strong> on the <strong>'S'</strong> key and place your <strong>right index finger</strong> on the <strong>'L'</strong> key. <br><br> Each trial starts with an instruction, indicating which key ('S'/'L') you need to press to classify <br>the object as mechanical (letter M) or non-mechanical (letter N).<br>The instruction <strong>M + N</strong> indicates that, in the current trial, by pressing the left key ('S') you classify the displayed object as mechanical (M) <br> and by pressing the right key ('L') you classify the object as non-mechanical (N). <br>The instruction <strong>N + M</strong> on the other hand indicates that by pressing the left key ('S') you classify the displayed object as non-mechanical (N) <br> and by pressing the right key ('L') you classify the object as mechanical (M). <br><br>Please press the key corresponding to the correct classification as fast as possible as soon as the object is displayed and try to avoid making mistakes.<br>If you do not respond within a 2 second window, a corresponding feedback will be displayed and the next trial will start.<br> The experiment is divided into multiple blocks to give you the opportunity to take a break after each block. <br>First, you can now practice this task. <br><br>Please place your <strong>LEFT INDEX FINGER</strong> on the 'S' key and your <strong>RIGHT INDEX FINGER</strong> on the 'L' key now. <br><br>Press SPACE to continue.</div>","32","","","","","","","","","","","","","","","","","","","",""
"html-keyboard-response","9","155697","0.0-2.0-1.0","8amzjhbbklvtwer","instructions","5f2b24f1ad7456522f27686c","5f60e3c0a3b16e07647b2ff9","5f646a61fc17021fd817ad1b","false","9807.82999994699","<div align=left> You will now have time to practice this task.<br><br>Remember: <br> <br><li>Please place your index fingers on the <strong>'S'</strong> and <strong>'L'</strong> keys <br>to respond as fast and accurately as possible.</li><li>Every picture can be classified as either mechanical or non-mechanical.</li><li>If you do not respond in time or commit an error, you will receive a corresponding feedback. </li><li> Please try to respond as <strong> fast </strong> and as <strong> accurately as possible </strong> .<br><li>To ensure optimal results, please minimize distractions and stay focused. </li><br><br>Press SPACE to continue.</div>","32","","","","","","","","","","","","","","","","","","","",""
"html-keyboard-response","10","156405","0.0-2.0-2.0-0.0","8amzjhbbklvtwer","practice_no_cue","5f2b24f1ad7456522f27686c","5f60e3c0a3b16e07647b2ff9","5f646a61fc17021fd817ad1b","false","null","<span style=""color: black; font-size: 48px"">M + N</span>","null","","","","resp_prompt","","","","","","","","","","","","","","","",""
"categorize-image","11","158654","0.0-2.0-2.0-1.0","8amzjhbbklvtwer","practice_no_cue","5f2b24f1ad7456522f27686c","5f60e3c0a3b16e07647b2ff9","5f646a61fc17021fd817ad1b","true","1740.7200000016019","./Stimuli/ImagesPractice/SN220.jpg","76","","","","test","true","M + N","76","","SN","SN220.jpg","remember","old","1","1","start","right","","","",""
"html-keyboard-response","12","159359","0.0-2.0-2.0-0.1","8amzjhbbklvtwer","practice_no_cue","5f2b24f1ad7456522f27686c","5f60e3c0a3b16e07647b2ff9","5f646a61fc17021fd817ad1b","false","null","<span style=""color: black; font-size: 48px"">N + M</span>","null","","","","resp_prompt","","","","","","","","","","","","","","","",""
"categorize-image","13","161769","0.0-2.0-2.0-1.1","8amzjhbbklvtwer","practice_no_cue","5f2b24f1ad7456522f27686c","5f60e3c0a3b16e07647b2ff9","5f646a61fc17021fd817ad1b","true","1903.8949999958277","./Stimuli/ImagesPractice/LN15.jpg","83","","","","test","true","N + M","83","","LN","LN15.jpg","remember","old","2","1","start","left","","","",""
"html-keyboard-response","14","162471","0.0-2.0-2.0-0.2","8amzjhbbklvtwer","practice_no_cue","5f2b24f1ad7456522f27686c","5f60e3c0a3b16e07647b2ff9","5f646a61fc17021fd817ad1b","false","null","<span style=""color: black; font-size: 48px"">N + M</span>","null","","","","resp_prompt","","","","","","","","","","","","","","","",""
"categorize-image","15","164782","0.0-2.0-2.0-1.2","8amzjhbbklvtwer","practice_no_cue","5f2b24f1ad7456522f27686c","5f60e3c0a3b16e07647b2ff9","5f646a61fc17021fd817ad1b","true","1807.2399999946356","./Stimuli/ImagesPractice/SM35.jpg","83","","","","test","false","N + M","76","","SM","SM35.jpg","forget","old","3","1","start","left","","","",""
"html-keyboard-response","16","165485","0.0-2.0-2.0-0.3","8amzjhbbklvtwer","practice_no_cue","5f2b24f1ad7456522f27686c","5f60e3c0a3b16e07647b2ff9","5f646a61fc17021fd817ad1b","false","null","<span style=""color: black; font-size: 48px"">M + N</span>","null","","","","resp_prompt","","","","","","","","","","","","","","","",""
"categorize-image","17","167013","0.0-2.0-2.0-1.3","8amzjhbbklvtwer","practice_no_cue","5f2b24f1ad7456522f27686c","5f60e3c0a3b16e07647b2ff9","5f646a61fc17021fd817ad1b","true","1023.4550000168383","./Stimuli/ImagesPractice/LN17.jpg","76","","","","test","true","M + N","76","","LN","LN17.jpg","forget","old","4","1","start","right","","","",""
"html-keyboard-response","18","167715","0.0-2.0-2.0-0.4","8amzjhbbklvtwer","practice_no_cue","5f2b24f1ad7456522f27686c","5f60e3c0a3b16e07647b2ff9","5f646a61fc17021fd817ad1b","false","null","<span style=""color: black; font-size: 48px"">N + M</span>","null","","","","resp_prompt","","","","","","","","","","","","","","","",""
"categorize-image","19","170224","0.0-2.0-2.0-1.4","8amzjhbbklvtwer","practice_no_cue","5f2b24f1ad7456522f27686c","5f60e3c0a3b16e07647b2ff9","5f646a61fc17021fd817ad1b","true","null","./Stimuli/ImagesPractice/LM55.jpg","null","","","","test","false","N + M","76","","LM","LM55.jpg","forget","old","5","1","start","too_slow","","","",""
"html-keyboard-response","20","170927","0.0-2.0-2.0-0.5","8amzjhbbklvtwer","practice_no_cue","5f2b24f1ad7456522f27686c","5f60e3c0a3b16e07647b2ff9","5f646a61fc17021fd817ad1b","false","null","<span style=""color: black; font-size: 48px"">N + M</span>","null","","","","resp_prompt","","","","","","","","","","","","","","","",""
"categorize-image","21","172251","0.0-2.0-2.0-1.5","8amzjhbbklvtwer","practice_no_cue","5f2b24f1ad7456522f27686c","5f60e3c0a3b16e07647b2ff9","5f646a61fc17021fd817ad1b","true","820.1899999985471","./Stimuli/ImagesPractice/SM97.jpg","76","","","","test","true","N + M","76","","SM","SM97.jpg","remember","old","6","1","start","right","","","",""
"html-keyboard-response","22","172958","0.0-2.0-2.0-0.6","8amzjhbbklvtwer","practice_no_cue","5f2b24f1ad7456522f27686c","5f60e3c0a3b16e07647b2ff9","5f646a61fc17021fd817ad1b","false","null","<span style=""color: black; font-size: 48px"">N + M</span>","null","","","","resp_prompt","","","","","","","","","","","","","","","",""
"categorize-image","23","174392","0.0-2.0-2.0-1.6","8amzjhbbklvtwer","practice_no_cue","5f2b24f1ad7456522f27686c","5f60e3c0a3b16e07647b2ff9","5f646a61fc17021fd817ad1b","true","927.6599999284372","./Stimuli/ImagesPractice/LN2.jpg","83","","","","test","true","N + M","83","","LN","LN2.jpg","remember","old","7","1","start","left","","","",""
"html-keyboard-response","24","175101","0.0-2.0-2.0-0.7","8amzjhbbklvtwer","practice_no_cue","5f2b24f1ad7456522f27686c","5f60e3c0a3b16e07647b2ff9","5f646a61fc17021fd817ad1b","false","null","<span style=""color: black; font-size: 48px"">N + M</span>","null","","","","resp_prompt","","","","","","","","","","","","","","","",""
"categorize-image","25","176469","0.0-2.0-2.0-1.7","8amzjhbbklvtwer","practice_no_cue","5f2b24f1ad7456522f27686c","5f60e3c0a3b16e07647b2ff9","5f646a61fc17021fd817ad1b","true","864.3000000156462","./Stimuli/ImagesPractice/SM37.jpg","76","","","","test","true","N + M","76","","SM","SM37.jpg","remember","old","8","1","start","right","","","",""
"html-keyboard-response","26","177176","0.0-2.0-2.0-0.8","8amzjhbbklvtwer","practice_no_cue","5f2b24f1ad7456522f27686c","5f60e3c0a3b16e07647b2ff9","5f646a61fc17021fd817ad1b","false","null","<span style=""color: black; font-size: 48px"">M + N</span>","null","","","","resp_prompt","","","","","","","","","","","","","","","",""
"categorize-image","27","178519","0.0-2.0-2.0-1.8","8amzjhbbklvtwer","practice_no_cue","5f2b24f1ad7456522f27686c","5f60e3c0a3b16e07647b2ff9","5f646a61fc17021fd817ad1b","true","835.7250000117347","./Stimuli/ImagesPractice/SM98.jpg","83","","","","test","true","M + N","83","","SM","SM98.jpg","remember","old","9","1","start","left","","","",""
"html-keyboard-response","28","179222","0.0-2.0-2.0-0.9","8amzjhbbklvtwer","practice_no_cue","5f2b24f1ad7456522f27686c","5f60e3c0a3b16e07647b2ff9","5f646a61fc17021fd817ad1b","false","null","<span style=""color: black; font-size: 48px"">N + M</span>","null","","","","resp_prompt","","","","","","","","","","","","","","","",""
"categorize-image","29","180680","0.0-2.0-2.0-1.9","8amzjhbbklvtwer","practice_no_cue","5f2b24f1ad7456522f27686c","5f60e3c0a3b16e07647b2ff9","5f646a61fc17021fd817ad1b","true","950.2749999519438","./Stimuli/ImagesPractice/LM147.jpg","76","","","","test","true","N + M","76","","LM","LM147.jpg","forget","old","10","1","start","right","","","",""
"html-keyboard-response","30","181385","0.0-2.0-2.0-0.10","8amzjhbbklvtwer","practice_no_cue","5f2b24f1ad7456522f27686c","5f60e3c0a3b16e07647b2ff9","5f646a61fc17021fd817ad1b","false","null","<span style=""color: black; font-size: 48px"">N + M</span>","null","","","","resp_prompt","","","","","","","","","","","","","","","",""
"categorize-image","31","182964","0.0-2.0-2.0-1.10","8amzjhbbklvtwer","practice_no_cue","5f2b24f1ad7456522f27686c","5f60e3c0a3b16e07647b2ff9","5f646a61fc17021fd817ad1b","true","1077.255000011064","./Stimuli/ImagesPractice/SM61.jpg","76","","","","test","true","N + M","76","","SM","SM61.jpg","forget","old","11","1","start","right","","","",""
"html-keyboard-response","32","183670","0.0-2.0-2.0-0.11","8amzjhbbklvtwer","practice_no_cue","5f2b24f1ad7456522f27686c","5f60e3c0a3b16e07647b2ff9","5f646a61fc17021fd817ad1b","false","null","<span style=""color: black; font-size: 48px"">M + N</span>","null","","","","resp_prompt","","","","","","","","","","","","","","","",""
"categorize-image","33","185062","0.0-2.0-2.0-1.11","8amzjhbbklvtwer","practice_no_cue","5f2b24f1ad7456522f27686c","5f60e3c0a3b16e07647b2ff9","5f646a61fc17021fd817ad1b","true","889.6099999547005","./Stimuli/ImagesPractice/LM230.jpg","83","","","","test","true","M + N","83","","LM","LM230.jpg","forget","old","12","1","start","left","","","",""
"html-keyboard-response","34","185768","0.0-2.0-2.0-0.12","8amzjhbbklvtwer","practice_no_cue","5f2b24f1ad7456522f27686c","5f60e3c0a3b16e07647b2ff9","5f646a61fc17021fd817ad1b","false","null","<span style=""color: black; font-size: 48px"">M + N</span>","null","","","","resp_prompt","","","","","","","","","","","","","","","",""
"categorize-image","35","187144","0.0-2.0-2.0-1.12","8amzjhbbklvtwer","practice_no_cue","5f2b24f1ad7456522f27686c","5f60e3c0a3b16e07647b2ff9","5f646a61fc17021fd817ad1b","true","869.0899999346584","./Stimuli/ImagesPractice/SN76.jpg","76","","","","test","true","M + N","76","","SN","SN76.jpg","remember","old","13","1","start","right","","","",""
"html-keyboard-response","36","187846","0.0-2.0-2.0-0.13","8amzjhbbklvtwer","practice_no_cue","5f2b24f1ad7456522f27686c","5f60e3c0a3b16e07647b2ff9","5f646a61fc17021fd817ad1b","false","null","<span style=""color: black; font-size: 48px"">M + N</span>","null","","","","resp_prompt","","","","","","","","","","","","","","","",""
"categorize-image","37","189507","0.0-2.0-2.0-1.13","8amzjhbbklvtwer","practice_no_cue","5f2b24f1ad7456522f27686c","5f60e3c0a3b16e07647b2ff9","5f646a61fc17021fd817ad1b","true","1159.1150000458583","./Stimuli/ImagesPractice/LN4.jpg","76","","","","test","true","M + N","76","","LN","LN4.jpg","forget","old","14","1","start","right","","","",""
"html-keyboard-response","38","190209","0.0-2.0-2.0-0.14","8amzjhbbklvtwer","practice_no_cue","5f2b24f1ad7456522f27686c","5f60e3c0a3b16e07647b2ff9","5f646a61fc17021fd817ad1b","false","null","<span style=""color: black; font-size: 48px"">M + N</span>","null","","","","resp_prompt","","","","","","","","","","","","","","","",""
"categorize-image","39","191631","0.0-2.0-2.0-1.14","8amzjhbbklvtwer","practice_no_cue","5f2b24f1ad7456522f27686c","5f60e3c0a3b16e07647b2ff9","5f646a61fc17021fd817ad1b","true","920.5650000367314","./Stimuli/ImagesPractice/SN205.jpg","76","","","","test","true","M + N","76","","SN","SN205.jpg","forget","old","15","1","start","right","","","",""
"html-keyboard-response","40","192333","0.0-2.0-2.0-0.15","8amzjhbbklvtwer","practice_no_cue","5f2b24f1ad7456522f27686c","5f60e3c0a3b16e07647b2ff9","5f646a61fc17021fd817ad1b","false","null","<span style=""color: black; font-size: 48px"">M + N</span>","null","","","","resp_prompt","","","","","","","","","","","","","","","",""
"categorize-image","41","193710","0.0-2.0-2.0-1.15","8amzjhbbklvtwer","practice_no_cue","5f2b24f1ad7456522f27686c","5f60e3c0a3b16e07647b2ff9","5f646a61fc17021fd817ad1b","true","869.535000063479","./Stimuli/ImagesPractice/SN222.jpg","83","","","","test","false","M + N","76","","SN","SN222.jpg","remember","old","16","1","start","left","","","",""
"html-keyboard-response","42","197734","0.0-2.0-3.0","8amzjhbbklvtwer","break","5f2b24f1ad7456522f27686c","5f60e3c0a3b16e07647b2ff9","5f646a61fc17021fd817ad1b","false","4021.7199999606237","<p style='font-size: 32px;'>Break</><br><br><br><br><br><p style='font-size: 24px;'>In the last block, you committed 2 errors and did not respond in time on 1 trials.
</p><p style='font-size: 24px;'>Try to respond as fast and accurately as possible in the next block as well! </p><p style='font-size: 24px;'>Press SPACE to continue.</p>","32","","","","","","","","","","","","","","","","","","","",""
"html-keyboard-response","43","211032","0.0-2.0-4.0","8amzjhbbklvtwer","instructions","5f2b24f1ad7456522f27686c","5f60e3c0a3b16e07647b2ff9","5f646a61fc17021fd817ad1b","false","13295.735000050627","<div align=left> Great!<br><br>Are you ready to continue?<br><br>If you want to reread the instructions and redo the practice trials, <br>please press „Z“. <br><br>Press SPACE to CONTINUE with the experiment when you are ready. </div>","32","","","","","","","","","","","","","","","","","","","",""
"html-keyboard-response","44","241528","0.0-3.0-0.0","8amzjhbbklvtwer","instructions","5f2b24f1ad7456522f27686c","5f60e3c0a3b16e07647b2ff9","5f646a61fc17021fd817ad1b","false","30494.964999961667","<div align=left>Great!<br> <strong>Attention</strong>! You will now receive a second, additional task! <br><br>To this point it was you <strong>first task</strong> to correctly <strong>classify objects</strong>. <br><br>As mentioned in the beginning, we aim to examine how well humans can remember previously learned information.<br>We would like to find out whether our memory improves if we only remember information that is relevant to us. <br><br>Therefore, your <strong>second task</strong> will be to <strong>remember</strong> the pictures you are to categorize. <br> After the learning phase, there will be a memory test phase, in which you will be asked to indicate whether you have seen a picture before or not. <br>Some, but not all pictures shown in the learning phase will appear in the memory test phase.<br>After classifying a picture, you will be told whether you should remember it for the memory test phase or not. <br>Thus, some pictures can be forgotten, whereas others have to be remembered. <br><br>Note: From now on, feedback will only be displayed if you responded incorrectly or not in time.<br><br>Press SPACE to continue.</div>","32","","","","","","","","","","","","","","","","","","","",""
"html-keyboard-response","45","260210","0.0-3.0-1.0","8amzjhbbklvtwer","instructions","5f2b24f1ad7456522f27686c","5f60e3c0a3b16e07647b2ff9","5f646a61fc17021fd817ad1b","false","18680.30499992892","<div align=left>In the following part, you will thus have to remember only some pictures. <br>Immediately after seeing and classifying the picture, a symbol will be displayed, indicating whether you should remember or forget the previous picture. <br><br>A <span style='color: dodgerblue; font-size: 28px'>O</span> indicates REMEMBER. That means, you have to remember this picture, because it will be tested later. <br><br>A <span style='color: darkorange; font-size:28px'>Ø</span> indicates FORGET. You do not have to remember this picture. <br><br> As you will have to remember a lot of pictures, it will be hard for you to remember all of them. <br>It will put you at an advantage if you instantly forget the pictures you are not asked to remember. <br> This will make it easier for you to remember the pictures that will be tested afterwards. <br><br>Press SPACE to continue.</div>","32","","","","","","","","","","","","","","","","","","","",""
"html-keyboard-response","46","268038","0.0-3.0-2.0","8amzjhbbklvtwer","instructions","5f2b24f1ad7456522f27686c","5f60e3c0a3b16e07647b2ff9","5f646a61fc17021fd817ad1b","false","7826.749999891035","<div align=left> Now you have the chance to practice both tasks together.<br><br>Remember: <br> <br><li>Please place your index fingers on the <strong>'S'</strong> and <strong>'L'</strong> keys <br>to respond as fast and accurately as possible.</li><li>Every picture can be classified as either mechanical or non-mechanical.</li><li>If you do not respond in time or commit an error, you will receive a corresponding feedback. <br>Please try to respond as <strong> fast </strong> and as <strong> accurately as possible </strong>.</li><li> Please remember only the to-be-remembered <span style='color: dodgerblue; font-size: 28px'>O</span> pictures. <br></li><li> Please minimize distractions and stay focused. </li><br><br>Press SPACE to START</div>","32","","","","","","","","","","","","","","","","","","","",""
"html-keyboard-response","47","268745","0.0-3.0-3.0-0.0","8amzjhbbklvtwer","practice_cue","5f2b24f1ad7456522f27686c","5f60e3c0a3b16e07647b2ff9","5f646a61fc17021fd817ad1b","false","null","<span style=""color: black; font-size: 48px"">N + M</span>","null","","","","resp_prompt","","","","","","","","","","","","","","","",""
"categorize-image","48","269547","0.0-3.0-3.0-1.0","8amzjhbbklvtwer","practice_cue","5f2b24f1ad7456522f27686c","5f60e3c0a3b16e07647b2ff9","5f646a61fc17021fd817ad1b","true","797.8049999801442","./Stimuli/ImagesPractice/SM61.jpg","76","","","","test","true","N + M","76","","SM","SM61.jpg","forget","old","17","2","practice_forget","right","","","",""
"html-keyboard-response","49","271551","0.0-3.0-3.0-3.0","8amzjhbbklvtwer","practice_cue","5f2b24f1ad7456522f27686c","5f60e3c0a3b16e07647b2ff9","5f646a61fc17021fd817ad1b","false","null","<div style=""align-items: center; display: flex; color: darkorange; font-size: 90px""><b>ø</b></div>","null","","","","forget_cue","","","","","","","","","","","","","","","",""
"html-keyboard-response","50","272255","0.0-3.0-3.0-0.1","8amzjhbbklvtwer","practice_cue","5f2b24f1ad7456522f27686c","5f60e3c0a3b16e07647b2ff9","5f646a61fc17021fd817ad1b","false","null","<span style=""color: black; font-size: 48px"">N + M</span>","null","","","","resp_prompt","","","","","","","","","","","","","","","",""
"categorize-image","51","272837","0.0-3.0-3.0-1.1","8amzjhbbklvtwer","practice_cue","5f2b24f1ad7456522f27686c","5f60e3c0a3b16e07647b2ff9","5f646a61fc17021fd817ad1b","true","578.8800000445917","./Stimuli/ImagesPractice/LM55.jpg","76","","","","test","true","N + M","76","","LM","LM55.jpg","forget","old","18","2","practice_forget","right","","","",""
"html-keyboard-response","52","274839","0.0-3.0-3.0-3.1","8amzjhbbklvtwer","practice_cue","5f2b24f1ad7456522f27686c","5f60e3c0a3b16e07647b2ff9","5f646a61fc17021fd817ad1b","false","null","<div style=""align-items: center; display: flex; color: darkorange; font-size: 90px""><b>ø</b></div>","null","","","","forget_cue","","","","","","","","","","","","","","","",""
"html-keyboard-response","53","275546","0.0-3.0-3.0-0.2","8amzjhbbklvtwer","practice_cue","5f2b24f1ad7456522f27686c","5f60e3c0a3b16e07647b2ff9","5f646a61fc17021fd817ad1b","false","null","<span style=""color: black; font-size: 48px"">M + N</span>","null","","","","resp_prompt","","","","","","","","","","","","","","","",""
"categorize-image","54","276507","0.0-3.0-3.0-1.2","8amzjhbbklvtwer","practice_cue","5f2b24f1ad7456522f27686c","5f60e3c0a3b16e07647b2ff9","5f646a61fc17021fd817ad1b","true","958.295000018552","./Stimuli/ImagesPractice/SN205.jpg","76","","","","test","true","M + N","76","","SN","SN205.jpg","forget","old","19","2","practice_forget","right","","","",""
"html-keyboard-response","55","278512","0.0-3.0-3.0-3.2","8amzjhbbklvtwer","practice_cue","5f2b24f1ad7456522f27686c","5f60e3c0a3b16e07647b2ff9","5f646a61fc17021fd817ad1b","false","null","<div style=""align-items: center; display: flex; color: darkorange; font-size: 90px""><b>ø</b></div>","null","","","","forget_cue","","","","","","","","","","","","","","","",""
"html-keyboard-response","56","279218","0.0-3.0-3.0-0.3","8amzjhbbklvtwer","practice_cue","5f2b24f1ad7456522f27686c","5f60e3c0a3b16e07647b2ff9","5f646a61fc17021fd817ad1b","false","null","<span style=""color: black; font-size: 48px"">M + N</span>","null","","","","resp_prompt","","","","","","","","","","","","","","","",""
"categorize-image","57","279817","0.0-3.0-3.0-1.3","8amzjhbbklvtwer","practice_cue","5f2b24f1ad7456522f27686c","5f60e3c0a3b16e07647b2ff9","5f646a61fc17021fd817ad1b","true","594.550000037998","./Stimuli/ImagesPractice/SM98.jpg","83","","","","test","true","M + N","83","","SM","SM98.jpg","remember","old","20","2","practice_forget","left","","","",""
"html-keyboard-response","58","281823","0.0-3.0-3.0-3.3","8amzjhbbklvtwer","practice_cue","5f2b24f1ad7456522f27686c","5f60e3c0a3b16e07647b2ff9","5f646a61fc17021fd817ad1b","false","null","<div style=""align-items: center; display: flex; color: dodgerblue; font-size: 90px""><b>o</b></div>","null","","","","forget_cue","","","","","","","","","","","","","","","",""
"html-keyboard-response","59","282529","0.0-3.0-3.0-0.4","8amzjhbbklvtwer","practice_cue","5f2b24f1ad7456522f27686c","5f60e3c0a3b16e07647b2ff9","5f646a61fc17021fd817ad1b","false","null","<span style=""color: black; font-size: 48px"">M + N</span>","null","","","","resp_prompt","","","","","","","","","","","","","","","",""
"categorize-image","60","283312","0.0-3.0-3.0-1.4","8amzjhbbklvtwer","practice_cue","5f2b24f1ad7456522f27686c","5f60e3c0a3b16e07647b2ff9","5f646a61fc17021fd817ad1b","true","778.6250000353903","./Stimuli/ImagesPractice/SN76.jpg","76","","","","test","true","M + N","76","","SN","SN76.jpg","remember","old","21","2","practice_forget","right","","","",""
"html-keyboard-response","61","285317","0.0-3.0-3.0-3.4","8amzjhbbklvtwer","practice_cue","5f2b24f1ad7456522f27686c","5f60e3c0a3b16e07647b2ff9","5f646a61fc17021fd817ad1b","false","null","<div style=""align-items: center; display: flex; color: dodgerblue; font-size: 90px""><b>o</b></div>","null","","","","forget_cue","","","","","","","","","","","","","","","",""
"html-keyboard-response","62","286024","0.0-3.0-3.0-0.5","8amzjhbbklvtwer","practice_cue","5f2b24f1ad7456522f27686c","5f60e3c0a3b16e07647b2ff9","5f646a61fc17021fd817ad1b","false","null","<span style=""color: black; font-size: 48px"">N + M</span>","null","","","","resp_prompt","","","","","","","","","","","","","","","",""
"categorize-image","63","286745","0.0-3.0-3.0-1.5","8amzjhbbklvtwer","practice_cue","5f2b24f1ad7456522f27686c","5f60e3c0a3b16e07647b2ff9","5f646a61fc17021fd817ad1b","true","717.6299999700859","./Stimuli/ImagesPractice/LM147.jpg","76","","","","test","true","N + M","76","","LM","LM147.jpg","forget","old","22","2","practice_forget","right","","","",""
"html-keyboard-response","64","288746","0.0-3.0-3.0-3.5","8amzjhbbklvtwer","practice_cue","5f2b24f1ad7456522f27686c","5f60e3c0a3b16e07647b2ff9","5f646a61fc17021fd817ad1b","false","null","<div style=""align-items: center; display: flex; color: darkorange; font-size: 90px""><b>ø</b></div>","null","","","","forget_cue","","","","","","","","","","","","","","","",""
"html-keyboard-response","65","289448","0.0-3.0-3.0-0.6","8amzjhbbklvtwer","practice_cue","5f2b24f1ad7456522f27686c","5f60e3c0a3b16e07647b2ff9","5f646a61fc17021fd817ad1b","false","null","<span style=""color: black; font-size: 48px"">N + M</span>","null","","","","resp_prompt","","","","","","","","","","","","","","","",""
"categorize-image","66","290167","0.0-3.0-3.0-1.6","8amzjhbbklvtwer","practice_cue","5f2b24f1ad7456522f27686c","5f60e3c0a3b16e07647b2ff9","5f646a61fc17021fd817ad1b","true","715.3700001072139","./Stimuli/ImagesPractice/LN2.jpg","83","","","","test","true","N + M","83","","LN","LN2.jpg","remember","old","23","2","practice_forget","left","","","",""
"html-keyboard-response","67","292171","0.0-3.0-3.0-3.6","8amzjhbbklvtwer","practice_cue","5f2b24f1ad7456522f27686c","5f60e3c0a3b16e07647b2ff9","5f646a61fc17021fd817ad1b","false","null","<div style=""align-items: center; display: flex; color: dodgerblue; font-size: 90px""><b>o</b></div>","null","","","","forget_cue","","","","","","","","","","","","","","","",""
"html-keyboard-response","68","292878","0.0-3.0-3.0-0.7","8amzjhbbklvtwer","practice_cue","5f2b24f1ad7456522f27686c","5f60e3c0a3b16e07647b2ff9","5f646a61fc17021fd817ad1b","false","null","<span style=""color: black; font-size: 48px"">M + N</span>","null","","","","resp_prompt","","","","","","","","","","","","","","","",""
"categorize-image","69","293589","0.0-3.0-3.0-1.7","8amzjhbbklvtwer","practice_cue","5f2b24f1ad7456522f27686c","5f60e3c0a3b16e07647b2ff9","5f646a61fc17021fd817ad1b","true","707.5299998978153","./Stimuli/ImagesPractice/LM230.jpg","83","","","","test","true","M + N","83","","LM","LM230.jpg","forget","old","24","2","practice_forget","left","","","",""
"html-keyboard-response","70","295595","0.0-3.0-3.0-3.7","8amzjhbbklvtwer","practice_cue","5f2b24f1ad7456522f27686c","5f60e3c0a3b16e07647b2ff9","5f646a61fc17021fd817ad1b","false","null","<div style=""align-items: center; display: flex; color: darkorange; font-size: 90px""><b>ø</b></div>","null","","","","forget_cue","","","","","","","","","","","","","","","",""
"html-keyboard-response","71","296301","0.0-3.0-3.0-0.8","8amzjhbbklvtwer","practice_cue","5f2b24f1ad7456522f27686c","5f60e3c0a3b16e07647b2ff9","5f646a61fc17021fd817ad1b","false","null","<span style=""color: black; font-size: 48px"">N + M</span>","null","","","","resp_prompt","","","","","","","","","","","","","","","",""
"categorize-image","72","296866","0.0-3.0-3.0-1.8","8amzjhbbklvtwer","practice_cue","5f2b24f1ad7456522f27686c","5f60e3c0a3b16e07647b2ff9","5f646a61fc17021fd817ad1b","true","560.9450000338256","./Stimuli/ImagesPractice/SM37.jpg","76","","","","test","true","N + M","76","","SM","SM37.jpg","remember","old","25","2","practice_forget","right","","","",""
"html-keyboard-response","73","298867","0.0-3.0-3.0-3.8","8amzjhbbklvtwer","practice_cue","5f2b24f1ad7456522f27686c","5f60e3c0a3b16e07647b2ff9","5f646a61fc17021fd817ad1b","false","null","<div style=""align-items: center; display: flex; color: dodgerblue; font-size: 90px""><b>o</b></div>","null","","","","forget_cue","","","","","","","","","","","","","","","",""
"html-keyboard-response","74","299571","0.0-3.0-3.0-0.9","8amzjhbbklvtwer","practice_cue","5f2b24f1ad7456522f27686c","5f60e3c0a3b16e07647b2ff9","5f646a61fc17021fd817ad1b","false","null","<span style=""color: black; font-size: 48px"">N + M</span>","null","","","","resp_prompt","","","","","","","","","","","","","","","",""
"categorize-image","75","300275","0.0-3.0-3.0-1.9","8amzjhbbklvtwer","practice_cue","5f2b24f1ad7456522f27686c","5f60e3c0a3b16e07647b2ff9","5f646a61fc17021fd817ad1b","true","699.8350000940263","./Stimuli/ImagesPractice/SM35.jpg","76","","","","test","true","N + M","76","","SM","SM35.jpg","forget","old","26","2","practice_forget","right","","","",""
"html-keyboard-response","76","302281","0.0-3.0-3.0-3.9","8amzjhbbklvtwer","practice_cue","5f2b24f1ad7456522f27686c","5f60e3c0a3b16e07647b2ff9","5f646a61fc17021fd817ad1b","false","null","<div style=""align-items: center; display: flex; color: darkorange; font-size: 90px""><b>ø</b></div>","null","","","","forget_cue","","","","","","","","","","","","","","","",""
"html-keyboard-response","77","302988","0.0-3.0-3.0-0.10","8amzjhbbklvtwer","practice_cue","5f2b24f1ad7456522f27686c","5f60e3c0a3b16e07647b2ff9","5f646a61fc17021fd817ad1b","false","null","<span style=""color: black; font-size: 48px"">M + N</span>","null","","","","resp_prompt","","","","","","","","","","","","","","","",""
"categorize-image","78","303881","0.0-3.0-3.0-1.10","8amzjhbbklvtwer","practice_cue","5f2b24f1ad7456522f27686c","5f60e3c0a3b16e07647b2ff9","5f646a61fc17021fd817ad1b","true","887.4500000383705","./Stimuli/ImagesPractice/LN17.jpg","76","","","","test","true","M + N","76","","LN","LN17.jpg","forget","old","27","2","practice_forget","right","","","",""
"html-keyboard-response","79","305887","0.0-3.0-3.0-3.10","8amzjhbbklvtwer","practice_cue","5f2b24f1ad7456522f27686c","5f60e3c0a3b16e07647b2ff9","5f646a61fc17021fd817ad1b","false","null","<div style=""align-items: center; display: flex; color: darkorange; font-size: 90px""><b>ø</b></div>","null","","","","forget_cue","","","","","","","","","","","","","","","",""
"html-keyboard-response","80","306593","0.0-3.0-3.0-0.11","8amzjhbbklvtwer","practice_cue","5f2b24f1ad7456522f27686c","5f60e3c0a3b16e07647b2ff9","5f646a61fc17021fd817ad1b","false","null","<span style=""color: black; font-size: 48px"">M + N</span>","null","","","","resp_prompt","","","","","","","","","","","","","","","",""
"categorize-image","81","307234","0.0-3.0-3.0-1.11","8amzjhbbklvtwer","practice_cue","5f2b24f1ad7456522f27686c","5f60e3c0a3b16e07647b2ff9","5f646a61fc17021fd817ad1b","true","636.5750000113621","./Stimuli/ImagesPractice/SN220.jpg","76","","","","test","true","M + N","76","","SN","SN220.jpg","remember","old","28","2","practice_forget","right","","","",""
"html-keyboard-response","82","309240","0.0-3.0-3.0-3.11","8amzjhbbklvtwer","practice_cue","5f2b24f1ad7456522f27686c","5f60e3c0a3b16e07647b2ff9","5f646a61fc17021fd817ad1b","false","null","<div style=""align-items: center; display: flex; color: dodgerblue; font-size: 90px""><b>o</b></div>","null","","","","forget_cue","","","","","","","","","","","","","","","",""
"html-keyboard-response","83","309946","0.0-3.0-3.0-0.12","8amzjhbbklvtwer","practice_cue","5f2b24f1ad7456522f27686c","5f60e3c0a3b16e07647b2ff9","5f646a61fc17021fd817ad1b","false","null","<span style=""color: black; font-size: 48px"">M + N</span>","null","","","","resp_prompt","","","","","","","","","","","","","","","",""
"categorize-image","84","310780","0.0-3.0-3.0-1.12","8amzjhbbklvtwer","practice_cue","5f2b24f1ad7456522f27686c","5f60e3c0a3b16e07647b2ff9","5f646a61fc17021fd817ad1b","true","830.4950000019744","./Stimuli/ImagesPractice/LN4.jpg","76","","","","test","true","M + N","76","","LN","LN4.jpg","forget","old","29","2","practice_forget","right","","","",""
"html-keyboard-response","85","312782","0.0-3.0-3.0-3.12","8amzjhbbklvtwer","practice_cue","5f2b24f1ad7456522f27686c","5f60e3c0a3b16e07647b2ff9","5f646a61fc17021fd817ad1b","false","null","<div style=""align-items: center; display: flex; color: darkorange; font-size: 90px""><b>ø</b></div>","null","","","","forget_cue","","","","","","","","","","","","","","","",""
"html-keyboard-response","86","313484","0.0-3.0-3.0-0.13","8amzjhbbklvtwer","practice_cue","5f2b24f1ad7456522f27686c","5f60e3c0a3b16e07647b2ff9","5f646a61fc17021fd817ad1b","false","null","<span style=""color: black; font-size: 48px"">M + N</span>","null","","","","resp_prompt","","","","","","","","","","","","","","","",""
"categorize-image","87","314200","0.0-3.0-3.0-1.13","8amzjhbbklvtwer","practice_cue","5f2b24f1ad7456522f27686c","5f60e3c0a3b16e07647b2ff9","5f646a61fc17021fd817ad1b","true","711.9800000218675","./Stimuli/ImagesPractice/SN222.jpg","76","","","","test","true","M + N","76","","SN","SN222.jpg","remember","old","30","2","practice_forget","right","","","",""
"html-keyboard-response","88","316203","0.0-3.0-3.0-3.13","8amzjhbbklvtwer","practice_cue","5f2b24f1ad7456522f27686c","5f60e3c0a3b16e07647b2ff9","5f646a61fc17021fd817ad1b","false","null","<div style=""align-items: center; display: flex; color: dodgerblue; font-size: 90px""><b>o</b></div>","null","","","","forget_cue","","","","","","","","","","","","","","","",""
"html-keyboard-response","89","316905","0.0-3.0-3.0-0.14","8amzjhbbklvtwer","practice_cue","5f2b24f1ad7456522f27686c","5f60e3c0a3b16e07647b2ff9","5f646a61fc17021fd817ad1b","false","null","<span style=""color: black; font-size: 48px"">N + M</span>","null","","","","resp_prompt","","","","","","","","","","","","","","","",""
"categorize-image","90","317704","0.0-3.0-3.0-1.14","8amzjhbbklvtwer","practice_cue","5f2b24f1ad7456522f27686c","5f60e3c0a3b16e07647b2ff9","5f646a61fc17021fd817ad1b","true","792.9599999915808","./Stimuli/ImagesPractice/LN15.jpg","76","","","","test","false","N + M","83","","LN","LN15.jpg","remember","old","31","2","practice_forget","right","","","",""
"html-keyboard-response","91","318207","0.0-3.0-3.0-2.14-0.14","8amzjhbbklvtwer","practice_cue","5f2b24f1ad7456522f27686c","5f60e3c0a3b16e07647b2ff9","5f646a61fc17021fd817ad1b","false","null","<span style=""color: red; font-size: 48px"">Error!</span>","null","","","","feedback","","","","","","","","","","","","","","","",""
"html-keyboard-response","92","320210","0.0-3.0-3.0-3.14","8amzjhbbklvtwer","practice_cue","5f2b24f1ad7456522f27686c","5f60e3c0a3b16e07647b2ff9","5f646a61fc17021fd817ad1b","false","null","<div style=""align-items: center; display: flex; color: dodgerblue; font-size: 90px""><b>o</b></div>","null","","","","forget_cue","","","","","","","","","","","","","","","",""
"html-keyboard-response","93","320914","0.0-3.0-3.0-0.15","8amzjhbbklvtwer","practice_cue","5f2b24f1ad7456522f27686c","5f60e3c0a3b16e07647b2ff9","5f646a61fc17021fd817ad1b","false","null","<span style=""color: black; font-size: 48px"">N + M</span>","null","","","","resp_prompt","","","","","","","","","","","","","","","",""
"categorize-image","94","321575","0.0-3.0-3.0-1.15","8amzjhbbklvtwer","practice_cue","5f2b24f1ad7456522f27686c","5f60e3c0a3b16e07647b2ff9","5f646a61fc17021fd817ad1b","true","657.3100000387058","./Stimuli/ImagesPractice/SM97.jpg","76","","","","test","true","N + M","76","","SM","SM97.jpg","remember","old","32","2","practice_forget","right","","","",""
"html-keyboard-response","95","323581","0.0-3.0-3.0-3.15","8amzjhbbklvtwer","practice_cue","5f2b24f1ad7456522f27686c","5f60e3c0a3b16e07647b2ff9","5f646a61fc17021fd817ad1b","false","null","<div style=""align-items: center; display: flex; color: dodgerblue; font-size: 90px""><b>o</b></div>","null","","","","forget_cue","","","","","","","","","","","","","","","",""
"html-keyboard-response","96","331356","0.0-3.0-4.0","8amzjhbbklvtwer","break","5f2b24f1ad7456522f27686c","5f60e3c0a3b16e07647b2ff9","5f646a61fc17021fd817ad1b","false","7773.4000000637025","<p style='font-size: 32px;'>Break</><br><br><br><br><br><p style='font-size: 24px;'>In the last block, you committed 1 errors and did not respond in time on 0 trials.
</p><p style='font-size: 24px;'>Try to respond as fast and accurately as possible in the next block as well! </p><p style='font-size: 24px;'>Press SPACE to continue.</p>","32","","","","","","","","","","","","","","","","","","","",""
"html-keyboard-response","97","347188","0.0-3.0-5.0","8amzjhbbklvtwer","instructions","5f2b24f1ad7456522f27686c","5f60e3c0a3b16e07647b2ff9","5f646a61fc17021fd817ad1b","false","15831.14000002388","<div align=left> Now, to practice, we kindly ask you to remember as many of the to-be-remembered pictures<br>of the previous learning phase as possible.<br><br>The pictures you were instructed to remember were the pictures followed by a <span style='color: dodgerblue; font-size: 28px'>O</span>.<br><br>In this memory test phase, you will also see some new pictures.<br>It is your task to remember whether you were presented with this specific picture in this study so far or not.<br>If you recognize an object (you have already seen it in this study), it is an OLD object. <br>If you do not recognize an object (you have NOT seen it in this study), it is a NEW object. <br><strong> Attention</strong>: As already mentioned, <span style='color: darkorange; font-size:28px'>Ø</span>-pictures will <strong>never</strong> appear in this memory test (neither as new objects). <br><br>Press SPACE to continue. </div>","32","","","","","","","","","","","","","","","","","","","",""
"html-keyboard-response","98","366125","0.0-3.0-6.0","8amzjhbbklvtwer","instructions","5f2b24f1ad7456522f27686c","5f60e3c0a3b16e07647b2ff9","5f646a61fc17021fd817ad1b","false","18935.545000014827","<div align=left> M and N no longer will appear on the left/right of the fixation cross. <br>Instead there will be a note at the bottom of the left or right side  <br>indicating which key you should press for an old or new object:  <br> <br>Press the <strong>right</strong> key to classify an object as <strong>old</strong> and press the <strong>left</strong>, to classify an object as <strong>new</strong>.<br>Please classify the objects as new/old by again placing your index finger on the 'S' and 'L' keys <br>and press them accordingly.<br><br><strong>Old:</strong> This object has been presented before. <br><strong>New:</strong> This object has <strong>not</strong> been presented.<br><br>Now please put your right and left index fingers on the 'S' and 'L' keys of your keyboard. <br>Please respond as fast and as accurately as possible!<br><br>Press SPACE to continue. </div>","32","","","","","","","","","","","","","","","","","","","",""
"categorize-image","99","368432","0.0-3.0-7.0-0.0","8amzjhbbklvtwer","practice_recog","5f2b24f1ad7456522f27686c","5f60e3c0a3b16e07647b2ff9","5f646a61fc17021fd817ad1b","true","1800.9849999798462","./Stimuli/ImagesPractice/LN72.jpg","83","","","","test","true","","83","","LN","LN72.jpg","","new","33","3","practice_recog","left","","","",""
"categorize-image","100","370080","0.0-3.0-7.0-0.1","8amzjhbbklvtwer","practice_recog","5f2b24f1ad7456522f27686c","5f60e3c0a3b16e07647b2ff9","5f646a61fc17021fd817ad1b","true","1140.0549999671057","./Stimuli/ImagesPractice/SM97.jpg","76","","","","test","true","","76","","SM","SM97.jpg","","old","34","3","practice_recog","right","","","",""
"categorize-image","101","371876","0.0-3.0-7.0-0.2","8amzjhbbklvtwer","practice_recog","5f2b24f1ad7456522f27686c","5f60e3c0a3b16e07647b2ff9","5f646a61fc17021fd817ad1b","true","1289.1350000863895","./Stimuli/ImagesPractice/LM143.jpg","83","","","","test","true","","83","","LM","LM143.jpg","","new","35","3","practice_recog","left","","","",""
"categorize-image","102","373256","0.0-3.0-7.0-0.3","8amzjhbbklvtwer","practice_recog","5f2b24f1ad7456522f27686c","5f60e3c0a3b16e07647b2ff9","5f646a61fc17021fd817ad1b","true","872.8950000368059","./Stimuli/ImagesPractice/SN220.jpg","76","","","","test","true","","76","","SN","SN220.jpg","","old","36","3","practice_recog","right","","","",""
"categorize-image","103","374792","0.0-3.0-7.0-0.4","8amzjhbbklvtwer","practice_recog","5f2b24f1ad7456522f27686c","5f60e3c0a3b16e07647b2ff9","5f646a61fc17021fd817ad1b","true","1031.6950000124052","./Stimuli/ImagesPractice/SN222.jpg","76","","","","test","true","","76","","SN","SN222.jpg","","old","37","3","practice_recog","right","","","",""
"categorize-image","104","376284","0.0-3.0-7.0-0.5","8amzjhbbklvtwer","practice_recog","5f2b24f1ad7456522f27686c","5f60e3c0a3b16e07647b2ff9","5f646a61fc17021fd817ad1b","true","984.7999999765307","./Stimuli/ImagesPractice/LM224.jpg","83","","","","test","true","","83","","LM","LM224.jpg","","new","38","3","practice_recog","left","","","",""
"categorize-image","105","378806","0.0-3.0-7.0-0.6","8amzjhbbklvtwer","practice_recog","5f2b24f1ad7456522f27686c","5f60e3c0a3b16e07647b2ff9","5f646a61fc17021fd817ad1b","true","2018.5199999250472","./Stimuli/ImagesPractice/SM62.jpg","83","","","","test","true","","83","","SM","SM62.jpg","","new","39","3","practice_recog","left","","","",""
"categorize-image","106","380215","0.0-3.0-7.0-0.7","8amzjhbbklvtwer","practice_recog","5f2b24f1ad7456522f27686c","5f60e3c0a3b16e07647b2ff9","5f646a61fc17021fd817ad1b","true","903.2699998933822","./Stimuli/ImagesPractice/LM239.jpg","76","","","","test","false","","83","","LM","LM239.jpg","","new","40","3","practice_recog","right","","","",""
"categorize-image","107","382931","0.0-3.0-7.0-0.8","8amzjhbbklvtwer","practice_recog","5f2b24f1ad7456522f27686c","5f60e3c0a3b16e07647b2ff9","5f646a61fc17021fd817ad1b","true","2208.9100000448525","./Stimuli/ImagesPractice/SN76.jpg","76","","","","test","true","","76","","SN","SN76.jpg","","old","41","3","practice_recog","right","","","",""
"categorize-image","108","384699","0.0-3.0-7.0-0.9","8amzjhbbklvtwer","practice_recog","5f2b24f1ad7456522f27686c","5f60e3c0a3b16e07647b2ff9","5f646a61fc17021fd817ad1b","true","1261.7600000230595","./Stimuli/ImagesPractice/SN75.jpg","83","","","","test","true","","83","","SN","SN75.jpg","","new","42","3","practice_recog","left","","","",""
"categorize-image","109","386149","0.0-3.0-7.0-0.10","8amzjhbbklvtwer","practice_recog","5f2b24f1ad7456522f27686c","5f60e3c0a3b16e07647b2ff9","5f646a61fc17021fd817ad1b","true","942.6400000229478","./Stimuli/ImagesPractice/LN15.jpg","76","","","","test","true","","76","","LN","LN15.jpg","","old","43","3","practice_recog","right","","","",""
"categorize-image","110","387667","0.0-3.0-7.0-0.11","8amzjhbbklvtwer","practice_recog","5f2b24f1ad7456522f27686c","5f60e3c0a3b16e07647b2ff9","5f646a61fc17021fd817ad1b","true","1013.7099999701604","./Stimuli/ImagesPractice/LN2.jpg","76","","","","test","true","","76","","LN","LN2.jpg","","old","44","3","practice_recog","right","","","",""
"categorize-image","111","389197","0.0-3.0-7.0-0.12","8amzjhbbklvtwer","practice_recog","5f2b24f1ad7456522f27686c","5f60e3c0a3b16e07647b2ff9","5f646a61fc17021fd817ad1b","true","1023.9949999377131","./Stimuli/ImagesPractice/SN221.jpg","83","","","","test","true","","83","","SN","SN221.jpg","","new","45","3","practice_recog","left","","","",""
"categorize-image","112","390652","0.0-3.0-7.0-0.13","8amzjhbbklvtwer","practice_recog","5f2b24f1ad7456522f27686c","5f60e3c0a3b16e07647b2ff9","5f646a61fc17021fd817ad1b","true","948.4550000634044","./Stimuli/ImagesPractice/SM98.jpg","76","","","","test","true","","76","","SM","SM98.jpg","","old","46","3","practice_recog","right","","","",""
"categorize-image","113","392210","0.0-3.0-7.0-0.14","8amzjhbbklvtwer","practice_recog","5f2b24f1ad7456522f27686c","5f60e3c0a3b16e07647b2ff9","5f646a61fc17021fd817ad1b","true","1050.7900000084192","./Stimuli/ImagesPractice/LN109.jpg","83","","","","test","true","","83","","LN","LN109.jpg","","new","47","3","practice_recog","left","","","",""
"categorize-image","114","393559","0.0-3.0-7.0-0.15","8amzjhbbklvtwer","practice_recog","5f2b24f1ad7456522f27686c","5f60e3c0a3b16e07647b2ff9","5f646a61fc17021fd817ad1b","true","841.7950000148267","./Stimuli/ImagesPractice/SM37.jpg","76","","","","test","true","","76","","SM","SM37.jpg","","old","48","3","practice_recog","right","","","",""
"html-keyboard-response","115","418893","0.0-3.0-8.0","8amzjhbbklvtwer","instructions","5f2b24f1ad7456522f27686c","5f60e3c0a3b16e07647b2ff9","5f646a61fc17021fd817ad1b","false","25332.79000001494","<div align=left> Great!<br><br>Are you ready to continue?<br>If you want to reread the instructions and redo the practice trials, please <br>press „Z“.<br><br>You can proceed when you are ready.<br><br>After the presentation of each object, you will receive an instruction whether to <br>remember or to forget the object.<br>We will test your memory of the following pictures only at the very end of <br>the experiment after all learning blocks are completed. <br><br>Press SPACE to CONTINUE when you are ready. </div>","32","","","","","","","","","","","","","","","","","","","",""
"html-keyboard-response","116","427133","0.0-4.0-0.0","8amzjhbbklvtwer","instructions","5f2b24f1ad7456522f27686c","5f60e3c0a3b16e07647b2ff9","5f646a61fc17021fd817ad1b","false","8238.539999932982","<div align=left> The actual experiment is about to start.<br>The practice trials are over!<br><br>Please always respond both fast and accurately!<br><br>Remember: <br> <br><li> Please place your index fingers on the <strong>'S'</strong> and <strong>'L'</strong> keys <br>to respond as fast and accurately as possible.</li><li> Every picture can be classified as either mechanical or non-mechanical.</li><li> If you do not respond in time or commit an error, you will receive a corresponding feedback.<br> Please try to respond as <strong> fast </strong> and as <strong> accurately as possible </strong>.</li><li> Remember the <span style='color: dodgerblue; font-size: 28px'>O</span> pictures. <br></li><li> Please minimize distractions and stay focused. </li><br><br>Press SPACE to START.</div>","32","","","","","","","","","","","","","","","","","","","",""
"html-keyboard-response","117","427840","0.0-4.0-1.0-0.0","8amzjhbbklvtwer","prime","5f2b24f1ad7456522f27686c","5f60e3c0a3b16e07647b2ff9","5f646a61fc17021fd817ad1b","false","null","<span style=""color: black; font-size: 48px"">N + M</span>","null","","","","resp_prompt","","","","","","","","","","","","","","","",""
"categorize-image","118","428559","0.0-4.0-1.0-1.0","8amzjhbbklvtwer","prime","5f2b24f1ad7456522f27686c","5f60e3c0a3b16e07647b2ff9","5f646a61fc17021fd817ad1b","true","714.0300000319257","./Stimuli/SelectedImages/SM/SM78.bmp","76","","","","test","true","N + M","76","switch","SM","SM78.bmp","forget","","49","3","prime1","right","","","",""
"html-keyboard-response","119","430564","0.0-4.0-1.0-3.0","8amzjhbbklvtwer","prime","5f2b24f1ad7456522f27686c","5f60e3c0a3b16e07647b2ff9","5f646a61fc17021fd817ad1b","false","null","<div style=""align-items: center; display: flex; color: darkorange; font-size: 90px""><b>ø</b></div>","null","","","","forget_cue","","","","","","","","","","","","","","","",""
"html-keyboard-response","120","431270","0.0-4.0-1.0-0.1","8amzjhbbklvtwer","prime","5f2b24f1ad7456522f27686c","5f60e3c0a3b16e07647b2ff9","5f646a61fc17021fd817ad1b","false","null","<span style=""color: black; font-size: 48px"">N + M</span>","null","","","","resp_prompt","","","","","","","","","","","","","","","",""
"categorize-image","121","431987","0.0-4.0-1.0-1.1","8amzjhbbklvtwer","prime","5f2b24f1ad7456522f27686c","5f60e3c0a3b16e07647b2ff9","5f646a61fc17021fd817ad1b","true","713.1950000766665","./Stimuli/SelectedImages/LN/LN177.bmp","83","","","","test","true","N + M","83","repetition","LN","LN177.bmp","forget","","50","3","prime1","left","","","",""
"html-keyboard-response","122","433991","0.0-4.0-1.0-3.1","8amzjhbbklvtwer","prime","5f2b24f1ad7456522f27686c","5f60e3c0a3b16e07647b2ff9","5f646a61fc17021fd817ad1b","false","null","<div style=""align-items: center; display: flex; color: darkorange; font-size: 90px""><b>ø</b></div>","null","","","","forget_cue","","","","","","","","","","","","","","","",""
"html-keyboard-response","123","434698","0.0-4.0-1.0-0.2","8amzjhbbklvtwer","prime","5f2b24f1ad7456522f27686c","5f60e3c0a3b16e07647b2ff9","5f646a61fc17021fd817ad1b","false","null","<span style=""color: black; font-size: 48px"">N + M</span>","null","","","","resp_prompt","","","","","","","","","","","","","","","",""
"categorize-image","124","435658","0.0-4.0-1.0-1.2","8amzjhbbklvtwer","prime","5f2b24f1ad7456522f27686c","5f60e3c0a3b16e07647b2ff9","5f646a61fc17021fd817ad1b","true","957.0800000801682","./Stimuli/SelectedImages/LM/LM48.bmp","76","","","","test","true","N + M","76","repetition","LM","LM48.bmp","forget","","51","3","prime1","right","","","",""
"html-keyboard-response","125","437664","0.0-4.0-1.0-3.2","8amzjhbbklvtwer","prime","5f2b24f1ad7456522f27686c","5f60e3c0a3b16e07647b2ff9","5f646a61fc17021fd817ad1b","false","null","<div style=""align-items: center; display: flex; color: darkorange; font-size: 90px""><b>ø</b></div>","null","","","","forget_cue","","","","","","","","","","","","","","","",""
"html-keyboard-response","126","438367","0.0-4.0-1.0-0.3","8amzjhbbklvtwer","prime","5f2b24f1ad7456522f27686c","5f60e3c0a3b16e07647b2ff9","5f646a61fc17021fd817ad1b","false","null","<span style=""color: black; font-size: 48px"">M + N</span>","null","","","","resp_prompt","","","","","","","","","","","","","","","",""
"categorize-image","127","438876","0.0-4.0-1.0-1.3","8amzjhbbklvtwer","prime","5f2b24f1ad7456522f27686c","5f60e3c0a3b16e07647b2ff9","5f646a61fc17021fd817ad1b","true","504.5350000727922","./Stimuli/SelectedImages/LM/LM58.bmp","83","","","","test","true","M + N","83","repetition","LM","LM58.bmp","remember","","52","3","prime1","left","","","",""
"html-keyboard-response","128","440880","0.0-4.0-1.0-3.3","8amzjhbbklvtwer","prime","5f2b24f1ad7456522f27686c","5f60e3c0a3b16e07647b2ff9","5f646a61fc17021fd817ad1b","false","null","<div style=""align-items: center; display: flex; color: dodgerblue; font-size: 90px""><b>o</b></div>","null","","","","forget_cue","","","","","","","","","","","","","","","",""
"html-keyboard-response","129","441583","0.0-4.0-1.0-0.4","8amzjhbbklvtwer","prime","5f2b24f1ad7456522f27686c","5f60e3c0a3b16e07647b2ff9","5f646a61fc17021fd817ad1b","false","null","<span style=""color: black; font-size: 48px"">M + N</span>","null","","","","resp_prompt","","","","","","","","","","","","","","","",""
"categorize-image","130","442298","0.0-4.0-1.0-1.4","8amzjhbbklvtwer","prime","5f2b24f1ad7456522f27686c","5f60e3c0a3b16e07647b2ff9","5f646a61fc17021fd817ad1b","true","710.715000052005","./Stimuli/SelectedImages/SM/SM184.bmp","83","","","","test","true","M + N","83","repetition","SM","SM184.bmp","forget","","53","3","prime1","left","","","",""
"html-keyboard-response","131","444299","0.0-4.0-1.0-3.4","8amzjhbbklvtwer","prime","5f2b24f1ad7456522f27686c","5f60e3c0a3b16e07647b2ff9","5f646a61fc17021fd817ad1b","false","null","<div style=""align-items: center; display: flex; color: darkorange; font-size: 90px""><b>ø</b></div>","null","","","","forget_cue","","","","","","","","","","","","","","","",""
"html-keyboard-response","132","445005","0.0-4.0-1.0-0.5","8amzjhbbklvtwer","prime","5f2b24f1ad7456522f27686c","5f60e3c0a3b16e07647b2ff9","5f646a61fc17021fd817ad1b","false","null","<span style=""color: black; font-size: 48px"">M + N</span>","null","","","","resp_prompt","","","","","","","","","","","","","","","",""
"categorize-image","133","445794","0.0-4.0-1.0-1.5","8amzjhbbklvtwer","prime","5f2b24f1ad7456522f27686c","5f60e3c0a3b16e07647b2ff9","5f646a61fc17021fd817ad1b","true","784.334999974817","./Stimuli/SelectedImages/LN/LN128.bmp","76","","","","test","true","M + N","76","repetition","LN","LN128.bmp","remember","","54","3","prime1","right","","","",""
"html-keyboard-response","134","447800","0.0-4.0-1.0-3.5","8amzjhbbklvtwer","prime","5f2b24f1ad7456522f27686c","5f60e3c0a3b16e07647b2ff9","5f646a61fc17021fd817ad1b","false","null","<div style=""align-items: center; display: flex; color: dodgerblue; font-size: 90px""><b>o</b></div>","null","","","","forget_cue","","","","","","","","","","","","","","","",""
"html-keyboard-response","135","448505","0.0-4.0-1.0-0.6","8amzjhbbklvtwer","prime","5f2b24f1ad7456522f27686c","5f60e3c0a3b16e07647b2ff9","5f646a61fc17021fd817ad1b","false","null","<span style=""color: black; font-size: 48px"">N + M</span>","null","","","","resp_prompt","","","","","","","","","","","","","","","",""
"categorize-image","136","449506","0.0-4.0-1.0-1.6","8amzjhbbklvtwer","prime","5f2b24f1ad7456522f27686c","5f60e3c0a3b16e07647b2ff9","5f646a61fc17021fd817ad1b","true","997.1900000236928","./Stimuli/SelectedImages/LN/LN42.bmp","83","","","","test","true","N + M","83","repetition","LN","LN42.bmp","remember","","55","3","prime1","left","","","",""
"html-keyboard-response","137","451512","0.0-4.0-1.0-3.6","8amzjhbbklvtwer","prime","5f2b24f1ad7456522f27686c","5f60e3c0a3b16e07647b2ff9","5f646a61fc17021fd817ad1b","false","null","<div style=""align-items: center; display: flex; color: dodgerblue; font-size: 90px""><b>o</b></div>","null","","","","forget_cue","","","","","","","","","","","","","","","",""
"html-keyboard-response","138","452217","0.0-4.0-1.0-0.7","8amzjhbbklvtwer","prime","5f2b24f1ad7456522f27686c","5f60e3c0a3b16e07647b2ff9","5f646a61fc17021fd817ad1b","false","null","<span style=""color: black; font-size: 48px"">M + N</span>","null","","","","resp_prompt","","","","","","","","","","","","","","","",""
"categorize-image","139","452980","0.0-4.0-1.0-1.7","8amzjhbbklvtwer","prime","5f2b24f1ad7456522f27686c","5f60e3c0a3b16e07647b2ff9","5f646a61fc17021fd817ad1b","true","759.2449999647215","./Stimuli/SelectedImages/SN/SN93.bmp","76","","","","test","true","M + N","76","switch","SN","SN93.bmp","forget","","56","3","prime1","right","","","",""
"html-keyboard-response","140","454984","0.0-4.0-1.0-3.7","8amzjhbbklvtwer","prime","5f2b24f1ad7456522f27686c","5f60e3c0a3b16e07647b2ff9","5f646a61fc17021fd817ad1b","false","null","<div style=""align-items: center; display: flex; color: darkorange; font-size: 90px""><b>ø</b></div>","null","","","","forget_cue","","","","","","","","","","","","","","","",""
"html-keyboard-response","141","455690","0.0-4.0-1.0-0.8","8amzjhbbklvtwer","prime","5f2b24f1ad7456522f27686c","5f60e3c0a3b16e07647b2ff9","5f646a61fc17021fd817ad1b","false","null","<span style=""color: black; font-size: 48px"">M + N</span>","null","","","","resp_prompt","","","","","","","","","","","","","","","",""
"categorize-image","142","456624","0.0-4.0-1.0-1.8","8amzjhbbklvtwer","prime","5f2b24f1ad7456522f27686c","5f60e3c0a3b16e07647b2ff9","5f646a61fc17021fd817ad1b","true","929.4950000476092","./Stimuli/SelectedImages/SM/SM148.bmp","83","","","","test","true","M + N","83","switch","SM","SM148.bmp","forget","","57","3","prime1","left","","","",""
"html-keyboard-response","143","458630","0.0-4.0-1.0-3.8","8amzjhbbklvtwer","prime","5f2b24f1ad7456522f27686c","5f60e3c0a3b16e07647b2ff9","5f646a61fc17021fd817ad1b","false","null","<div style=""align-items: center; display: flex; color: darkorange; font-size: 90px""><b>ø</b></div>","null","","","","forget_cue","","","","","","","","","","","","","","","",""
"html-keyboard-response","144","459334","0.0-4.0-1.0-0.9","8amzjhbbklvtwer","prime","5f2b24f1ad7456522f27686c","5f60e3c0a3b16e07647b2ff9","5f646a61fc17021fd817ad1b","false","null","<span style=""color: black; font-size: 48px"">N + M</span>","null","","","","resp_prompt","","","","","","","","","","","","","","","",""
"categorize-image","145","459915","0.0-4.0-1.0-1.9","8amzjhbbklvtwer","prime","5f2b24f1ad7456522f27686c","5f60e3c0a3b16e07647b2ff9","5f646a61fc17021fd817ad1b","true","577.2299999371171","./Stimuli/SelectedImages/LM/LM235.bmp","76","","","","test","true","N + M","76","repetition","LM","LM235.bmp","remember","","58","3","prime1","right","","","",""
"html-keyboard-response","146","461919","0.0-4.0-1.0-3.9","8amzjhbbklvtwer","prime","5f2b24f1ad7456522f27686c","5f60e3c0a3b16e07647b2ff9","5f646a61fc17021fd817ad1b","false","null","<div style=""align-items: center; display: flex; color: dodgerblue; font-size: 90px""><b>o</b></div>","null","","","","forget_cue","","","","","","","","","","","","","","","",""
"html-keyboard-response","147","462625","0.0-4.0-1.0-0.10","8amzjhbbklvtwer","prime","5f2b24f1ad7456522f27686c","5f60e3c0a3b16e07647b2ff9","5f646a61fc17021fd817ad1b","false","null","<span style=""color: black; font-size: 48px"">M + N</span>","null","","","","resp_prompt","","","","","","","","","","","","","","","",""
"categorize-image","148","463447","0.0-4.0-1.0-1.10","8amzjhbbklvtwer","prime","5f2b24f1ad7456522f27686c","5f60e3c0a3b16e07647b2ff9","5f646a61fc17021fd817ad1b","true","818.5850000008941","./Stimuli/SelectedImages/SN/SN155.bmp","76","","","","test","true","M + N","76","switch","SN","SN155.bmp","remember","","59","3","prime1","right","","","",""
"html-keyboard-response","149","465453","0.0-4.0-1.0-3.10","8amzjhbbklvtwer","prime","5f2b24f1ad7456522f27686c","5f60e3c0a3b16e07647b2ff9","5f646a61fc17021fd817ad1b","false","null","<div style=""align-items: center; display: flex; color: dodgerblue; font-size: 90px""><b>o</b></div>","null","","","","forget_cue","","","","","","","","","","","","","","","",""
"html-keyboard-response","150","466157","0.0-4.0-1.0-0.11","8amzjhbbklvtwer","prime","5f2b24f1ad7456522f27686c","5f60e3c0a3b16e07647b2ff9","5f646a61fc17021fd817ad1b","false","null","<span style=""color: black; font-size: 48px"">N + M</span>","null","","","","resp_prompt","","","","","","","","","","","","","","","",""
"categorize-image","151","466899","0.0-4.0-1.0-1.11","8amzjhbbklvtwer","prime","5f2b24f1ad7456522f27686c","5f60e3c0a3b16e07647b2ff9","5f646a61fc17021fd817ad1b","true","738.2500000530854","./Stimuli/SelectedImages/SN/SN60.bmp","83","","","","test","true","N + M","83","repetition","SN","SN60.bmp","remember","","60","3","prime1","left","","","",""
"html-keyboard-response","152","468903","0.0-4.0-1.0-3.11","8amzjhbbklvtwer","prime","5f2b24f1ad7456522f27686c","5f60e3c0a3b16e07647b2ff9","5f646a61fc17021fd817ad1b","false","null","<div style=""align-items: center; display: flex; color: dodgerblue; font-size: 90px""><b>o</b></div>","null","","","","forget_cue","","","","","","","","","","","","","","","",""
"html-keyboard-response","153","469609","0.0-4.0-1.0-0.12","8amzjhbbklvtwer","prime","5f2b24f1ad7456522f27686c","5f60e3c0a3b16e07647b2ff9","5f646a61fc17021fd817ad1b","false","null","<span style=""color: black; font-size: 48px"">M + N</span>","null","","","","resp_prompt","","","","","","","","","","","","","","","",""
"categorize-image","154","470268","0.0-4.0-1.0-1.12","8amzjhbbklvtwer","prime","5f2b24f1ad7456522f27686c","5f60e3c0a3b16e07647b2ff9","5f646a61fc17021fd817ad1b","true","654.7900000587106","./Stimuli/SelectedImages/SM/SM73.bmp","83","","","","test","true","M + N","83","repetition","SM","SM73.bmp","remember","","61","3","prime1","left","","","",""
"html-keyboard-response","155","472274","0.0-4.0-1.0-3.12","8amzjhbbklvtwer","prime","5f2b24f1ad7456522f27686c","5f60e3c0a3b16e07647b2ff9","5f646a61fc17021fd817ad1b","false","null","<div style=""align-items: center; display: flex; color: dodgerblue; font-size: 90px""><b>o</b></div>","null","","","","forget_cue","","","","","","","","","","","","","","","",""
"html-keyboard-response","156","472982","0.0-4.0-1.0-0.13","8amzjhbbklvtwer","prime","5f2b24f1ad7456522f27686c","5f60e3c0a3b16e07647b2ff9","5f646a61fc17021fd817ad1b","false","null","<span style=""color: black; font-size: 48px"">N + M</span>","null","","","","resp_prompt","","","","","","","","","","","","","","","",""
"categorize-image","157","473885","0.0-4.0-1.0-1.13","8amzjhbbklvtwer","prime","5f2b24f1ad7456522f27686c","5f60e3c0a3b16e07647b2ff9","5f646a61fc17021fd817ad1b","true","899.7400000225753","./Stimuli/SelectedImages/SM/SM24.bmp","76","","","","test","true","N + M","76","repetition","SM","SM24.bmp","forget","","62","3","prime1","right","","","",""
"html-keyboard-response","158","475887","0.0-4.0-1.0-3.13","8amzjhbbklvtwer","prime","5f2b24f1ad7456522f27686c","5f60e3c0a3b16e07647b2ff9","5f646a61fc17021fd817ad1b","false","null","<div style=""align-items: center; display: flex; color: darkorange; font-size: 90px""><b>ø</b></div>","null","","","","forget_cue","","","","","","","","","","","","","","","",""
"html-keyboard-response","159","476593","0.0-4.0-1.0-0.14","8amzjhbbklvtwer","prime","5f2b24f1ad7456522f27686c","5f60e3c0a3b16e07647b2ff9","5f646a61fc17021fd817ad1b","false","null","<span style=""color: black; font-size: 48px"">M + N</span>","null","","","","resp_prompt","","","","","","","","","","","","","","","",""
"categorize-image","160","477240","0.0-4.0-1.0-1.14","8amzjhbbklvtwer","prime","5f2b24f1ad7456522f27686c","5f60e3c0a3b16e07647b2ff9","5f646a61fc17021fd817ad1b","true","642.5349999917671","./Stimuli/SelectedImages/LM/LM129.bmp","83","","","","test","true","M + N","83","repetition","LM","LM129.bmp","remember","","63","3","prime1","left","","","",""
"html-keyboard-response","161","479242","0.0-4.0-1.0-3.14","8amzjhbbklvtwer","prime","5f2b24f1ad7456522f27686c","5f60e3c0a3b16e07647b2ff9","5f646a61fc17021fd817ad1b","false","null","<div style=""align-items: center; display: flex; color: dodgerblue; font-size: 90px""><b>o</b></div>","null","","","","forget_cue","","","","","","","","","","","","","","","",""
"html-keyboard-response","162","479948","0.0-4.0-1.0-0.15","8amzjhbbklvtwer","prime","5f2b24f1ad7456522f27686c","5f60e3c0a3b16e07647b2ff9","5f646a61fc17021fd817ad1b","false","null","<span style=""color: black; font-size: 48px"">N + M</span>","null","","","","resp_prompt","","","","","","","","","","","","","","","",""
"categorize-image","163","480737","0.0-4.0-1.0-1.15","8amzjhbbklvtwer","prime","5f2b24f1ad7456522f27686c","5f60e3c0a3b16e07647b2ff9","5f646a61fc17021fd817ad1b","true","783.7000000290573","./Stimuli/SelectedImages/SN/SN49.bmp","83","","","","test","true","N + M","83","switch","SN","SN49.bmp","remember","","64","3","prime1","left","","","",""
"html-keyboard-response","164","482742","0.0-4.0-1.0-3.15","8amzjhbbklvtwer","prime","5f2b24f1ad7456522f27686c","5f60e3c0a3b16e07647b2ff9","5f646a61fc17021fd817ad1b","false","null","<div style=""align-items: center; display: flex; color: dodgerblue; font-size: 90px""><b>o</b></div>","null","","","","forget_cue","","","","","","","","","","","","","","","",""
"html-keyboard-response","165","483448","0.0-4.0-1.0-0.16","8amzjhbbklvtwer","prime","5f2b24f1ad7456522f27686c","5f60e3c0a3b16e07647b2ff9","5f646a61fc17021fd817ad1b","false","null","<span style=""color: black; font-size: 48px"">M + N</span>","null","","","","resp_prompt","","","","","","","","","","","","","","","",""
"categorize-image","166","484136","0.0-4.0-1.0-1.16","8amzjhbbklvtwer","prime","5f2b24f1ad7456522f27686c","5f60e3c0a3b16e07647b2ff9","5f646a61fc17021fd817ad1b","true","683.79499996081","./Stimuli/SelectedImages/LN/LN13.bmp","76","","","","test","true","M + N","76","repetition","LN","LN13.bmp","forget","","65","3","prime1","right","","","",""
"html-keyboard-response","167","486142","0.0-4.0-1.0-3.16","8amzjhbbklvtwer","prime","5f2b24f1ad7456522f27686c","5f60e3c0a3b16e07647b2ff9","5f646a61fc17021fd817ad1b","false","null","<div style=""align-items: center; display: flex; color: darkorange; font-size: 90px""><b>ø</b></div>","null","","","","forget_cue","","","","","","","","","","","","","","","",""
"html-keyboard-response","168","486848","0.0-4.0-1.0-0.17","8amzjhbbklvtwer","prime","5f2b24f1ad7456522f27686c","5f60e3c0a3b16e07647b2ff9","5f646a61fc17021fd817ad1b","false","null","<span style=""color: black; font-size: 48px"">M + N</span>","null","","","","resp_prompt","","","","","","","","","","","","","","","",""
"categorize-image","169","487451","0.0-4.0-1.0-1.17","8amzjhbbklvtwer","prime","5f2b24f1ad7456522f27686c","5f60e3c0a3b16e07647b2ff9","5f646a61fc17021fd817ad1b","true","598.8350000698119","./Stimuli/SelectedImages/LM/LM59.bmp","83","","","","test","true","M + N","83","switch","LM","LM59.bmp","forget","","66","3","prime1","left","","","",""
"html-keyboard-response","170","489457","0.0-4.0-1.0-3.17","8amzjhbbklvtwer","prime","5f2b24f1ad7456522f27686c","5f60e3c0a3b16e07647b2ff9","5f646a61fc17021fd817ad1b","false","null","<div style=""align-items: center; display: flex; color: darkorange; font-size: 90px""><b>ø</b></div>","null","","","","forget_cue","","","","","","","","","","","","","","","",""
"html-keyboard-response","171","490162","0.0-4.0-1.0-0.18","8amzjhbbklvtwer","prime","5f2b24f1ad7456522f27686c","5f60e3c0a3b16e07647b2ff9","5f646a61fc17021fd817ad1b","false","null","<span style=""color: black; font-size: 48px"">M + N</span>","null","","","","resp_prompt","","","","","","","","","","","","","","","",""
"categorize-image","172","491240","0.0-4.0-1.0-1.18","8amzjhbbklvtwer","prime","5f2b24f1ad7456522f27686c","5f60e3c0a3b16e07647b2ff9","5f646a61fc17021fd817ad1b","true","1073.3899999177083","./Stimuli/SelectedImages/SN/SN27.bmp","76","","","","test","true","M + N","76","repetition","SN","SN27.bmp","remember","","67","3","prime1","right","","","",""
"html-keyboard-response","173","493243","0.0-4.0-1.0-3.18","8amzjhbbklvtwer","prime","5f2b24f1ad7456522f27686c","5f60e3c0a3b16e07647b2ff9","5f646a61fc17021fd817ad1b","false","null","<div style=""align-items: center; display: flex; color: dodgerblue; font-size: 90px""><b>o</b></div>","null","","","","forget_cue","","","","","","","","","","","","","","","",""
"html-keyboard-response","174","493950","0.0-4.0-1.0-0.19","8amzjhbbklvtwer","prime","5f2b24f1ad7456522f27686c","5f60e3c0a3b16e07647b2ff9","5f646a61fc17021fd817ad1b","false","null","<span style=""color: black; font-size: 48px"">N + M</span>","null","","","","resp_prompt","","","","","","","","","","","","","","","",""
"categorize-image","175","494729","0.0-4.0-1.0-1.19","8amzjhbbklvtwer","prime","5f2b24f1ad7456522f27686c","5f60e3c0a3b16e07647b2ff9","5f646a61fc17021fd817ad1b","true","775.5349999060854","./Stimuli/SelectedImages/SN/SN128.bmp","76","","","","test","false","N + M","83","switch","SN","SN128.bmp","remember","","68","3","prime1","right","","","",""
"html-keyboard-response","176","495230","0.0-4.0-1.0-2.19-0.19","8amzjhbbklvtwer","prime","5f2b24f1ad7456522f27686c","5f60e3c0a3b16e07647b2ff9","5f646a61fc17021fd817ad1b","false","null","<span style=""color: red; font-size: 48px"">Error!</span>","null","","","","feedback","","","","","","","","","","","","","","","",""
"html-keyboard-response","177","497235","0.0-4.0-1.0-3.19","8amzjhbbklvtwer","prime","5f2b24f1ad7456522f27686c","5f60e3c0a3b16e07647b2ff9","5f646a61fc17021fd817ad1b","false","null","<div style=""align-items: center; display: flex; color: dodgerblue; font-size: 90px""><b>o</b></div>","null","","","","forget_cue","","","","","","","","","","","","","","","",""
"html-keyboard-response","178","497937","0.0-4.0-1.0-0.20","8amzjhbbklvtwer","prime","5f2b24f1ad7456522f27686c","5f60e3c0a3b16e07647b2ff9","5f646a61fc17021fd817ad1b","false","null","<span style=""color: black; font-size: 48px"">N + M</span>","null","","","","resp_prompt","","","","","","","","","","","","","","","",""
"categorize-image","179","498819","0.0-4.0-1.0-1.20","8amzjhbbklvtwer","prime","5f2b24f1ad7456522f27686c","5f60e3c0a3b16e07647b2ff9","5f646a61fc17021fd817ad1b","true","878.5999999381602","./Stimuli/SelectedImages/SN/SN111.bmp","83","","","","test","true","N + M","83","switch","SN","SN111.bmp","forget","","69","3","prime1","left","","","",""
"html-keyboard-response","180","500825","0.0-4.0-1.0-3.20","8amzjhbbklvtwer","prime","5f2b24f1ad7456522f27686c","5f60e3c0a3b16e07647b2ff9","5f646a61fc17021fd817ad1b","false","null","<div style=""align-items: center; display: flex; color: darkorange; font-size: 90px""><b>ø</b></div>","null","","","","forget_cue","","","","","","","","","","","","","","","",""
"html-keyboard-response","181","501529","0.0-4.0-1.0-0.21","8amzjhbbklvtwer","prime","5f2b24f1ad7456522f27686c","5f60e3c0a3b16e07647b2ff9","5f646a61fc17021fd817ad1b","false","null","<span style=""color: black; font-size: 48px"">M + N</span>","null","","","","resp_prompt","","","","","","","","","","","","","","","",""
"categorize-image","182","502672","0.0-4.0-1.0-1.21","8amzjhbbklvtwer","prime","5f2b24f1ad7456522f27686c","5f60e3c0a3b16e07647b2ff9","5f646a61fc17021fd817ad1b","true","1138.829999952577","./Stimuli/SelectedImages/SN/SN181.bmp","76","","","","test","true","M + N","76","repetition","SN","SN181.bmp","forget","","70","3","prime1","right","","","",""
"html-keyboard-response","183","504678","0.0-4.0-1.0-3.21","8amzjhbbklvtwer","prime","5f2b24f1ad7456522f27686c","5f60e3c0a3b16e07647b2ff9","5f646a61fc17021fd817ad1b","false","null","<div style=""align-items: center; display: flex; color: darkorange; font-size: 90px""><b>ø</b></div>","null","","","","forget_cue","","","","","","","","","","","","","","","",""
"html-keyboard-response","184","505384","0.0-4.0-1.0-0.22","8amzjhbbklvtwer","prime","5f2b24f1ad7456522f27686c","5f60e3c0a3b16e07647b2ff9","5f646a61fc17021fd817ad1b","false","null","<span style=""color: black; font-size: 48px"">N + M</span>","null","","","","resp_prompt","","","","","","","","","","","","","","","",""
"categorize-image","185","506131","0.0-4.0-1.0-1.22","8amzjhbbklvtwer","prime","5f2b24f1ad7456522f27686c","5f60e3c0a3b16e07647b2ff9","5f646a61fc17021fd817ad1b","true","743.0800000438467","./Stimuli/SelectedImages/SN/SN179.bmp","83","","","","test","true","N + M","83","switch","SN","SN179.bmp","forget","","71","3","prime1","left","","","",""
"html-keyboard-response","186","508136","0.0-4.0-1.0-3.22","8amzjhbbklvtwer","prime","5f2b24f1ad7456522f27686c","5f60e3c0a3b16e07647b2ff9","5f646a61fc17021fd817ad1b","false","null","<div style=""align-items: center; display: flex; color: darkorange; font-size: 90px""><b>ø</b></div>","null","","","","forget_cue","","","","","","","","","","","","","","","",""
"html-keyboard-response","187","508840","0.0-4.0-1.0-0.23","8amzjhbbklvtwer","prime","5f2b24f1ad7456522f27686c","5f60e3c0a3b16e07647b2ff9","5f646a61fc17021fd817ad1b","false","null","<span style=""color: black; font-size: 48px"">N + M</span>","null","","","","resp_prompt","","","","","","","","","","","","","","","",""
"categorize-image","188","509677","0.0-4.0-1.0-1.23","8amzjhbbklvtwer","prime","5f2b24f1ad7456522f27686c","5f60e3c0a3b16e07647b2ff9","5f646a61fc17021fd817ad1b","true","833.1750000361353","./Stimuli/SelectedImages/LN/LN131.bmp","83","","","","test","true","N + M","83","repetition","LN","LN131.bmp","forget","","72","3","prime1","left","","","",""
"html-keyboard-response","189","511679","0.0-4.0-1.0-3.23","8amzjhbbklvtwer","prime","5f2b24f1ad7456522f27686c","5f60e3c0a3b16e07647b2ff9","5f646a61fc17021fd817ad1b","false","null","<div style=""align-items: center; display: flex; color: darkorange; font-size: 90px""><b>ø</b></div>","null","","","","forget_cue","","","","","","","","","","","","","","","",""
"html-keyboard-response","190","512382","0.0-4.0-1.0-0.24","8amzjhbbklvtwer","prime","5f2b24f1ad7456522f27686c","5f60e3c0a3b16e07647b2ff9","5f646a61fc17021fd817ad1b","false","null","<span style=""color: black; font-size: 48px"">N + M</span>","null","","","","resp_prompt","","","","","","","","","","","","","","","",""
"categorize-image","191","513297","0.0-4.0-1.0-1.24","8amzjhbbklvtwer","prime","5f2b24f1ad7456522f27686c","5f60e3c0a3b16e07647b2ff9","5f646a61fc17021fd817ad1b","true","910.3500000201166","./Stimuli/SelectedImages/LM/LM150.bmp","76","","","","test","true","N + M","76","switch","LM","LM150.bmp","remember","","73","3","prime1","right","","","",""
"html-keyboard-response","192","515299","0.0-4.0-1.0-3.24","8amzjhbbklvtwer","prime","5f2b24f1ad7456522f27686c","5f60e3c0a3b16e07647b2ff9","5f646a61fc17021fd817ad1b","false","null","<div style=""align-items: center; display: flex; color: dodgerblue; font-size: 90px""><b>o</b></div>","null","","","","forget_cue","","","","","","","","","","","","","","","",""
"html-keyboard-response","193","516005","0.0-4.0-1.0-0.25","8amzjhbbklvtwer","prime","5f2b24f1ad7456522f27686c","5f60e3c0a3b16e07647b2ff9","5f646a61fc17021fd817ad1b","false","null","<span style=""color: black; font-size: 48px"">M + N</span>","null","","","","resp_prompt","","","","","","","","","","","","","","","",""
"categorize-image","194","516770","0.0-4.0-1.0-1.25","8amzjhbbklvtwer","prime","5f2b24f1ad7456522f27686c","5f60e3c0a3b16e07647b2ff9","5f646a61fc17021fd817ad1b","true","760.6350000714883","./Stimuli/SelectedImages/LN/LN166.bmp","76","","","","test","true","M + N","76","switch","LN","LN166.bmp","forget","","74","3","prime1","right","","","",""
"html-keyboard-response","195","518775","0.0-4.0-1.0-3.25","8amzjhbbklvtwer","prime","5f2b24f1ad7456522f27686c","5f60e3c0a3b16e07647b2ff9","5f646a61fc17021fd817ad1b","false","null","<div style=""align-items: center; display: flex; color: darkorange; font-size: 90px""><b>ø</b></div>","null","","","","forget_cue","","","","","","","","","","","","","","","",""
"html-keyboard-response","196","519480","0.0-4.0-1.0-0.26","8amzjhbbklvtwer","prime","5f2b24f1ad7456522f27686c","5f60e3c0a3b16e07647b2ff9","5f646a61fc17021fd817ad1b","false","null","<span style=""color: black; font-size: 48px"">M + N</span>","null","","","","resp_prompt","","","","","","","","","","","","","","","",""
"categorize-image","197","520714","0.0-4.0-1.0-1.26","8amzjhbbklvtwer","prime","5f2b24f1ad7456522f27686c","5f60e3c0a3b16e07647b2ff9","5f646a61fc17021fd817ad1b","true","1228.8499999558553","./Stimuli/SelectedImages/SM/SM128.bmp","83","","","","test","true","M + N","83","switch","SM","SM128.bmp","forget","","75","3","prime1","left","","","",""
"html-keyboard-response","198","522717","0.0-4.0-1.0-3.26","8amzjhbbklvtwer","prime","5f2b24f1ad7456522f27686c","5f60e3c0a3b16e07647b2ff9","5f646a61fc17021fd817ad1b","false","null","<div style=""align-items: center; display: flex; color: darkorange; font-size: 90px""><b>ø</b></div>","null","","","","forget_cue","","","","","","","","","","","","","","","",""
"html-keyboard-response","199","523423","0.0-4.0-1.0-0.27","8amzjhbbklvtwer","prime","5f2b24f1ad7456522f27686c","5f60e3c0a3b16e07647b2ff9","5f646a61fc17021fd817ad1b","false","null","<span style=""color: black; font-size: 48px"">N + M</span>","null","","","","resp_prompt","","","","","","","","","","","","","","","",""
"categorize-image","200","524227","0.0-4.0-1.0-1.27","8amzjhbbklvtwer","prime","5f2b24f1ad7456522f27686c","5f60e3c0a3b16e07647b2ff9","5f646a61fc17021fd817ad1b","true","798.9449999295175","./Stimuli/SelectedImages/SN/SN187.bmp","83","","","","test","true","N + M","83","repetition","SN","SN187.bmp","forget","","76","3","prime1","left","","","",""
"html-keyboard-response","201","526233","0.0-4.0-1.0-3.27","8amzjhbbklvtwer","prime","5f2b24f1ad7456522f27686c","5f60e3c0a3b16e07647b2ff9","5f646a61fc17021fd817ad1b","false","null","<div style=""align-items: center; display: flex; color: darkorange; font-size: 90px""><b>ø</b></div>","null","","","","forget_cue","","","","","","","","","","","","","","","",""
"html-keyboard-response","202","526940","0.0-4.0-1.0-0.28","8amzjhbbklvtwer","prime","5f2b24f1ad7456522f27686c","5f60e3c0a3b16e07647b2ff9","5f646a61fc17021fd817ad1b","false","null","<span style=""color: black; font-size: 48px"">N + M</span>","null","","","","resp_prompt","","","","","","","","","","","","","","","",""
"categorize-image","203","527644","0.0-4.0-1.0-1.28","8amzjhbbklvtwer","prime","5f2b24f1ad7456522f27686c","5f60e3c0a3b16e07647b2ff9","5f646a61fc17021fd817ad1b","true","701.5499999979511","./Stimuli/SelectedImages/SM/SM108.bmp","76","","","","test","true","N + M","76","switch","SM","SM108.bmp","remember","","77","3","prime1","right","","","",""
"html-keyboard-response","204","529647","0.0-4.0-1.0-3.28","8amzjhbbklvtwer","prime","5f2b24f1ad7456522f27686c","5f60e3c0a3b16e07647b2ff9","5f646a61fc17021fd817ad1b","false","null","<div style=""align-items: center; display: flex; color: dodgerblue; font-size: 90px""><b>o</b></div>","null","","","","forget_cue","","","","","","","","","","","","","","","",""
"html-keyboard-response","205","530352","0.0-4.0-1.0-0.29","8amzjhbbklvtwer","prime","5f2b24f1ad7456522f27686c","5f60e3c0a3b16e07647b2ff9","5f646a61fc17021fd817ad1b","false","null","<span style=""color: black; font-size: 48px"">N + M</span>","null","","","","resp_prompt","","","","","","","","","","","","","","","",""
"categorize-image","206","531190","0.0-4.0-1.0-1.29","8amzjhbbklvtwer","prime","5f2b24f1ad7456522f27686c","5f60e3c0a3b16e07647b2ff9","5f646a61fc17021fd817ad1b","true","834.169999929145","./Stimuli/SelectedImages/SM/SM106.bmp","76","","","","test","true","N + M","76","repetition","SM","SM106.bmp","forget","","78","3","prime1","right","","","",""
"html-keyboard-response","207","533194","0.0-4.0-1.0-3.29","8amzjhbbklvtwer","prime","5f2b24f1ad7456522f27686c","5f60e3c0a3b16e07647b2ff9","5f646a61fc17021fd817ad1b","false","null","<div style=""align-items: center; display: flex; color: darkorange; font-size: 90px""><b>ø</b></div>","null","","","","forget_cue","","","","","","","","","","","","","","","",""
"html-keyboard-response","208","533898","0.0-4.0-1.0-0.30","8amzjhbbklvtwer","prime","5f2b24f1ad7456522f27686c","5f60e3c0a3b16e07647b2ff9","5f646a61fc17021fd817ad1b","false","null","<span style=""color: black; font-size: 48px"">M + N</span>","null","","","","resp_prompt","","","","","","","","","","","","","","","",""
"categorize-image","209","534808","0.0-4.0-1.0-1.30","8amzjhbbklvtwer","prime","5f2b24f1ad7456522f27686c","5f60e3c0a3b16e07647b2ff9","5f646a61fc17021fd817ad1b","true","905.5400000652298","./Stimuli/SelectedImages/SN/SN52.bmp","76","","","","test","true","M + N","76","switch","SN","SN52.bmp","forget","","79","3","prime1","right","","","",""
"html-keyboard-response","210","536809","0.0-4.0-1.0-3.30","8amzjhbbklvtwer","prime","5f2b24f1ad7456522f27686c","5f60e3c0a3b16e07647b2ff9","5f646a61fc17021fd817ad1b","false","null","<div style=""align-items: center; display: flex; color: darkorange; font-size: 90px""><b>ø</b></div>","null","","","","forget_cue","","","","","","","","","","","","","","","",""
"html-keyboard-response","211","537516","0.0-4.0-1.0-0.31","8amzjhbbklvtwer","prime","5f2b24f1ad7456522f27686c","5f60e3c0a3b16e07647b2ff9","5f646a61fc17021fd817ad1b","false","null","<span style=""color: black; font-size: 48px"">N + M</span>","null","","","","resp_prompt","","","","","","","","","","","","","","","",""
"categorize-image","212","538144","0.0-4.0-1.0-1.31","8amzjhbbklvtwer","prime","5f2b24f1ad7456522f27686c","5f60e3c0a3b16e07647b2ff9","5f646a61fc17021fd817ad1b","true","623.9249999634922","./Stimuli/SelectedImages/SM/SM207.bmp","76","","","","test","true","N + M","76","repetition","SM","SM207.bmp","remember","","80","3","prime1","right","","","",""
"html-keyboard-response","213","540149","0.0-4.0-1.0-3.31","8amzjhbbklvtwer","prime","5f2b24f1ad7456522f27686c","5f60e3c0a3b16e07647b2ff9","5f646a61fc17021fd817ad1b","false","null","<div style=""align-items: center; display: flex; color: dodgerblue; font-size: 90px""><b>o</b></div>","null","","","","forget_cue","","","","","","","","","","","","","","","",""
"html-keyboard-response","214","540856","0.0-4.0-1.0-0.32","8amzjhbbklvtwer","prime","5f2b24f1ad7456522f27686c","5f60e3c0a3b16e07647b2ff9","5f646a61fc17021fd817ad1b","false","null","<span style=""color: black; font-size: 48px"">N + M</span>","null","","","","resp_prompt","","","","","","","","","","","","","","","",""
"categorize-image","215","541575","0.0-4.0-1.0-1.32","8amzjhbbklvtwer","prime","5f2b24f1ad7456522f27686c","5f60e3c0a3b16e07647b2ff9","5f646a61fc17021fd817ad1b","true","715.7299999380484","./Stimuli/SelectedImages/SM/SM205.bmp","83","","","","test","false","N + M","76","repetition","SM","SM205.bmp","remember","","81","3","prime1","left","","","",""
"html-keyboard-response","216","542078","0.0-4.0-1.0-2.32-0.32","8amzjhbbklvtwer","prime","5f2b24f1ad7456522f27686c","5f60e3c0a3b16e07647b2ff9","5f646a61fc17021fd817ad1b","false","null","<span style=""color: red; font-size: 48px"">Error!</span>","null","","","","feedback","","","","","","","","","","","","","","","",""
"html-keyboard-response","217","544084","0.0-4.0-1.0-3.32","8amzjhbbklvtwer","prime","5f2b24f1ad7456522f27686c","5f60e3c0a3b16e07647b2ff9","5f646a61fc17021fd817ad1b","false","null","<div style=""align-items: center; display: flex; color: dodgerblue; font-size: 90px""><b>o</b></div>","null","","","","forget_cue","","","","","","","","","","","","","","","",""
"html-keyboard-response","218","544790","0.0-4.0-1.0-0.33","8amzjhbbklvtwer","prime","5f2b24f1ad7456522f27686c","5f60e3c0a3b16e07647b2ff9","5f646a61fc17021fd817ad1b","false","null","<span style=""color: black; font-size: 48px"">M + N</span>","null","","","","resp_prompt","","","","","","","","","","","","","","","",""
"categorize-image","219","545871","0.0-4.0-1.0-1.33","8amzjhbbklvtwer","prime","5f2b24f1ad7456522f27686c","5f60e3c0a3b16e07647b2ff9","5f646a61fc17021fd817ad1b","true","1077.0050000865012","./Stimuli/SelectedImages/SM/SM195.bmp","83","","","","test","true","M + N","83","switch","SM","SM195.bmp","remember","","82","3","prime1","left","","","",""
"html-keyboard-response","220","547877","0.0-4.0-1.0-3.33","8amzjhbbklvtwer","prime","5f2b24f1ad7456522f27686c","5f60e3c0a3b16e07647b2ff9","5f646a61fc17021fd817ad1b","false","null","<div style=""align-items: center; display: flex; color: dodgerblue; font-size: 90px""><b>o</b></div>","null","","","","forget_cue","","","","","","","","","","","","","","","",""
"html-keyboard-response","221","548582","0.0-4.0-1.0-0.34","8amzjhbbklvtwer","prime","5f2b24f1ad7456522f27686c","5f60e3c0a3b16e07647b2ff9","5f646a61fc17021fd817ad1b","false","null","<span style=""color: black; font-size: 48px"">N + M</span>","null","","","","resp_prompt","","","","","","","","","","","","","","","",""
"categorize-image","222","549241","0.0-4.0-1.0-1.34","8amzjhbbklvtwer","prime","5f2b24f1ad7456522f27686c","5f60e3c0a3b16e07647b2ff9","5f646a61fc17021fd817ad1b","true","655.3550000535324","./Stimuli/SelectedImages/LM/LM100.bmp","76","","","","test","true","N + M","76","switch","LM","LM100.bmp","forget","","83","3","prime1","right","","","",""
"html-keyboard-response","223","551242","0.0-4.0-1.0-3.34","8amzjhbbklvtwer","prime","5f2b24f1ad7456522f27686c","5f60e3c0a3b16e07647b2ff9","5f646a61fc17021fd817ad1b","false","null","<div style=""align-items: center; display: flex; color: darkorange; font-size: 90px""><b>ø</b></div>","null","","","","forget_cue","","","","","","","","","","","","","","","",""
"html-keyboard-response","224","551944","0.0-4.0-1.0-0.35","8amzjhbbklvtwer","prime","5f2b24f1ad7456522f27686c","5f60e3c0a3b16e07647b2ff9","5f646a61fc17021fd817ad1b","false","null","<span style=""color: black; font-size: 48px"">N + M</span>","null","","","","resp_prompt","","","","","","","","","","","","","","","",""
"categorize-image","225","552573","0.0-4.0-1.0-1.35","8amzjhbbklvtwer","prime","5f2b24f1ad7456522f27686c","5f60e3c0a3b16e07647b2ff9","5f646a61fc17021fd817ad1b","true","623.8499999744818","./Stimuli/SelectedImages/LM/LM209.bmp","76","","","","test","true","N + M","76","repetition","LM","LM209.bmp","remember","","84","3","prime1","right","","","",""
"html-keyboard-response","226","554574","0.0-4.0-1.0-3.35","8amzjhbbklvtwer","prime","5f2b24f1ad7456522f27686c","5f60e3c0a3b16e07647b2ff9","5f646a61fc17021fd817ad1b","false","null","<div style=""align-items: center; display: flex; color: dodgerblue; font-size: 90px""><b>o</b></div>","null","","","","forget_cue","","","","","","","","","","","","","","","",""
"html-keyboard-response","227","555278","0.0-4.0-1.0-0.36","8amzjhbbklvtwer","prime","5f2b24f1ad7456522f27686c","5f60e3c0a3b16e07647b2ff9","5f646a61fc17021fd817ad1b","false","null","<span style=""color: black; font-size: 48px"">M + N</span>","null","","","","resp_prompt","","","","","","","","","","","","","","","",""
"categorize-image","228","555798","0.0-4.0-1.0-1.36","8amzjhbbklvtwer","prime","5f2b24f1ad7456522f27686c","5f60e3c0a3b16e07647b2ff9","5f646a61fc17021fd817ad1b","true","517.3249999061227","./Stimuli/SelectedImages/SM/SM200.bmp","83","","","","test","true","M + N","83","repetition","SM","SM200.bmp","remember","","85","3","prime1","left","","","",""
"html-keyboard-response","229","557804","0.0-4.0-1.0-3.36","8amzjhbbklvtwer","prime","5f2b24f1ad7456522f27686c","5f60e3c0a3b16e07647b2ff9","5f646a61fc17021fd817ad1b","false","null","<div style=""align-items: center; display: flex; color: dodgerblue; font-size: 90px""><b>o</b></div>","null","","","","forget_cue","","","","","","","","","","","","","","","",""
"html-keyboard-response","230","558510","0.0-4.0-1.0-0.37","8amzjhbbklvtwer","prime","5f2b24f1ad7456522f27686c","5f60e3c0a3b16e07647b2ff9","5f646a61fc17021fd817ad1b","false","null","<span style=""color: black; font-size: 48px"">M + N</span>","null","","","","resp_prompt","","","","","","","","","","","","","","","",""
"categorize-image","231","559169","0.0-4.0-1.0-1.37","8amzjhbbklvtwer","prime","5f2b24f1ad7456522f27686c","5f60e3c0a3b16e07647b2ff9","5f646a61fc17021fd817ad1b","true","655.0949999364093","./Stimuli/SelectedImages/SM/SM17.bmp","83","","","","test","true","M + N","83","repetition","SM","SM17.bmp","forget","","86","3","prime1","left","","","",""
"html-keyboard-response","232","561173","0.0-4.0-1.0-3.37","8amzjhbbklvtwer","prime","5f2b24f1ad7456522f27686c","5f60e3c0a3b16e07647b2ff9","5f646a61fc17021fd817ad1b","false","null","<div style=""align-items: center; display: flex; color: darkorange; font-size: 90px""><b>ø</b></div>","null","","","","forget_cue","","","","","","","","","","","","","","","",""
"html-keyboard-response","233","561879","0.0-4.0-1.0-0.38","8amzjhbbklvtwer","prime","5f2b24f1ad7456522f27686c","5f60e3c0a3b16e07647b2ff9","5f646a61fc17021fd817ad1b","false","null","<span style=""color: black; font-size: 48px"">N + M</span>","null","","","","resp_prompt","","","","","","","","","","","","","","","",""
"categorize-image","234","562657","0.0-4.0-1.0-1.38","8amzjhbbklvtwer","prime","5f2b24f1ad7456522f27686c","5f60e3c0a3b16e07647b2ff9","5f646a61fc17021fd817ad1b","true","773.6499999882653","./Stimuli/SelectedImages/SN/SN240.bmp","83","","","","test","true","N + M","83","repetition","SN","SN240.bmp","forget","","87","3","prime1","left","","","",""
"html-keyboard-response","235","564659","0.0-4.0-1.0-3.38","8amzjhbbklvtwer","prime","5f2b24f1ad7456522f27686c","5f60e3c0a3b16e07647b2ff9","5f646a61fc17021fd817ad1b","false","null","<div style=""align-items: center; display: flex; color: darkorange; font-size: 90px""><b>ø</b></div>","null","","","","forget_cue","","","","","","","","","","","","","","","",""
"html-keyboard-response","236","565361","0.0-4.0-1.0-0.39","8amzjhbbklvtwer","prime","5f2b24f1ad7456522f27686c","5f60e3c0a3b16e07647b2ff9","5f646a61fc17021fd817ad1b","false","null","<span style=""color: black; font-size: 48px"">M + N</span>","null","","","","resp_prompt","","","","","","","","","","","","","","","",""
"categorize-image","237","566074","0.0-4.0-1.0-1.39","8amzjhbbklvtwer","prime","5f2b24f1ad7456522f27686c","5f60e3c0a3b16e07647b2ff9","5f646a61fc17021fd817ad1b","true","709.6599999349564","./Stimuli/SelectedImages/LM/LM157.bmp","83","","","","test","true","M + N","83","repetition","LM","LM157.bmp","forget","","88","3","prime1","left","","","",""
"html-keyboard-response","238","568079","0.0-4.0-1.0-3.39","8amzjhbbklvtwer","prime","5f2b24f1ad7456522f27686c","5f60e3c0a3b16e07647b2ff9","5f646a61fc17021fd817ad1b","false","null","<div style=""align-items: center; display: flex; color: darkorange; font-size: 90px""><b>ø</b></div>","null","","","","forget_cue","","","","","","","","","","","","","","","",""
"html-keyboard-response","239","568785","0.0-4.0-1.0-0.40","8amzjhbbklvtwer","prime","5f2b24f1ad7456522f27686c","5f60e3c0a3b16e07647b2ff9","5f646a61fc17021fd817ad1b","false","null","<span style=""color: black; font-size: 48px"">M + N</span>","null","","","","resp_prompt","","","","","","","","","","","","","","","",""
"categorize-image","240","569372","0.0-4.0-1.0-1.40","8amzjhbbklvtwer","prime","5f2b24f1ad7456522f27686c","5f60e3c0a3b16e07647b2ff9","5f646a61fc17021fd817ad1b","true","582.094999961555","./Stimuli/SelectedImages/LM/LM179.bmp","83","","","","test","true","M + N","83","switch","LM","LM179.bmp","remember","","89","3","prime1","left","","","",""
"html-keyboard-response","241","571378","0.0-4.0-1.0-3.40","8amzjhbbklvtwer","prime","5f2b24f1ad7456522f27686c","5f60e3c0a3b16e07647b2ff9","5f646a61fc17021fd817ad1b","false","null","<div style=""align-items: center; display: flex; color: dodgerblue; font-size: 90px""><b>o</b></div>","null","","","","forget_cue","","","","","","","","","","","","","","","",""
"html-keyboard-response","242","572084","0.0-4.0-1.0-0.41","8amzjhbbklvtwer","prime","5f2b24f1ad7456522f27686c","5f60e3c0a3b16e07647b2ff9","5f646a61fc17021fd817ad1b","false","null","<span style=""color: black; font-size: 48px"">N + M</span>","null","","","","resp_prompt","","","","","","","","","","","","","","","",""
"categorize-image","243","573091","0.0-4.0-1.0-1.41","8amzjhbbklvtwer","prime","5f2b24f1ad7456522f27686c","5f60e3c0a3b16e07647b2ff9","5f646a61fc17021fd817ad1b","true","1002.97499995213","./Stimuli/SelectedImages/LN/LN12.bmp","83","","","","test","true","N + M","83","repetition","LN","LN12.bmp","remember","","90","3","prime1","left","","","",""
"html-keyboard-response","244","575097","0.0-4.0-1.0-3.41","8amzjhbbklvtwer","prime","5f2b24f1ad7456522f27686c","5f60e3c0a3b16e07647b2ff9","5f646a61fc17021fd817ad1b","false","null","<div style=""align-items: center; display: flex; color: dodgerblue; font-size: 90px""><b>o</b></div>","null","","","","forget_cue","","","","","","","","","","","","","","","",""
"html-keyboard-response","245","575799","0.0-4.0-1.0-0.42","8amzjhbbklvtwer","prime","5f2b24f1ad7456522f27686c","5f60e3c0a3b16e07647b2ff9","5f646a61fc17021fd817ad1b","false","null","<span style=""color: black; font-size: 48px"">M + N</span>","null","","","","resp_prompt","","","","","","","","","","","","","","","",""
"categorize-image","246","576464","0.0-4.0-1.0-1.42","8amzjhbbklvtwer","prime","5f2b24f1ad7456522f27686c","5f60e3c0a3b16e07647b2ff9","5f646a61fc17021fd817ad1b","true","661.3349999533966","./Stimuli/SelectedImages/LN/LN111.bmp","76","","","","test","true","M + N","76","repetition","LN","LN111.bmp","remember","","91","3","prime1","right","","","",""
"html-keyboard-response","247","578466","0.0-4.0-1.0-3.42","8amzjhbbklvtwer","prime","5f2b24f1ad7456522f27686c","5f60e3c0a3b16e07647b2ff9","5f646a61fc17021fd817ad1b","false","null","<div style=""align-items: center; display: flex; color: dodgerblue; font-size: 90px""><b>o</b></div>","null","","","","forget_cue","","","","","","","","","","","","","","","",""
"html-keyboard-response","248","579172","0.0-4.0-1.0-0.43","8amzjhbbklvtwer","prime","5f2b24f1ad7456522f27686c","5f60e3c0a3b16e07647b2ff9","5f646a61fc17021fd817ad1b","false","null","<span style=""color: black; font-size: 48px"">M + N</span>","null","","","","resp_prompt","","","","","","","","","","","","","","","",""
"categorize-image","249","579966","0.0-4.0-1.0-1.43","8amzjhbbklvtwer","prime","5f2b24f1ad7456522f27686c","5f60e3c0a3b16e07647b2ff9","5f646a61fc17021fd817ad1b","true","790.1800000108778","./Stimuli/SelectedImages/LN/LN82.bmp","76","","","","test","true","M + N","76","switch","LN","LN82.bmp","remember","","92","3","prime1","right","","","",""
"html-keyboard-response","250","581971","0.0-4.0-1.0-3.43","8amzjhbbklvtwer","prime","5f2b24f1ad7456522f27686c","5f60e3c0a3b16e07647b2ff9","5f646a61fc17021fd817ad1b","false","null","<div style=""align-items: center; display: flex; color: dodgerblue; font-size: 90px""><b>o</b></div>","null","","","","forget_cue","","","","","","","","","","","","","","","",""
"html-keyboard-response","251","582675","0.0-4.0-1.0-0.44","8amzjhbbklvtwer","prime","5f2b24f1ad7456522f27686c","5f60e3c0a3b16e07647b2ff9","5f646a61fc17021fd817ad1b","false","null","<span style=""color: black; font-size: 48px"">M + N</span>","null","","","","resp_prompt","","","","","","","","","","","","","","","",""
"categorize-image","252","583317","0.0-4.0-1.0-1.44","8amzjhbbklvtwer","prime","5f2b24f1ad7456522f27686c","5f60e3c0a3b16e07647b2ff9","5f646a61fc17021fd817ad1b","true","638.0699999863282","./Stimuli/SelectedImages/LM/LM57.bmp","83","","","","test","true","M + N","83","switch","LM","LM57.bmp","forget","","93","3","prime1","left","","","",""
