"trial_type","trial_index","time_elapsed","internal_node_id","subject","exp_part","prolific_PID","study_ID","session_ID","use","rt","stimulus","key_press","button_pressed","responses","question_order","trial_part","correct","resp_map","correct_resp","probe_condition","category","image","forget_condition","list","trial_num","block_num","block","response","test_part","n_span","sequence","num_spaces"
"pavlovia","0","16","0.0-0.0","yohrjbtcjulbnzn","","5e60c04eec276e000d83b85d","5f60e3c0a3b16e07647b2ff9","5f60f0c02605c5016e1611f5","false","","","","","","","","","","","","","","","","","","","","","","",""
"html-keyboard-response","1","78491","0.0-1.0-0.0-0.0","yohrjbtcjulbnzn","welcome","5e60c04eec276e000d83b85d","5f60e3c0a3b16e07647b2ff9","5f60f0c02605c5016e1611f5","false","78464.6950000315","<div align=left>Dear participant, <br> thank you for participating in an online study of the Cognition, Action, and Sustainability Unit of the University of Freiburg! <br> <br>The aim of this study is to examine our ability to remember previously learned information. <br>Our goal is to find out, whether our memory improves, when we only remember information that is relevant to us. <br>The experiment will take about 35 minutes to complete. <br> <br>Please, note that you can only participate in this study if you are using a device with a keyboard (PC, Laptop etc.) <br>and not if you are using a mobile device such as a tablet or smartphone.<br> <br>Press 'SPACE' to proceed to the experiment. </div>","32","","","","","","","","","","","","","","","","","","","",""
"html-keyboard-response","2","115212","0.0-1.0-0.0-1.0","yohrjbtcjulbnzn","welcome","5e60c04eec276e000d83b85d","5f60e3c0a3b16e07647b2ff9","5f60f0c02605c5016e1611f5","false","36713.990000018384","<div align=left><strong> Time Course of this experiment: </strong> <br><br> <strong> 1.</strong>  First, please fill in some information regarding your demographic data. <br><br> <strong> 2.</strong>  Next, your task will be to classify everyday objects. <br>In addition, you will be asked to remember certain objects and recall them later. <br>Working on these tasks requires your undivided attention and concentration.<br>It is therefore essential that you eliminate any sources of distraction in your  <br>environment and ensure that you will not be disturbed. <br><br><strong> 3.</strong>  At the end of the experiment, you will be asked to answer a few additional questions. <br> <br><strong> Important:</strong> After finishing the experiment, only close the browser window <br> by clicking on the 'end the experiment'-button when you are asked to do so. <br>Closing the browser window prematurely will make the allocation of your participation credit impossible. <br><br> Press 'SPACE' to start the experiment. </div>","32","","","","","","","","","","","","","","","","","","","",""
"html-button-response","3","161634","0.0-1.0-0.0-2.0","yohrjbtcjulbnzn","welcome","5e60c04eec276e000d83b85d","5f60e3c0a3b16e07647b2ff9","5f60f0c02605c5016e1611f5","true","46415.500000002794","<div align=left><strong> Informed consent </strong>  <br>The aim of our research is to better understand human behavior and mental processes. <br>In the following study your behavior (e.g. choices, reaction times) will be studied. <br> <br><strong> Voluntariness and Anonymity </strong> <br>Your participation in this study is  <strong> voluntary</strong>.<br>You may withdraw your consent to participate at any time without providing a reason for doing so and without fear of prejudice. <br><br>As no personal data will be collected, <strong>your data and your person cannot be connected after data collection</strong> – the data-set is anonymous. <br>Respectively, deletion of your data will not be possible after data collection has been completed, as we cannot retrace your data-set.<br>The results and anonymized data collected in this study will be published as a scientific publication. <br>This will happen in an <strong>anonymized format</strong>, so that no data can be traced back to a specific person. <br> <br>The anonymized data of this study will be made available to other researchers and/or in a data archive on the Internet as a means of transparency and to enable subsequent re-use. By doing so, this study follows the recommendations of the Deutsche Forschungsgemeinschaft (DFG, German Research Foundation) and Deutsche Gesellschaft für Psychologie (DGPS, German Psychological Society) regarding quality assurance in research.<br>If you have any questions now or after the experiment, please contact our team (experiments@cs.uni-freiburg.de).<br><br><br>I hereby declare, that I understand the above described conditions of participation and I agree to participate under these conditions. <br><br> </div>","","0","","","","","","","","","","","","","","","","","","",""
"html-keyboard-response","4","223047","0.0-1.0-0.0-3.0","yohrjbtcjulbnzn","welcome","5e60c04eec276e000d83b85d","5f60e3c0a3b16e07647b2ff9","5f60f0c02605c5016e1611f5","false","61410.24999995716","<div align=left><strong> General information concerning the experiment </strong>  <br> <br>Please follow the instructions:<ol> <li><strong> Do not leave this tab (your browser window) during the experiment and do not reload this tab! </strong>  <br>If you do switch tabs/windows during the experiment (to check your mail or visit another website, for example), <br>the experiment will end automatically and you will <strong>not receive credit</strong> for your participation. <br>Repeated participation or resumption of the experiment is impossible.</li> <br><li>Please close all other programs for the duration of your participation. </li> <br><li>Please mute or turn off your phone and put it out of your reach. </li> <br><li>Please also take off any disturbing accessories (such as wristwatches, bracelets, etc.). </li> <br><li>If you have music playing in the background, please turn it off now. </li> <br></ol>Thank you! <br>Press 'SPACE' to continue. </div>","32","","","","","","","","","","","","","","","","","","","",""
"survey-text","5","227505","0.0-1.0-1.0-0.0","yohrjbtcjulbnzn","demographics","5e60c04eec276e000d83b85d","5f60e3c0a3b16e07647b2ff9","5f60f0c02605c5016e1611f5","true","4438.76500002807","","","","{""age"":""33""}","","","","","","","","","","","","","","","","","",""
"survey-multi-choice","6","279124","0.0-1.0-1.0-1.0","yohrjbtcjulbnzn","demographics","5e60c04eec276e000d83b85d","5f60e3c0a3b16e07647b2ff9","5f60f0c02605c5016e1611f5","true","51616.13999999827","","","","{""gender"":""female"",""school"":""high school"",""education"":""Completed university degree or equivalent""}","[0,1,2]","","","","","","","","","","","","","","","","",""
"html-keyboard-response","7","302379","0.0-1.0-2.0","yohrjbtcjulbnzn","instructions","5e60c04eec276e000d83b85d","5f60e3c0a3b16e07647b2ff9","5f60f0c02605c5016e1611f5","false","23252.03999999212","<div align=left> The experiment is now about to start: <br> <br>In the following part, you will be presented pictures of everyday objects. <br>Your first task is to <strong>classify these objects. </strong> <br> <br> You will classify them either as mechanical or non-mechanical objects. <br> <br>Objects that include any kind of technical mechanism (for example, wheels, switches, levers, <br> electronic components) fall under the category of <strong>mechanical</strong> objects. <br>Only objects without any kind of technical mechanism should be classified as <strong>non-mechanical</strong>. <br><br>Press 'SPACE' to continue. </div>","32","","","","","","","","","","","","","","","","","","","",""
"html-keyboard-response","8","371264","0.0-2.0-0.0","yohrjbtcjulbnzn","instructions","5e60c04eec276e000d83b85d","5f60e3c0a3b16e07647b2ff9","5f60f0c02605c5016e1611f5","false","68880.5449999636","<div align=justify>You will classify the objects using the <strong>'S'</strong> and the <strong>'L'</strong> keys on your keyboard.<br>For doing so, please place your <strong>left index finger</strong> on the <strong>'S'</strong> key and place your <strong>right index finger</strong> on the <strong>'L'</strong> key. <br><br> Each trial starts with an instruction, indicating which key ('S'/'L') you need to press to classify <br>the object as mechanical (letter M) or non-mechanical (letter N).<br>The instruction <strong>M + N</strong> indicates that, in the current trial, by pressing the left key ('S') you classify the displayed object as mechanical (M) <br> and by pressing the right key ('L') you classify the object as non-mechanical (N). <br>The instruction <strong>N + M</strong> on the other hand indicates that by pressing the left key ('S') you classify the displayed object as non-mechanical (N) <br> and by pressing the right key ('L') you classify the object as mechanical (M). <br><br>Please press the key corresponding to the correct classification as fast as possible as soon as the object is displayed and try to avoid making mistakes.<br>If you do not respond within a 2 second window, a corresponding feedback will be displayed and the next trial will start.<br> The experiment is divided into multiple blocks to give you the opportunity to take a break after each block. <br>First, you can now practice this task. <br><br>Please place your <strong>LEFT INDEX FINGER</strong> on the 'S' key and your <strong>RIGHT INDEX FINGER</strong> on the 'L' key now. <br><br>Press SPACE to continue.</div>","32","","","","","","","","","","","","","","","","","","","",""
"html-keyboard-response","9","388583","0.0-2.0-1.0","yohrjbtcjulbnzn","instructions","5e60c04eec276e000d83b85d","5f60e3c0a3b16e07647b2ff9","5f60f0c02605c5016e1611f5","false","17314.004999992903","<div align=left> You will now have time to practice this task.<br><br>Remember: <br> <br><li>Please place your index fingers on the <strong>'S'</strong> and <strong>'L'</strong> keys <br>to respond as fast and accurately as possible.</li><li>Every picture can be classified as either mechanical or non-mechanical.</li><li>If you do not respond in time or commit an error, you will receive a corresponding feedback. </li><li> Please try to respond as <strong> fast </strong> and as <strong> accurately as possible </strong> .<br><li>To ensure optimal results, please minimize distractions and stay focused. </li><br><br>Press SPACE to continue.</div>","32","","","","","","","","","","","","","","","","","","","",""
"html-keyboard-response","10","389291","0.0-2.0-2.0-0.0","yohrjbtcjulbnzn","practice_no_cue","5e60c04eec276e000d83b85d","5f60e3c0a3b16e07647b2ff9","5f60f0c02605c5016e1611f5","false","null","<span style=""color: black; font-size: 48px"">N + M</span>","null","","","","resp_prompt","","","","","","","","","","","","","","","",""
"categorize-image","11","391255","0.0-2.0-2.0-1.0","yohrjbtcjulbnzn","practice_no_cue","5e60c04eec276e000d83b85d","5f60e3c0a3b16e07647b2ff9","5f60f0c02605c5016e1611f5","true","1443.4800000162795","./Stimuli/ImagesPractice/SN222.jpg","83","","","","test","true","N + M","83","","SN","SN222.jpg","remember","old","1","1","start","left","","","",""
"html-keyboard-response","12","391960","0.0-2.0-2.0-0.1","yohrjbtcjulbnzn","practice_no_cue","5e60c04eec276e000d83b85d","5f60e3c0a3b16e07647b2ff9","5f60f0c02605c5016e1611f5","false","null","<span style=""color: black; font-size: 48px"">N + M</span>","null","","","","resp_prompt","","","","","","","","","","","","","","","",""
"categorize-image","13","393504","0.0-2.0-2.0-1.1","yohrjbtcjulbnzn","practice_no_cue","5e60c04eec276e000d83b85d","5f60e3c0a3b16e07647b2ff9","5f60f0c02605c5016e1611f5","true","1036.870000010822","./Stimuli/ImagesPractice/LM143.jpg","76","","","","test","true","N + M","76","","LM","LM143.jpg","forget","old","2","1","start","right","","","",""
"html-keyboard-response","14","394208","0.0-2.0-2.0-0.2","yohrjbtcjulbnzn","practice_no_cue","5e60c04eec276e000d83b85d","5f60e3c0a3b16e07647b2ff9","5f60f0c02605c5016e1611f5","false","null","<span style=""color: black; font-size: 48px"">N + M</span>","null","","","","resp_prompt","","","","","","","","","","","","","","","",""
"categorize-image","15","395871","0.0-2.0-2.0-1.2","yohrjbtcjulbnzn","practice_no_cue","5e60c04eec276e000d83b85d","5f60e3c0a3b16e07647b2ff9","5f60f0c02605c5016e1611f5","true","1156.4500000094995","./Stimuli/ImagesPractice/LM239.jpg","76","","","","test","true","N + M","76","","LM","LM239.jpg","forget","old","3","1","start","right","","","",""
"html-keyboard-response","16","396575","0.0-2.0-2.0-0.3","yohrjbtcjulbnzn","practice_no_cue","5e60c04eec276e000d83b85d","5f60e3c0a3b16e07647b2ff9","5f60f0c02605c5016e1611f5","false","null","<span style=""color: black; font-size: 48px"">N + M</span>","null","","","","resp_prompt","","","","","","","","","","","","","","","",""
"categorize-image","17","398527","0.0-2.0-2.0-1.3","yohrjbtcjulbnzn","practice_no_cue","5e60c04eec276e000d83b85d","5f60e3c0a3b16e07647b2ff9","5f60f0c02605c5016e1611f5","true","1446.6799999936484","./Stimuli/ImagesPractice/LN4.jpg","83","","","","test","true","N + M","83","","LN","LN4.jpg","remember","old","4","1","start","left","","","",""
"html-keyboard-response","18","399232","0.0-2.0-2.0-0.4","yohrjbtcjulbnzn","practice_no_cue","5e60c04eec276e000d83b85d","5f60e3c0a3b16e07647b2ff9","5f60f0c02605c5016e1611f5","false","null","<span style=""color: black; font-size: 48px"">N + M</span>","null","","","","resp_prompt","","","","","","","","","","","","","","","",""
"categorize-image","19","400695","0.0-2.0-2.0-1.4","yohrjbtcjulbnzn","practice_no_cue","5e60c04eec276e000d83b85d","5f60e3c0a3b16e07647b2ff9","5f60f0c02605c5016e1611f5","true","955.8250000118278","./Stimuli/ImagesPractice/SM35.jpg","76","","","","test","true","N + M","76","","SM","SM35.jpg","forget","old","5","1","start","right","","","",""
"html-keyboard-response","20","401398","0.0-2.0-2.0-0.5","yohrjbtcjulbnzn","practice_no_cue","5e60c04eec276e000d83b85d","5f60e3c0a3b16e07647b2ff9","5f60f0c02605c5016e1611f5","false","null","<span style=""color: black; font-size: 48px"">M + N</span>","null","","","","resp_prompt","","","","","","","","","","","","","","","",""
"categorize-image","21","403459","0.0-2.0-2.0-1.5","yohrjbtcjulbnzn","practice_no_cue","5e60c04eec276e000d83b85d","5f60e3c0a3b16e07647b2ff9","5f60f0c02605c5016e1611f5","true","1554.4200000003912","./Stimuli/ImagesPractice/SM98.jpg","83","","","","test","true","M + N","83","","SM","SM98.jpg","remember","old","6","1","start","left","","","",""
"html-keyboard-response","22","404162","0.0-2.0-2.0-0.6","yohrjbtcjulbnzn","practice_no_cue","5e60c04eec276e000d83b85d","5f60e3c0a3b16e07647b2ff9","5f60f0c02605c5016e1611f5","false","null","<span style=""color: black; font-size: 48px"">M + N</span>","null","","","","resp_prompt","","","","","","","","","","","","","","","",""
"categorize-image","23","406118","0.0-2.0-2.0-1.6","yohrjbtcjulbnzn","practice_no_cue","5e60c04eec276e000d83b85d","5f60e3c0a3b16e07647b2ff9","5f60f0c02605c5016e1611f5","true","1450.539999990724","./Stimuli/ImagesPractice/LN109.jpg","76","","","","test","true","M + N","76","","LN","LN109.jpg","forget","old","7","1","start","right","","","",""
"html-keyboard-response","24","406827","0.0-2.0-2.0-0.7","yohrjbtcjulbnzn","practice_no_cue","5e60c04eec276e000d83b85d","5f60e3c0a3b16e07647b2ff9","5f60f0c02605c5016e1611f5","false","null","<span style=""color: black; font-size: 48px"">M + N</span>","null","","","","resp_prompt","","","","","","","","","","","","","","","",""
"categorize-image","25","408551","0.0-2.0-2.0-1.7","yohrjbtcjulbnzn","practice_no_cue","5e60c04eec276e000d83b85d","5f60e3c0a3b16e07647b2ff9","5f60f0c02605c5016e1611f5","true","1216.8749999837019","./Stimuli/ImagesPractice/SM61.jpg","83","","","","test","true","M + N","83","","SM","SM61.jpg","forget","old","8","1","start","left","","","",""
"html-keyboard-response","26","409254","0.0-2.0-2.0-0.8","yohrjbtcjulbnzn","practice_no_cue","5e60c04eec276e000d83b85d","5f60e3c0a3b16e07647b2ff9","5f60f0c02605c5016e1611f5","false","null","<span style=""color: black; font-size: 48px"">M + N</span>","null","","","","resp_prompt","","","","","","","","","","","","","","","",""
"categorize-image","27","410566","0.0-2.0-2.0-1.8","yohrjbtcjulbnzn","practice_no_cue","5e60c04eec276e000d83b85d","5f60e3c0a3b16e07647b2ff9","5f60f0c02605c5016e1611f5","true","806.1699999962002","./Stimuli/ImagesPractice/LM55.jpg","83","","","","test","true","M + N","83","","LM","LM55.jpg","forget","old","9","1","start","left","","","",""
"html-keyboard-response","28","411271","0.0-2.0-2.0-0.9","yohrjbtcjulbnzn","practice_no_cue","5e60c04eec276e000d83b85d","5f60e3c0a3b16e07647b2ff9","5f60f0c02605c5016e1611f5","false","null","<span style=""color: black; font-size: 48px"">M + N</span>","null","","","","resp_prompt","","","","","","","","","","","","","","","",""
"categorize-image","29","412658","0.0-2.0-2.0-1.9","yohrjbtcjulbnzn","practice_no_cue","5e60c04eec276e000d83b85d","5f60e3c0a3b16e07647b2ff9","5f60f0c02605c5016e1611f5","true","882.6750000007451","./Stimuli/ImagesPractice/SN75.jpg","76","","","","test","true","M + N","76","","SN","SN75.jpg","remember","old","10","1","start","right","","","",""
"html-keyboard-response","30","413361","0.0-2.0-2.0-0.10","yohrjbtcjulbnzn","practice_no_cue","5e60c04eec276e000d83b85d","5f60e3c0a3b16e07647b2ff9","5f60f0c02605c5016e1611f5","false","null","<span style=""color: black; font-size: 48px"">M + N</span>","null","","","","resp_prompt","","","","","","","","","","","","","","","",""
"categorize-image","31","415399","0.0-2.0-2.0-1.10","yohrjbtcjulbnzn","practice_no_cue","5e60c04eec276e000d83b85d","5f60e3c0a3b16e07647b2ff9","5f60f0c02605c5016e1611f5","true","1530.2249999949709","./Stimuli/ImagesPractice/SN205.jpg","76","","","","test","true","M + N","76","","SN","SN205.jpg","forget","old","11","1","start","right","","","",""
"html-keyboard-response","32","416102","0.0-2.0-2.0-0.11","yohrjbtcjulbnzn","practice_no_cue","5e60c04eec276e000d83b85d","5f60e3c0a3b16e07647b2ff9","5f60f0c02605c5016e1611f5","false","null","<span style=""color: black; font-size: 48px"">N + M</span>","null","","","","resp_prompt","","","","","","","","","","","","","","","",""
"categorize-image","33","418094","0.0-2.0-2.0-1.11","yohrjbtcjulbnzn","practice_no_cue","5e60c04eec276e000d83b85d","5f60e3c0a3b16e07647b2ff9","5f60f0c02605c5016e1611f5","true","1486.685000010766","./Stimuli/ImagesPractice/LN2.jpg","83","","","","test","true","N + M","83","","LN","LN2.jpg","remember","old","12","1","start","left","","","",""
"html-keyboard-response","34","418797","0.0-2.0-2.0-0.12","yohrjbtcjulbnzn","practice_no_cue","5e60c04eec276e000d83b85d","5f60e3c0a3b16e07647b2ff9","5f60f0c02605c5016e1611f5","false","null","<span style=""color: black; font-size: 48px"">N + M</span>","null","","","","resp_prompt","","","","","","","","","","","","","","","",""
"categorize-image","35","420102","0.0-2.0-2.0-1.12","yohrjbtcjulbnzn","practice_no_cue","5e60c04eec276e000d83b85d","5f60e3c0a3b16e07647b2ff9","5f60f0c02605c5016e1611f5","true","797.9150000028312","./Stimuli/ImagesPractice/LN17.jpg","83","","","","test","true","N + M","83","","LN","LN17.jpg","forget","old","13","1","start","left","","","",""
"html-keyboard-response","36","420805","0.0-2.0-2.0-0.13","yohrjbtcjulbnzn","practice_no_cue","5e60c04eec276e000d83b85d","5f60e3c0a3b16e07647b2ff9","5f60f0c02605c5016e1611f5","false","null","<span style=""color: black; font-size: 48px"">N + M</span>","null","","","","resp_prompt","","","","","","","","","","","","","","","",""
"categorize-image","37","422312","0.0-2.0-2.0-1.13","yohrjbtcjulbnzn","practice_no_cue","5e60c04eec276e000d83b85d","5f60e3c0a3b16e07647b2ff9","5f60f0c02605c5016e1611f5","true","1001.6499999910593","./Stimuli/ImagesPractice/SM37.jpg","76","","","","test","true","N + M","76","","SM","SM37.jpg","remember","old","14","1","start","right","","","",""
"html-keyboard-response","38","423015","0.0-2.0-2.0-0.14","yohrjbtcjulbnzn","practice_no_cue","5e60c04eec276e000d83b85d","5f60e3c0a3b16e07647b2ff9","5f60f0c02605c5016e1611f5","false","null","<span style=""color: black; font-size: 48px"">M + N</span>","null","","","","resp_prompt","","","","","","","","","","","","","","","",""
"categorize-image","39","424769","0.0-2.0-2.0-1.14","yohrjbtcjulbnzn","practice_no_cue","5e60c04eec276e000d83b85d","5f60e3c0a3b16e07647b2ff9","5f60f0c02605c5016e1611f5","true","1248.1599999591708","./Stimuli/ImagesPractice/LN72.jpg","76","","","","test","true","M + N","76","","LN","LN72.jpg","remember","old","15","1","start","right","","","",""
"html-keyboard-response","40","425473","0.0-2.0-2.0-0.15","yohrjbtcjulbnzn","practice_no_cue","5e60c04eec276e000d83b85d","5f60e3c0a3b16e07647b2ff9","5f60f0c02605c5016e1611f5","false","null","<span style=""color: black; font-size: 48px"">M + N</span>","null","","","","resp_prompt","","","","","","","","","","","","","","","",""
"categorize-image","41","426896","0.0-2.0-2.0-1.15","yohrjbtcjulbnzn","practice_no_cue","5e60c04eec276e000d83b85d","5f60e3c0a3b16e07647b2ff9","5f60f0c02605c5016e1611f5","true","917.5350000150502","./Stimuli/ImagesPractice/SN220.jpg","76","","","","test","true","M + N","76","","SN","SN220.jpg","remember","old","16","1","start","right","","","",""
"html-keyboard-response","42","433406","0.0-2.0-3.0","yohrjbtcjulbnzn","break","5e60c04eec276e000d83b85d","5f60e3c0a3b16e07647b2ff9","5f60f0c02605c5016e1611f5","false","6502.284999995027","<p style='font-size: 32px;'>Break</><br><br><br><br><br><p style='font-size: 24px;'>In the last block, you committed 0 errors and did not respond in time on 0 trials.
</p><p style='font-size: 24px;'>Try to respond as fast and accurately as possible in the next block as well! </p><p style='font-size: 24px;'>Press SPACE to continue.</p>","32","","","","","","","","","","","","","","","","","","","",""
"html-keyboard-response","43","442486","0.0-2.0-4.0","yohrjbtcjulbnzn","instructions","5e60c04eec276e000d83b85d","5f60e3c0a3b16e07647b2ff9","5f60f0c02605c5016e1611f5","false","9076.65999996243","<div align=left> Great!<br><br>Are you ready to continue?<br><br>If you want to reread the instructions and redo the practice trials, <br>please press „Z“. <br><br>Press SPACE to CONTINUE with the experiment when you are ready. </div>","32","","","","","","","","","","","","","","","","","","","",""
"html-keyboard-response","44","478534","0.0-3.0-0.0","yohrjbtcjulbnzn","instructions","5e60c04eec276e000d83b85d","5f60e3c0a3b16e07647b2ff9","5f60f0c02605c5016e1611f5","false","36041.36499995366","<div align=left>Great!<br> <strong>Attention</strong>! You will now receive a second, additional task! <br><br>To this point it was you <strong>first task</strong> to correctly <strong>classify objects</strong>. <br><br>As mentioned in the beginning, we aim to examine how well humans can remember previously learned information.<br>We would like to find out whether our memory improves if we only remember information that is relevant to us. <br><br>Therefore, your <strong>second task</strong> will be to <strong>remember</strong> the pictures you are to categorize. <br> After the learning phase, there will be a memory test phase, in which you will be asked to indicate whether you have seen a picture before or not. <br>Some, but not all pictures shown in the learning phase will appear in the memory test phase.<br>After classifying a picture, you will be told whether you should remember it for the memory test phase or not. <br>Thus, some pictures can be forgotten, whereas others have to be remembered. <br><br>Note: From now on, feedback will only be displayed if you responded incorrectly or not in time.<br><br>Press SPACE to continue.</div>","32","","","","","","","","","","","","","","","","","","","",""
"html-keyboard-response","45","498163","0.0-3.0-1.0","yohrjbtcjulbnzn","instructions","5e60c04eec276e000d83b85d","5f60e3c0a3b16e07647b2ff9","5f60f0c02605c5016e1611f5","false","19626.304999983404","<div align=left>In the following part, you will thus have to remember only some pictures. <br>Immediately after seeing and classifying the picture, a symbol will be displayed, indicating whether you should remember or forget the previous picture. <br><br>A <span style='color: dodgerblue; font-size: 28px'>O</span> indicates REMEMBER. That means, you have to remember this picture, because it will be tested later. <br><br>A <span style='color: darkorange; font-size:28px'>Ø</span> indicates FORGET. You do not have to remember this picture. <br><br> As you will have to remember a lot of pictures, it will be hard for you to remember all of them. <br>It will put you at an advantage if you instantly forget the pictures you are not asked to remember. <br> This will make it easier for you to remember the pictures that will be tested afterwards. <br><br>Press SPACE to continue.</div>","32","","","","","","","","","","","","","","","","","","","",""
"html-keyboard-response","46","508031","0.0-3.0-2.0","yohrjbtcjulbnzn","instructions","5e60c04eec276e000d83b85d","5f60e3c0a3b16e07647b2ff9","5f60f0c02605c5016e1611f5","false","9862.955000018701","<div align=left> Now you have the chance to practice both tasks together.<br><br>Remember: <br> <br><li>Please place your index fingers on the <strong>'S'</strong> and <strong>'L'</strong> keys <br>to respond as fast and accurately as possible.</li><li>Every picture can be classified as either mechanical or non-mechanical.</li><li>If you do not respond in time or commit an error, you will receive a corresponding feedback. <br>Please try to respond as <strong> fast </strong> and as <strong> accurately as possible </strong>.</li><li> Please remember only the to-be-remembered <span style='color: dodgerblue; font-size: 28px'>O</span> pictures. <br></li><li> Please minimize distractions and stay focused. </li><br><br>Press SPACE to START</div>","32","","","","","","","","","","","","","","","","","","","",""
"html-keyboard-response","47","508735","0.0-3.0-3.0-0.0","yohrjbtcjulbnzn","practice_cue","5e60c04eec276e000d83b85d","5f60e3c0a3b16e07647b2ff9","5f60f0c02605c5016e1611f5","false","null","<span style=""color: black; font-size: 48px"">N + M</span>","null","","","","resp_prompt","","","","","","","","","","","","","","","",""
"categorize-image","48","509889","0.0-3.0-3.0-1.0","yohrjbtcjulbnzn","practice_cue","5e60c04eec276e000d83b85d","5f60e3c0a3b16e07647b2ff9","5f60f0c02605c5016e1611f5","true","1142.9500000085682","./Stimuli/ImagesPractice/SN222.jpg","83","","","","test","true","N + M","83","","SN","SN222.jpg","remember","old","17","2","practice_forget","left","","","",""
"html-keyboard-response","49","511895","0.0-3.0-3.0-3.0","yohrjbtcjulbnzn","practice_cue","5e60c04eec276e000d83b85d","5f60e3c0a3b16e07647b2ff9","5f60f0c02605c5016e1611f5","false","null","<div style=""align-items: center; display: flex; color: dodgerblue; font-size: 90px""><b>o</b></div>","null","","","","forget_cue","","","","","","","","","","","","","","","",""
"html-keyboard-response","50","512598","0.0-3.0-3.0-0.1","yohrjbtcjulbnzn","practice_cue","5e60c04eec276e000d83b85d","5f60e3c0a3b16e07647b2ff9","5f60f0c02605c5016e1611f5","false","null","<span style=""color: black; font-size: 48px"">M + N</span>","null","","","","resp_prompt","","","","","","","","","","","","","","","",""
"categorize-image","51","513621","0.0-3.0-3.0-1.1","yohrjbtcjulbnzn","practice_cue","5e60c04eec276e000d83b85d","5f60e3c0a3b16e07647b2ff9","5f60f0c02605c5016e1611f5","true","1011.8149999761954","./Stimuli/ImagesPractice/LN72.jpg","76","","","","test","true","M + N","76","","LN","LN72.jpg","remember","old","18","2","practice_forget","right","","","",""
"html-keyboard-response","52","515625","0.0-3.0-3.0-3.1","yohrjbtcjulbnzn","practice_cue","5e60c04eec276e000d83b85d","5f60e3c0a3b16e07647b2ff9","5f60f0c02605c5016e1611f5","false","null","<div style=""align-items: center; display: flex; color: dodgerblue; font-size: 90px""><b>o</b></div>","null","","","","forget_cue","","","","","","","","","","","","","","","",""
"html-keyboard-response","53","516328","0.0-3.0-3.0-0.2","yohrjbtcjulbnzn","practice_cue","5e60c04eec276e000d83b85d","5f60e3c0a3b16e07647b2ff9","5f60f0c02605c5016e1611f5","false","null","<span style=""color: black; font-size: 48px"">N + M</span>","null","","","","resp_prompt","","","","","","","","","","","","","","","",""
"categorize-image","54","517191","0.0-3.0-3.0-1.2","yohrjbtcjulbnzn","practice_cue","5e60c04eec276e000d83b85d","5f60e3c0a3b16e07647b2ff9","5f60f0c02605c5016e1611f5","true","852.7199999662116","./Stimuli/ImagesPractice/LN17.jpg","83","","","","test","true","N + M","83","","LN","LN17.jpg","forget","old","19","2","practice_forget","left","","","",""
"html-keyboard-response","55","519196","0.0-3.0-3.0-3.2","yohrjbtcjulbnzn","practice_cue","5e60c04eec276e000d83b85d","5f60e3c0a3b16e07647b2ff9","5f60f0c02605c5016e1611f5","false","null","<div style=""align-items: center; display: flex; color: darkorange; font-size: 90px""><b>ø</b></div>","null","","","","forget_cue","","","","","","","","","","","","","","","",""
"html-keyboard-response","56","519901","0.0-3.0-3.0-0.3","yohrjbtcjulbnzn","practice_cue","5e60c04eec276e000d83b85d","5f60e3c0a3b16e07647b2ff9","5f60f0c02605c5016e1611f5","false","null","<span style=""color: black; font-size: 48px"">N + M</span>","null","","","","resp_prompt","","","","","","","","","","","","","","","",""
"categorize-image","57","521912","0.0-3.0-3.0-1.3","yohrjbtcjulbnzn","practice_cue","5e60c04eec276e000d83b85d","5f60e3c0a3b16e07647b2ff9","5f60f0c02605c5016e1611f5","true","null","./Stimuli/ImagesPractice/LN4.jpg","null","","","","test","false","N + M","83","","LN","LN4.jpg","remember","old","20","2","practice_forget","too_slow","","","",""
"html-keyboard-response","58","522416","0.0-3.0-3.0-2.3-0.3","yohrjbtcjulbnzn","practice_cue","5e60c04eec276e000d83b85d","5f60e3c0a3b16e07647b2ff9","5f60f0c02605c5016e1611f5","false","null","<span style=""color: red; font-size: 48px"">Too slow!</span>","null","","","","feedback","","","","","","","","","","","","","","","",""
"html-keyboard-response","59","524419","0.0-3.0-3.0-3.3","yohrjbtcjulbnzn","practice_cue","5e60c04eec276e000d83b85d","5f60e3c0a3b16e07647b2ff9","5f60f0c02605c5016e1611f5","false","null","<div style=""align-items: center; display: flex; color: dodgerblue; font-size: 90px""><b>o</b></div>","null","","","","forget_cue","","","","","","","","","","","","","","","",""
"html-keyboard-response","60","525122","0.0-3.0-3.0-0.4","yohrjbtcjulbnzn","practice_cue","5e60c04eec276e000d83b85d","5f60e3c0a3b16e07647b2ff9","5f60f0c02605c5016e1611f5","false","null","<span style=""color: black; font-size: 48px"">N + M</span>","null","","","","resp_prompt","","","","","","","","","","","","","","","",""
"categorize-image","61","525898","0.0-3.0-3.0-1.4","yohrjbtcjulbnzn","practice_cue","5e60c04eec276e000d83b85d","5f60e3c0a3b16e07647b2ff9","5f60f0c02605c5016e1611f5","true","764.9949999758974","./Stimuli/ImagesPractice/LN2.jpg","83","","","","test","true","N + M","83","","LN","LN2.jpg","remember","old","21","2","practice_forget","left","","","",""
"html-keyboard-response","62","527903","0.0-3.0-3.0-3.4","yohrjbtcjulbnzn","practice_cue","5e60c04eec276e000d83b85d","5f60e3c0a3b16e07647b2ff9","5f60f0c02605c5016e1611f5","false","null","<div style=""align-items: center; display: flex; color: dodgerblue; font-size: 90px""><b>o</b></div>","null","","","","forget_cue","","","","","","","","","","","","","","","",""
"html-keyboard-response","63","528606","0.0-3.0-3.0-0.5","yohrjbtcjulbnzn","practice_cue","5e60c04eec276e000d83b85d","5f60e3c0a3b16e07647b2ff9","5f60f0c02605c5016e1611f5","false","null","<span style=""color: black; font-size: 48px"">M + N</span>","null","","","","resp_prompt","","","","","","","","","","","","","","","",""
"categorize-image","64","529700","0.0-3.0-3.0-1.5","yohrjbtcjulbnzn","practice_cue","5e60c04eec276e000d83b85d","5f60e3c0a3b16e07647b2ff9","5f60f0c02605c5016e1611f5","true","1083.4299999987707","./Stimuli/ImagesPractice/SN205.jpg","76","","","","test","true","M + N","76","","SN","SN205.jpg","forget","old","22","2","practice_forget","right","","","",""
"html-keyboard-response","65","531705","0.0-3.0-3.0-3.5","yohrjbtcjulbnzn","practice_cue","5e60c04eec276e000d83b85d","5f60e3c0a3b16e07647b2ff9","5f60f0c02605c5016e1611f5","false","null","<div style=""align-items: center; display: flex; color: darkorange; font-size: 90px""><b>ø</b></div>","null","","","","forget_cue","","","","","","","","","","","","","","","",""
"html-keyboard-response","66","532408","0.0-3.0-3.0-0.6","yohrjbtcjulbnzn","practice_cue","5e60c04eec276e000d83b85d","5f60e3c0a3b16e07647b2ff9","5f60f0c02605c5016e1611f5","false","null","<span style=""color: black; font-size: 48px"">M + N</span>","null","","","","resp_prompt","","","","","","","","","","","","","","","",""
"categorize-image","67","533812","0.0-3.0-3.0-1.6","yohrjbtcjulbnzn","practice_cue","5e60c04eec276e000d83b85d","5f60e3c0a3b16e07647b2ff9","5f60f0c02605c5016e1611f5","true","1392.5249999738298","./Stimuli/ImagesPractice/SN75.jpg","76","","","","test","true","M + N","76","","SN","SN75.jpg","remember","old","23","2","practice_forget","right","","","",""
"html-keyboard-response","68","535817","0.0-3.0-3.0-3.6","yohrjbtcjulbnzn","practice_cue","5e60c04eec276e000d83b85d","5f60e3c0a3b16e07647b2ff9","5f60f0c02605c5016e1611f5","false","null","<div style=""align-items: center; display: flex; color: dodgerblue; font-size: 90px""><b>o</b></div>","null","","","","forget_cue","","","","","","","","","","","","","","","",""
"html-keyboard-response","69","536521","0.0-3.0-3.0-0.7","yohrjbtcjulbnzn","practice_cue","5e60c04eec276e000d83b85d","5f60e3c0a3b16e07647b2ff9","5f60f0c02605c5016e1611f5","false","null","<span style=""color: black; font-size: 48px"">N + M</span>","null","","","","resp_prompt","","","","","","","","","","","","","","","",""
"categorize-image","70","537647","0.0-3.0-3.0-1.7","yohrjbtcjulbnzn","practice_cue","5e60c04eec276e000d83b85d","5f60e3c0a3b16e07647b2ff9","5f60f0c02605c5016e1611f5","true","1115.1600000448525","./Stimuli/ImagesPractice/LM239.jpg","76","","","","test","true","N + M","76","","LM","LM239.jpg","forget","old","24","2","practice_forget","right","","","",""
"html-keyboard-response","71","539651","0.0-3.0-3.0-3.7","yohrjbtcjulbnzn","practice_cue","5e60c04eec276e000d83b85d","5f60e3c0a3b16e07647b2ff9","5f60f0c02605c5016e1611f5","false","null","<div style=""align-items: center; display: flex; color: darkorange; font-size: 90px""><b>ø</b></div>","null","","","","forget_cue","","","","","","","","","","","","","","","",""
"html-keyboard-response","72","540354","0.0-3.0-3.0-0.8","yohrjbtcjulbnzn","practice_cue","5e60c04eec276e000d83b85d","5f60e3c0a3b16e07647b2ff9","5f60f0c02605c5016e1611f5","false","null","<span style=""color: black; font-size: 48px"">M + N</span>","null","","","","resp_prompt","","","","","","","","","","","","","","","",""
"categorize-image","73","541150","0.0-3.0-3.0-1.8","yohrjbtcjulbnzn","practice_cue","5e60c04eec276e000d83b85d","5f60e3c0a3b16e07647b2ff9","5f60f0c02605c5016e1611f5","true","785.0099999923259","./Stimuli/ImagesPractice/LM55.jpg","83","","","","test","true","M + N","83","","LM","LM55.jpg","forget","old","25","2","practice_forget","left","","","",""
"html-keyboard-response","74","543154","0.0-3.0-3.0-3.8","yohrjbtcjulbnzn","practice_cue","5e60c04eec276e000d83b85d","5f60e3c0a3b16e07647b2ff9","5f60f0c02605c5016e1611f5","false","null","<div style=""align-items: center; display: flex; color: darkorange; font-size: 90px""><b>ø</b></div>","null","","","","forget_cue","","","","","","","","","","","","","","","",""
"html-keyboard-response","75","543858","0.0-3.0-3.0-0.9","yohrjbtcjulbnzn","practice_cue","5e60c04eec276e000d83b85d","5f60e3c0a3b16e07647b2ff9","5f60f0c02605c5016e1611f5","false","null","<span style=""color: black; font-size: 48px"">M + N</span>","null","","","","resp_prompt","","","","","","","","","","","","","","","",""
"categorize-image","76","544939","0.0-3.0-3.0-1.9","yohrjbtcjulbnzn","practice_cue","5e60c04eec276e000d83b85d","5f60e3c0a3b16e07647b2ff9","5f60f0c02605c5016e1611f5","true","1072.180000017397","./Stimuli/ImagesPractice/SN220.jpg","76","","","","test","true","M + N","76","","SN","SN220.jpg","remember","old","26","2","practice_forget","right","","","",""
"html-keyboard-response","77","546944","0.0-3.0-3.0-3.9","yohrjbtcjulbnzn","practice_cue","5e60c04eec276e000d83b85d","5f60e3c0a3b16e07647b2ff9","5f60f0c02605c5016e1611f5","false","null","<div style=""align-items: center; display: flex; color: dodgerblue; font-size: 90px""><b>o</b></div>","null","","","","forget_cue","","","","","","","","","","","","","","","",""
"html-keyboard-response","78","547656","0.0-3.0-3.0-0.10","yohrjbtcjulbnzn","practice_cue","5e60c04eec276e000d83b85d","5f60e3c0a3b16e07647b2ff9","5f60f0c02605c5016e1611f5","false","null","<span style=""color: black; font-size: 48px"">N + M</span>","null","","","","resp_prompt","","","","","","","","","","","","","","","",""
"categorize-image","79","548517","0.0-3.0-3.0-1.10","yohrjbtcjulbnzn","practice_cue","5e60c04eec276e000d83b85d","5f60e3c0a3b16e07647b2ff9","5f60f0c02605c5016e1611f5","true","850.6649999762885","./Stimuli/ImagesPractice/LM143.jpg","76","","","","test","true","N + M","76","","LM","LM143.jpg","forget","old","27","2","practice_forget","right","","","",""
"html-keyboard-response","80","550521","0.0-3.0-3.0-3.10","yohrjbtcjulbnzn","practice_cue","5e60c04eec276e000d83b85d","5f60e3c0a3b16e07647b2ff9","5f60f0c02605c5016e1611f5","false","null","<div style=""align-items: center; display: flex; color: darkorange; font-size: 90px""><b>ø</b></div>","null","","","","forget_cue","","","","","","","","","","","","","","","",""
"html-keyboard-response","81","551224","0.0-3.0-3.0-0.11","yohrjbtcjulbnzn","practice_cue","5e60c04eec276e000d83b85d","5f60e3c0a3b16e07647b2ff9","5f60f0c02605c5016e1611f5","false","null","<span style=""color: black; font-size: 48px"">N + M</span>","null","","","","resp_prompt","","","","","","","","","","","","","","","",""
"categorize-image","82","551903","0.0-3.0-3.0-1.11","yohrjbtcjulbnzn","practice_cue","5e60c04eec276e000d83b85d","5f60e3c0a3b16e07647b2ff9","5f60f0c02605c5016e1611f5","true","668.7199999578297","./Stimuli/ImagesPractice/SM35.jpg","76","","","","test","true","N + M","76","","SM","SM35.jpg","forget","old","28","2","practice_forget","right","","","",""
"html-keyboard-response","83","553907","0.0-3.0-3.0-3.11","yohrjbtcjulbnzn","practice_cue","5e60c04eec276e000d83b85d","5f60e3c0a3b16e07647b2ff9","5f60f0c02605c5016e1611f5","false","null","<div style=""align-items: center; display: flex; color: darkorange; font-size: 90px""><b>ø</b></div>","null","","","","forget_cue","","","","","","","","","","","","","","","",""
"html-keyboard-response","84","554611","0.0-3.0-3.0-0.12","yohrjbtcjulbnzn","practice_cue","5e60c04eec276e000d83b85d","5f60e3c0a3b16e07647b2ff9","5f60f0c02605c5016e1611f5","false","null","<span style=""color: black; font-size: 48px"">M + N</span>","null","","","","resp_prompt","","","","","","","","","","","","","","","",""
"categorize-image","85","555558","0.0-3.0-3.0-1.12","yohrjbtcjulbnzn","practice_cue","5e60c04eec276e000d83b85d","5f60e3c0a3b16e07647b2ff9","5f60f0c02605c5016e1611f5","true","933.3900000201538","./Stimuli/ImagesPractice/SM61.jpg","83","","","","test","true","M + N","83","","SM","SM61.jpg","forget","old","29","2","practice_forget","left","","","",""
"html-keyboard-response","86","557562","0.0-3.0-3.0-3.12","yohrjbtcjulbnzn","practice_cue","5e60c04eec276e000d83b85d","5f60e3c0a3b16e07647b2ff9","5f60f0c02605c5016e1611f5","false","null","<div style=""align-items: center; display: flex; color: darkorange; font-size: 90px""><b>ø</b></div>","null","","","","forget_cue","","","","","","","","","","","","","","","",""
"html-keyboard-response","87","558279","0.0-3.0-3.0-0.13","yohrjbtcjulbnzn","practice_cue","5e60c04eec276e000d83b85d","5f60e3c0a3b16e07647b2ff9","5f60f0c02605c5016e1611f5","false","null","<span style=""color: black; font-size: 48px"">M + N</span>","null","","","","resp_prompt","","","","","","","","","","","","","","","",""
"categorize-image","88","559258","0.0-3.0-3.0-1.13","yohrjbtcjulbnzn","practice_cue","5e60c04eec276e000d83b85d","5f60e3c0a3b16e07647b2ff9","5f60f0c02605c5016e1611f5","true","968.4800000395626","./Stimuli/ImagesPractice/SM98.jpg","83","","","","test","true","M + N","83","","SM","SM98.jpg","remember","old","30","2","practice_forget","left","","","",""
"html-keyboard-response","89","561263","0.0-3.0-3.0-3.13","yohrjbtcjulbnzn","practice_cue","5e60c04eec276e000d83b85d","5f60e3c0a3b16e07647b2ff9","5f60f0c02605c5016e1611f5","false","null","<div style=""align-items: center; display: flex; color: dodgerblue; font-size: 90px""><b>o</b></div>","null","","","","forget_cue","","","","","","","","","","","","","","","",""
"html-keyboard-response","90","561966","0.0-3.0-3.0-0.14","yohrjbtcjulbnzn","practice_cue","5e60c04eec276e000d83b85d","5f60e3c0a3b16e07647b2ff9","5f60f0c02605c5016e1611f5","false","null","<span style=""color: black; font-size: 48px"">N + M</span>","null","","","","resp_prompt","","","","","","","","","","","","","","","",""
"categorize-image","91","562789","0.0-3.0-3.0-1.14","yohrjbtcjulbnzn","practice_cue","5e60c04eec276e000d83b85d","5f60e3c0a3b16e07647b2ff9","5f60f0c02605c5016e1611f5","true","814.0150000108406","./Stimuli/ImagesPractice/SM37.jpg","76","","","","test","true","N + M","76","","SM","SM37.jpg","remember","old","31","2","practice_forget","right","","","",""
"html-keyboard-response","92","564793","0.0-3.0-3.0-3.14","yohrjbtcjulbnzn","practice_cue","5e60c04eec276e000d83b85d","5f60e3c0a3b16e07647b2ff9","5f60f0c02605c5016e1611f5","false","null","<div style=""align-items: center; display: flex; color: dodgerblue; font-size: 90px""><b>o</b></div>","null","","","","forget_cue","","","","","","","","","","","","","","","",""
"html-keyboard-response","93","565496","0.0-3.0-3.0-0.15","yohrjbtcjulbnzn","practice_cue","5e60c04eec276e000d83b85d","5f60e3c0a3b16e07647b2ff9","5f60f0c02605c5016e1611f5","false","null","<span style=""color: black; font-size: 48px"">M + N</span>","null","","","","resp_prompt","","","","","","","","","","","","","","","",""
"categorize-image","94","566632","0.0-3.0-3.0-1.15","yohrjbtcjulbnzn","practice_cue","5e60c04eec276e000d83b85d","5f60e3c0a3b16e07647b2ff9","5f60f0c02605c5016e1611f5","true","1124.3150000227615","./Stimuli/ImagesPractice/LN109.jpg","76","","","","test","true","M + N","76","","LN","LN109.jpg","forget","old","32","2","practice_forget","right","","","",""
"html-keyboard-response","95","568636","0.0-3.0-3.0-3.15","yohrjbtcjulbnzn","practice_cue","5e60c04eec276e000d83b85d","5f60e3c0a3b16e07647b2ff9","5f60f0c02605c5016e1611f5","false","null","<div style=""align-items: center; display: flex; color: darkorange; font-size: 90px""><b>ø</b></div>","null","","","","forget_cue","","","","","","","","","","","","","","","",""
"html-keyboard-response","96","576932","0.0-3.0-4.0","yohrjbtcjulbnzn","break","5e60c04eec276e000d83b85d","5f60e3c0a3b16e07647b2ff9","5f60f0c02605c5016e1611f5","false","8290.150000015274","<p style='font-size: 32px;'>Break</><br><br><br><br><br><p style='font-size: 24px;'>In the last block, you committed 0 errors and did not respond in time on 1 trials.
</p><p style='font-size: 24px;'>Try to respond as fast and accurately as possible in the next block as well! </p><p style='font-size: 24px;'>Press SPACE to continue.</p>","32","","","","","","","","","","","","","","","","","","","",""
"html-keyboard-response","97","601621","0.0-3.0-5.0","yohrjbtcjulbnzn","instructions","5e60c04eec276e000d83b85d","5f60e3c0a3b16e07647b2ff9","5f60f0c02605c5016e1611f5","false","24685.430000012275","<div align=left> Now, to practice, we kindly ask you to remember as many of the to-be-remembered pictures<br>of the previous learning phase as possible.<br><br>The pictures you were instructed to remember were the pictures followed by a <span style='color: dodgerblue; font-size: 28px'>O</span>.<br><br>In this memory test phase, you will also see some new pictures.<br>It is your task to remember whether you were presented with this specific picture in this study so far or not.<br>If you recognize an object (you have already seen it in this study), it is an OLD object. <br>If you do not recognize an object (you have NOT seen it in this study), it is a NEW object. <br><strong> Attention</strong>: As already mentioned, <span style='color: darkorange; font-size:28px'>Ø</span>-pictures will <strong>never</strong> appear in this memory test (neither as new objects). <br><br>Press SPACE to continue. </div>","32","","","","","","","","","","","","","","","","","","","",""
"html-keyboard-response","98","629402","0.0-3.0-6.0","yohrjbtcjulbnzn","instructions","5e60c04eec276e000d83b85d","5f60e3c0a3b16e07647b2ff9","5f60f0c02605c5016e1611f5","false","27775.224999990314","<div align=left> M and N no longer will appear on the left/right of the fixation cross. <br>Instead there will be a note at the bottom of the left or right side  <br>indicating which key you should press for an old or new object:  <br> <br>Press the <strong>right</strong> key to classify an object as <strong>old</strong> and press the <strong>left</strong>, to classify an object as <strong>new</strong>.<br>Please classify the objects as new/old by again placing your index finger on the 'S' and 'L' keys <br>and press them accordingly.<br><br><strong>Old:</strong> This object has been presented before. <br><strong>New:</strong> This object has <strong>not</strong> been presented.<br><br>Now please put your right and left index fingers on the 'S' and 'L' keys of your keyboard. <br>Please respond as fast and as accurately as possible!<br><br>Press SPACE to continue. </div>","32","","","","","","","","","","","","","","","","","","","",""
"categorize-image","99","631636","0.0-3.0-7.0-0.0","yohrjbtcjulbnzn","practice_recog","5e60c04eec276e000d83b85d","5f60e3c0a3b16e07647b2ff9","5f60f0c02605c5016e1611f5","true","1723.885000043083","./Stimuli/ImagesPractice/LN15.jpg","83","","","","test","false","","76","","LN","LN15.jpg","","new","33","3","practice_recog","left","","","",""
"categorize-image","100","634240","0.0-3.0-7.0-0.1","yohrjbtcjulbnzn","practice_recog","5e60c04eec276e000d83b85d","5f60e3c0a3b16e07647b2ff9","5f60f0c02605c5016e1611f5","true","2096.2000000290573","./Stimuli/ImagesPractice/LN72.jpg","76","","","","test","false","","83","","LN","LN72.jpg","","old","34","3","practice_recog","right","","","",""
"categorize-image","101","636422","0.0-3.0-7.0-0.2","yohrjbtcjulbnzn","practice_recog","5e60c04eec276e000d83b85d","5f60e3c0a3b16e07647b2ff9","5f60f0c02605c5016e1611f5","true","1675.7499999948777","./Stimuli/ImagesPractice/LM147.jpg","83","","","","test","false","","76","","LM","LM147.jpg","","new","35","3","practice_recog","left","","","",""
"categorize-image","102","639928","0.0-3.0-7.0-0.3","yohrjbtcjulbnzn","practice_recog","5e60c04eec276e000d83b85d","5f60e3c0a3b16e07647b2ff9","5f60f0c02605c5016e1611f5","true","2998.395000002347","./Stimuli/ImagesPractice/SM37.jpg","76","","","","test","false","","83","","SM","SM37.jpg","","old","36","3","practice_recog","right","","","",""
"categorize-image","103","643718","0.0-3.0-7.0-0.4","yohrjbtcjulbnzn","practice_recog","5e60c04eec276e000d83b85d","5f60e3c0a3b16e07647b2ff9","5f60f0c02605c5016e1611f5","true","3278.6049999995157","./Stimuli/ImagesPractice/SN76.jpg","76","","","","test","true","","76","","SN","SN76.jpg","","new","37","3","practice_recog","right","","","",""
"categorize-image","104","649437","0.0-3.0-7.0-0.5","yohrjbtcjulbnzn","practice_recog","5e60c04eec276e000d83b85d","5f60e3c0a3b16e07647b2ff9","5f60f0c02605c5016e1611f5","true","5211.44500002265","./Stimuli/ImagesPractice/SM97.jpg","76","","","","test","true","","76","","SM","SM97.jpg","","new","38","3","practice_recog","right","","","",""
"categorize-image","105","652541","0.0-3.0-7.0-0.6","yohrjbtcjulbnzn","practice_recog","5e60c04eec276e000d83b85d","5f60e3c0a3b16e07647b2ff9","5f60f0c02605c5016e1611f5","true","2593.754999979865","./Stimuli/ImagesPractice/SN222.jpg","83","","","","test","true","","83","","SN","SN222.jpg","","old","39","3","practice_recog","left","","","",""
"categorize-image","106","654767","0.0-3.0-7.0-0.7","yohrjbtcjulbnzn","practice_recog","5e60c04eec276e000d83b85d","5f60e3c0a3b16e07647b2ff9","5f60f0c02605c5016e1611f5","true","1719.7750000050291","./Stimuli/ImagesPractice/SM98.jpg","83","","","","test","true","","83","","SM","SM98.jpg","","old","40","3","practice_recog","left","","","",""
"categorize-image","107","656833","0.0-3.0-7.0-0.8","yohrjbtcjulbnzn","practice_recog","5e60c04eec276e000d83b85d","5f60e3c0a3b16e07647b2ff9","5f60f0c02605c5016e1611f5","true","1551.2500000186265","./Stimuli/ImagesPractice/SN221.jpg","76","","","","test","true","","76","","SN","SN221.jpg","","new","41","3","practice_recog","right","","","",""
"categorize-image","108","661214","0.0-3.0-7.0-0.9","yohrjbtcjulbnzn","practice_recog","5e60c04eec276e000d83b85d","5f60e3c0a3b16e07647b2ff9","5f60f0c02605c5016e1611f5","true","3861.8600000045262","./Stimuli/ImagesPractice/SM62.jpg","76","","","","test","true","","76","","SM","SM62.jpg","","new","42","3","practice_recog","right","","","",""
"categorize-image","109","663576","0.0-3.0-7.0-0.10","yohrjbtcjulbnzn","practice_recog","5e60c04eec276e000d83b85d","5f60e3c0a3b16e07647b2ff9","5f60f0c02605c5016e1611f5","true","1854.879999998957","./Stimuli/ImagesPractice/SN75.jpg","76","","","","test","false","","83","","SN","SN75.jpg","","old","43","3","practice_recog","right","","","",""
"categorize-image","110","665392","0.0-3.0-7.0-0.11","yohrjbtcjulbnzn","practice_recog","5e60c04eec276e000d83b85d","5f60e3c0a3b16e07647b2ff9","5f60f0c02605c5016e1611f5","true","1308.0649999901652","./Stimuli/ImagesPractice/SN220.jpg","83","","","","test","true","","83","","SN","SN220.jpg","","old","44","3","practice_recog","left","","","",""
"categorize-image","111","667426","0.0-3.0-7.0-0.12","yohrjbtcjulbnzn","practice_recog","5e60c04eec276e000d83b85d","5f60e3c0a3b16e07647b2ff9","5f60f0c02605c5016e1611f5","true","1525.9649999788962","./Stimuli/ImagesPractice/LM230.jpg","76","","","","test","true","","76","","LM","LM230.jpg","","new","45","3","practice_recog","right","","","",""
"categorize-image","112","669942","0.0-3.0-7.0-0.13","yohrjbtcjulbnzn","practice_recog","5e60c04eec276e000d83b85d","5f60e3c0a3b16e07647b2ff9","5f60f0c02605c5016e1611f5","true","2007.9200000036508","./Stimuli/ImagesPractice/LN2.jpg","83","","","","test","true","","83","","LN","LN2.jpg","","old","46","3","practice_recog","left","","","",""
"categorize-image","113","671195","0.0-3.0-7.0-0.14","yohrjbtcjulbnzn","practice_recog","5e60c04eec276e000d83b85d","5f60e3c0a3b16e07647b2ff9","5f60f0c02605c5016e1611f5","true","746.7349999933504","./Stimuli/ImagesPractice/LM224.jpg","76","","","","test","true","","76","","LM","LM224.jpg","","new","47","3","practice_recog","right","","","",""
"categorize-image","114","672443","0.0-3.0-7.0-0.15","yohrjbtcjulbnzn","practice_recog","5e60c04eec276e000d83b85d","5f60e3c0a3b16e07647b2ff9","5f60f0c02605c5016e1611f5","true","741.5400000172667","./Stimuli/ImagesPractice/LN4.jpg","83","","","","test","true","","83","","LN","LN4.jpg","","old","48","3","practice_recog","left","","","",""
"html-keyboard-response","115","675106","0.0-3.0-8.0","yohrjbtcjulbnzn","instructions","5e60c04eec276e000d83b85d","5f60e3c0a3b16e07647b2ff9","5f60f0c02605c5016e1611f5","false","2659.2449999880046","<div align=left> Great!<br><br>Are you ready to continue?<br>If you want to reread the instructions and redo the practice trials, please <br>press „Z“.<br><br>You can proceed when you are ready.<br><br>After the presentation of each object, you will receive an instruction whether to <br>remember or to forget the object.<br>We will test your memory of the following pictures only at the very end of <br>the experiment after all learning blocks are completed. <br><br>Press SPACE to CONTINUE when you are ready. </div>","90","","","","","","","","","","","","","","","","","","","",""
"html-keyboard-response","116","681814","0.0-3.1-0.1","yohrjbtcjulbnzn","instructions","5e60c04eec276e000d83b85d","5f60e3c0a3b16e07647b2ff9","5f60f0c02605c5016e1611f5","false","6701.889999967534","<div align=left>Great!<br> <strong>Attention</strong>! You will now receive a second, additional task! <br><br>To this point it was you <strong>first task</strong> to correctly <strong>classify objects</strong>. <br><br>As mentioned in the beginning, we aim to examine how well humans can remember previously learned information.<br>We would like to find out whether our memory improves if we only remember information that is relevant to us. <br><br>Therefore, your <strong>second task</strong> will be to <strong>remember</strong> the pictures you are to categorize. <br> After the learning phase, there will be a memory test phase, in which you will be asked to indicate whether you have seen a picture before or not. <br>Some, but not all pictures shown in the learning phase will appear in the memory test phase.<br>After classifying a picture, you will be told whether you should remember it for the memory test phase or not. <br>Thus, some pictures can be forgotten, whereas others have to be remembered. <br><br>Note: From now on, feedback will only be displayed if you responded incorrectly or not in time.<br><br>Press SPACE to continue.</div>","32","","","","","","","","","","","","","","","","","","","",""
"html-keyboard-response","117","688759","0.0-3.1-1.1","yohrjbtcjulbnzn","instructions","5e60c04eec276e000d83b85d","5f60e3c0a3b16e07647b2ff9","5f60f0c02605c5016e1611f5","false","6941.909999994095","<div align=left>In the following part, you will thus have to remember only some pictures. <br>Immediately after seeing and classifying the picture, a symbol will be displayed, indicating whether you should remember or forget the previous picture. <br><br>A <span style='color: dodgerblue; font-size: 28px'>O</span> indicates REMEMBER. That means, you have to remember this picture, because it will be tested later. <br><br>A <span style='color: darkorange; font-size:28px'>Ø</span> indicates FORGET. You do not have to remember this picture. <br><br> As you will have to remember a lot of pictures, it will be hard for you to remember all of them. <br>It will put you at an advantage if you instantly forget the pictures you are not asked to remember. <br> This will make it easier for you to remember the pictures that will be tested afterwards. <br><br>Press SPACE to continue.</div>","32","","","","","","","","","","","","","","","","","","","",""
"html-keyboard-response","118","693551","0.0-3.1-2.1","yohrjbtcjulbnzn","instructions","5e60c04eec276e000d83b85d","5f60e3c0a3b16e07647b2ff9","5f60f0c02605c5016e1611f5","false","4788.475000008475","<div align=left> Now you have the chance to practice both tasks together.<br><br>Remember: <br> <br><li>Please place your index fingers on the <strong>'S'</strong> and <strong>'L'</strong> keys <br>to respond as fast and accurately as possible.</li><li>Every picture can be classified as either mechanical or non-mechanical.</li><li>If you do not respond in time or commit an error, you will receive a corresponding feedback. <br>Please try to respond as <strong> fast </strong> and as <strong> accurately as possible </strong>.</li><li> Please remember only the to-be-remembered <span style='color: dodgerblue; font-size: 28px'>O</span> pictures. <br></li><li> Please minimize distractions and stay focused. </li><br><br>Press SPACE to START</div>","32","","","","","","","","","","","","","","","","","","","",""
"html-keyboard-response","119","694254","0.0-3.1-3.1-0.16","yohrjbtcjulbnzn","practice_cue","5e60c04eec276e000d83b85d","5f60e3c0a3b16e07647b2ff9","5f60f0c02605c5016e1611f5","false","null","<span style=""color: black; font-size: 48px"">M + N</span>","null","","","","resp_prompt","","","","","","","","","","","","","","","",""
"categorize-image","120","696265","0.0-3.1-3.1-1.16","yohrjbtcjulbnzn","practice_cue","5e60c04eec276e000d83b85d","5f60e3c0a3b16e07647b2ff9","5f60f0c02605c5016e1611f5","true","null","./Stimuli/ImagesPractice/SN75.jpg","null","","","","test","false","M + N","76","","SN","SN75.jpg","remember","old","49","3","practice_recog","too_slow","","","",""
"html-keyboard-response","121","696767","0.0-3.1-3.1-2.16-0.16","yohrjbtcjulbnzn","practice_cue","5e60c04eec276e000d83b85d","5f60e3c0a3b16e07647b2ff9","5f60f0c02605c5016e1611f5","false","null","<span style=""color: red; font-size: 48px"">Too slow!</span>","null","","","","feedback","","","","","","","","","","","","","","","",""
"html-keyboard-response","122","698771","0.0-3.1-3.1-3.16","yohrjbtcjulbnzn","practice_cue","5e60c04eec276e000d83b85d","5f60e3c0a3b16e07647b2ff9","5f60f0c02605c5016e1611f5","false","null","<div style=""align-items: center; display: flex; color: dodgerblue; font-size: 90px""><b>o</b></div>","null","","","","forget_cue","","","","","","","","","","","","","","","",""
"html-keyboard-response","123","699474","0.0-3.1-3.1-0.17","yohrjbtcjulbnzn","practice_cue","5e60c04eec276e000d83b85d","5f60e3c0a3b16e07647b2ff9","5f60f0c02605c5016e1611f5","false","null","<span style=""color: black; font-size: 48px"">N + M</span>","null","","","","resp_prompt","","","","","","","","","","","","","","","",""
"categorize-image","124","700504","0.0-3.1-3.1-1.17","yohrjbtcjulbnzn","practice_cue","5e60c04eec276e000d83b85d","5f60e3c0a3b16e07647b2ff9","5f60f0c02605c5016e1611f5","true","1019.5899999816902","./Stimuli/ImagesPractice/SN222.jpg","83","","","","test","true","N + M","83","","SN","SN222.jpg","remember","old","50","3","practice_recog","left","","","",""
"html-keyboard-response","125","702509","0.0-3.1-3.1-3.17","yohrjbtcjulbnzn","practice_cue","5e60c04eec276e000d83b85d","5f60e3c0a3b16e07647b2ff9","5f60f0c02605c5016e1611f5","false","null","<div style=""align-items: center; display: flex; color: dodgerblue; font-size: 90px""><b>o</b></div>","null","","","","forget_cue","","","","","","","","","","","","","","","",""
"html-keyboard-response","126","703212","0.0-3.1-3.1-0.18","yohrjbtcjulbnzn","practice_cue","5e60c04eec276e000d83b85d","5f60e3c0a3b16e07647b2ff9","5f60f0c02605c5016e1611f5","false","null","<span style=""color: black; font-size: 48px"">N + M</span>","null","","","","resp_prompt","","","","","","","","","","","","","","","",""
"categorize-image","127","704062","0.0-3.1-3.1-1.18","yohrjbtcjulbnzn","practice_cue","5e60c04eec276e000d83b85d","5f60e3c0a3b16e07647b2ff9","5f60f0c02605c5016e1611f5","true","839.7450000047684","./Stimuli/ImagesPractice/LM143.jpg","76","","","","test","true","N + M","76","","LM","LM143.jpg","forget","old","51","3","practice_recog","right","","","",""
"html-keyboard-response","128","706066","0.0-3.1-3.1-3.18","yohrjbtcjulbnzn","practice_cue","5e60c04eec276e000d83b85d","5f60e3c0a3b16e07647b2ff9","5f60f0c02605c5016e1611f5","false","null","<div style=""align-items: center; display: flex; color: darkorange; font-size: 90px""><b>ø</b></div>","null","","","","forget_cue","","","","","","","","","","","","","","","",""
"html-keyboard-response","129","706769","0.0-3.1-3.1-0.19","yohrjbtcjulbnzn","practice_cue","5e60c04eec276e000d83b85d","5f60e3c0a3b16e07647b2ff9","5f60f0c02605c5016e1611f5","false","null","<span style=""color: black; font-size: 48px"">M + N</span>","null","","","","resp_prompt","","","","","","","","","","","","","","","",""
"categorize-image","130","707664","0.0-3.1-3.1-1.19","yohrjbtcjulbnzn","practice_cue","5e60c04eec276e000d83b85d","5f60e3c0a3b16e07647b2ff9","5f60f0c02605c5016e1611f5","true","884.105000004638","./Stimuli/ImagesPractice/LM55.jpg","83","","","","test","true","M + N","83","","LM","LM55.jpg","forget","old","52","3","practice_recog","left","","","",""
"html-keyboard-response","131","709668","0.0-3.1-3.1-3.19","yohrjbtcjulbnzn","practice_cue","5e60c04eec276e000d83b85d","5f60e3c0a3b16e07647b2ff9","5f60f0c02605c5016e1611f5","false","null","<div style=""align-items: center; display: flex; color: darkorange; font-size: 90px""><b>ø</b></div>","null","","","","forget_cue","","","","","","","","","","","","","","","",""
"html-keyboard-response","132","710371","0.0-3.1-3.1-0.20","yohrjbtcjulbnzn","practice_cue","5e60c04eec276e000d83b85d","5f60e3c0a3b16e07647b2ff9","5f60f0c02605c5016e1611f5","false","null","<span style=""color: black; font-size: 48px"">N + M</span>","null","","","","resp_prompt","","","","","","","","","","","","","","","",""
"categorize-image","133","711570","0.0-3.1-3.1-1.20","yohrjbtcjulbnzn","practice_cue","5e60c04eec276e000d83b85d","5f60e3c0a3b16e07647b2ff9","5f60f0c02605c5016e1611f5","true","1189.0549999661744","./Stimuli/ImagesPractice/SM37.jpg","76","","","","test","true","N + M","76","","SM","SM37.jpg","remember","old","53","3","practice_recog","right","","","",""
"html-keyboard-response","134","713575","0.0-3.1-3.1-3.20","yohrjbtcjulbnzn","practice_cue","5e60c04eec276e000d83b85d","5f60e3c0a3b16e07647b2ff9","5f60f0c02605c5016e1611f5","false","null","<div style=""align-items: center; display: flex; color: dodgerblue; font-size: 90px""><b>o</b></div>","null","","","","forget_cue","","","","","","","","","","","","","","","",""
"html-keyboard-response","135","714277","0.0-3.1-3.1-0.21","yohrjbtcjulbnzn","practice_cue","5e60c04eec276e000d83b85d","5f60e3c0a3b16e07647b2ff9","5f60f0c02605c5016e1611f5","false","null","<span style=""color: black; font-size: 48px"">N + M</span>","null","","","","resp_prompt","","","","","","","","","","","","","","","",""
"categorize-image","136","714932","0.0-3.1-3.1-1.21","yohrjbtcjulbnzn","practice_cue","5e60c04eec276e000d83b85d","5f60e3c0a3b16e07647b2ff9","5f60f0c02605c5016e1611f5","true","644.7549999575131","./Stimuli/ImagesPractice/LM239.jpg","76","","","","test","true","N + M","76","","LM","LM239.jpg","forget","old","54","3","practice_recog","right","","","",""
"html-keyboard-response","137","716937","0.0-3.1-3.1-3.21","yohrjbtcjulbnzn","practice_cue","5e60c04eec276e000d83b85d","5f60e3c0a3b16e07647b2ff9","5f60f0c02605c5016e1611f5","false","null","<div style=""align-items: center; display: flex; color: darkorange; font-size: 90px""><b>ø</b></div>","null","","","","forget_cue","","","","","","","","","","","","","","","",""
"html-keyboard-response","138","717640","0.0-3.1-3.1-0.22","yohrjbtcjulbnzn","practice_cue","5e60c04eec276e000d83b85d","5f60e3c0a3b16e07647b2ff9","5f60f0c02605c5016e1611f5","false","null","<span style=""color: black; font-size: 48px"">N + M</span>","null","","","","resp_prompt","","","","","","","","","","","","","","","",""
"categorize-image","139","718405","0.0-3.1-3.1-1.22","yohrjbtcjulbnzn","practice_cue","5e60c04eec276e000d83b85d","5f60e3c0a3b16e07647b2ff9","5f60f0c02605c5016e1611f5","true","756.1700000078417","./Stimuli/ImagesPractice/SM35.jpg","76","","","","test","true","N + M","76","","SM","SM35.jpg","forget","old","55","3","practice_recog","right","","","",""
"html-keyboard-response","140","720409","0.0-3.1-3.1-3.22","yohrjbtcjulbnzn","practice_cue","5e60c04eec276e000d83b85d","5f60e3c0a3b16e07647b2ff9","5f60f0c02605c5016e1611f5","false","null","<div style=""align-items: center; display: flex; color: darkorange; font-size: 90px""><b>ø</b></div>","null","","","","forget_cue","","","","","","","","","","","","","","","",""
"html-keyboard-response","141","721112","0.0-3.1-3.1-0.23","yohrjbtcjulbnzn","practice_cue","5e60c04eec276e000d83b85d","5f60e3c0a3b16e07647b2ff9","5f60f0c02605c5016e1611f5","false","null","<span style=""color: black; font-size: 48px"">M + N</span>","null","","","","resp_prompt","","","","","","","","","","","","","","","",""
"categorize-image","142","721915","0.0-3.1-3.1-1.23","yohrjbtcjulbnzn","practice_cue","5e60c04eec276e000d83b85d","5f60e3c0a3b16e07647b2ff9","5f60f0c02605c5016e1611f5","true","792.760000040289","./Stimuli/ImagesPractice/SN205.jpg","76","","","","test","true","M + N","76","","SN","SN205.jpg","forget","old","56","3","practice_recog","right","","","",""
"html-keyboard-response","143","723918","0.0-3.1-3.1-3.23","yohrjbtcjulbnzn","practice_cue","5e60c04eec276e000d83b85d","5f60e3c0a3b16e07647b2ff9","5f60f0c02605c5016e1611f5","false","null","<div style=""align-items: center; display: flex; color: darkorange; font-size: 90px""><b>ø</b></div>","null","","","","forget_cue","","","","","","","","","","","","","","","",""
"html-keyboard-response","144","724621","0.0-3.1-3.1-0.24","yohrjbtcjulbnzn","practice_cue","5e60c04eec276e000d83b85d","5f60e3c0a3b16e07647b2ff9","5f60f0c02605c5016e1611f5","false","null","<span style=""color: black; font-size: 48px"">N + M</span>","null","","","","resp_prompt","","","","","","","","","","","","","","","",""
"categorize-image","145","725582","0.0-3.1-3.1-1.24","yohrjbtcjulbnzn","practice_cue","5e60c04eec276e000d83b85d","5f60e3c0a3b16e07647b2ff9","5f60f0c02605c5016e1611f5","true","950.7149999844842","./Stimuli/ImagesPractice/LN17.jpg","83","","","","test","true","N + M","83","","LN","LN17.jpg","forget","old","57","3","practice_recog","left","","","",""
"html-keyboard-response","146","727586","0.0-3.1-3.1-3.24","yohrjbtcjulbnzn","practice_cue","5e60c04eec276e000d83b85d","5f60e3c0a3b16e07647b2ff9","5f60f0c02605c5016e1611f5","false","null","<div style=""align-items: center; display: flex; color: darkorange; font-size: 90px""><b>ø</b></div>","null","","","","forget_cue","","","","","","","","","","","","","","","",""
"html-keyboard-response","147","728289","0.0-3.1-3.1-0.25","yohrjbtcjulbnzn","practice_cue","5e60c04eec276e000d83b85d","5f60e3c0a3b16e07647b2ff9","5f60f0c02605c5016e1611f5","false","null","<span style=""color: black; font-size: 48px"">M + N</span>","null","","","","resp_prompt","","","","","","","","","","","","","","","",""
"categorize-image","148","729096","0.0-3.1-3.1-1.25","yohrjbtcjulbnzn","practice_cue","5e60c04eec276e000d83b85d","5f60e3c0a3b16e07647b2ff9","5f60f0c02605c5016e1611f5","true","796.6400000150315","./Stimuli/ImagesPractice/LN72.jpg","76","","","","test","true","M + N","76","","LN","LN72.jpg","remember","old","58","3","practice_recog","right","","","",""
"html-keyboard-response","149","731101","0.0-3.1-3.1-3.25","yohrjbtcjulbnzn","practice_cue","5e60c04eec276e000d83b85d","5f60e3c0a3b16e07647b2ff9","5f60f0c02605c5016e1611f5","false","null","<div style=""align-items: center; display: flex; color: dodgerblue; font-size: 90px""><b>o</b></div>","null","","","","forget_cue","","","","","","","","","","","","","","","",""
"html-keyboard-response","150","731805","0.0-3.1-3.1-0.26","yohrjbtcjulbnzn","practice_cue","5e60c04eec276e000d83b85d","5f60e3c0a3b16e07647b2ff9","5f60f0c02605c5016e1611f5","false","null","<span style=""color: black; font-size: 48px"">N + M</span>","null","","","","resp_prompt","","","","","","","","","","","","","","","",""
"categorize-image","151","732653","0.0-3.1-3.1-1.26","yohrjbtcjulbnzn","practice_cue","5e60c04eec276e000d83b85d","5f60e3c0a3b16e07647b2ff9","5f60f0c02605c5016e1611f5","true","839.6100000245497","./Stimuli/ImagesPractice/LN2.jpg","83","","","","test","true","N + M","83","","LN","LN2.jpg","remember","old","59","3","practice_recog","left","","","",""
"html-keyboard-response","152","734657","0.0-3.1-3.1-3.26","yohrjbtcjulbnzn","practice_cue","5e60c04eec276e000d83b85d","5f60e3c0a3b16e07647b2ff9","5f60f0c02605c5016e1611f5","false","null","<div style=""align-items: center; display: flex; color: dodgerblue; font-size: 90px""><b>o</b></div>","null","","","","forget_cue","","","","","","","","","","","","","","","",""
"html-keyboard-response","153","735360","0.0-3.1-3.1-0.27","yohrjbtcjulbnzn","practice_cue","5e60c04eec276e000d83b85d","5f60e3c0a3b16e07647b2ff9","5f60f0c02605c5016e1611f5","false","null","<span style=""color: black; font-size: 48px"">M + N</span>","null","","","","resp_prompt","","","","","","","","","","","","","","","",""
"categorize-image","154","736292","0.0-3.1-3.1-1.27","yohrjbtcjulbnzn","practice_cue","5e60c04eec276e000d83b85d","5f60e3c0a3b16e07647b2ff9","5f60f0c02605c5016e1611f5","true","920.7549999700859","./Stimuli/ImagesPractice/LN109.jpg","76","","","","test","true","M + N","76","","LN","LN109.jpg","forget","old","60","3","practice_recog","right","","","",""
"html-keyboard-response","155","738295","0.0-3.1-3.1-3.27","yohrjbtcjulbnzn","practice_cue","5e60c04eec276e000d83b85d","5f60e3c0a3b16e07647b2ff9","5f60f0c02605c5016e1611f5","false","null","<div style=""align-items: center; display: flex; color: darkorange; font-size: 90px""><b>ø</b></div>","null","","","","forget_cue","","","","","","","","","","","","","","","",""
"html-keyboard-response","156","738999","0.0-3.1-3.1-0.28","yohrjbtcjulbnzn","practice_cue","5e60c04eec276e000d83b85d","5f60e3c0a3b16e07647b2ff9","5f60f0c02605c5016e1611f5","false","null","<span style=""color: black; font-size: 48px"">N + M</span>","null","","","","resp_prompt","","","","","","","","","","","","","","","",""
"categorize-image","157","739706","0.0-3.1-3.1-1.28","yohrjbtcjulbnzn","practice_cue","5e60c04eec276e000d83b85d","5f60e3c0a3b16e07647b2ff9","5f60f0c02605c5016e1611f5","true","697.1350000239909","./Stimuli/ImagesPractice/LN4.jpg","83","","","","test","true","N + M","83","","LN","LN4.jpg","remember","old","61","3","practice_recog","left","","","",""
"html-keyboard-response","158","741711","0.0-3.1-3.1-3.28","yohrjbtcjulbnzn","practice_cue","5e60c04eec276e000d83b85d","5f60e3c0a3b16e07647b2ff9","5f60f0c02605c5016e1611f5","false","null","<div style=""align-items: center; display: flex; color: dodgerblue; font-size: 90px""><b>o</b></div>","null","","","","forget_cue","","","","","","","","","","","","","","","",""
"html-keyboard-response","159","742413","0.0-3.1-3.1-0.29","yohrjbtcjulbnzn","practice_cue","5e60c04eec276e000d83b85d","5f60e3c0a3b16e07647b2ff9","5f60f0c02605c5016e1611f5","false","null","<span style=""color: black; font-size: 48px"">M + N</span>","null","","","","resp_prompt","","","","","","","","","","","","","","","",""
"categorize-image","160","743298","0.0-3.1-3.1-1.29","yohrjbtcjulbnzn","practice_cue","5e60c04eec276e000d83b85d","5f60e3c0a3b16e07647b2ff9","5f60f0c02605c5016e1611f5","true","875.2000000094995","./Stimuli/ImagesPractice/SM98.jpg","83","","","","test","true","M + N","83","","SM","SM98.jpg","remember","old","62","3","practice_recog","left","","","",""
"html-keyboard-response","161","745302","0.0-3.1-3.1-3.29","yohrjbtcjulbnzn","practice_cue","5e60c04eec276e000d83b85d","5f60e3c0a3b16e07647b2ff9","5f60f0c02605c5016e1611f5","false","null","<div style=""align-items: center; display: flex; color: dodgerblue; font-size: 90px""><b>o</b></div>","null","","","","forget_cue","","","","","","","","","","","","","","","",""
"html-keyboard-response","162","746005","0.0-3.1-3.1-0.30","yohrjbtcjulbnzn","practice_cue","5e60c04eec276e000d83b85d","5f60e3c0a3b16e07647b2ff9","5f60f0c02605c5016e1611f5","false","null","<span style=""color: black; font-size: 48px"">M + N</span>","null","","","","resp_prompt","","","","","","","","","","","","","","","",""
"categorize-image","163","746791","0.0-3.1-3.1-1.30","yohrjbtcjulbnzn","practice_cue","5e60c04eec276e000d83b85d","5f60e3c0a3b16e07647b2ff9","5f60f0c02605c5016e1611f5","true","776.1049999971874","./Stimuli/ImagesPractice/SM61.jpg","83","","","","test","true","M + N","83","","SM","SM61.jpg","forget","old","63","3","practice_recog","left","","","",""
"html-keyboard-response","164","748794","0.0-3.1-3.1-3.30","yohrjbtcjulbnzn","practice_cue","5e60c04eec276e000d83b85d","5f60e3c0a3b16e07647b2ff9","5f60f0c02605c5016e1611f5","false","null","<div style=""align-items: center; display: flex; color: darkorange; font-size: 90px""><b>ø</b></div>","null","","","","forget_cue","","","","","","","","","","","","","","","",""
"html-keyboard-response","165","749498","0.0-3.1-3.1-0.31","yohrjbtcjulbnzn","practice_cue","5e60c04eec276e000d83b85d","5f60e3c0a3b16e07647b2ff9","5f60f0c02605c5016e1611f5","false","null","<span style=""color: black; font-size: 48px"">M + N</span>","null","","","","resp_prompt","","","","","","","","","","","","","","","",""
"categorize-image","166","750240","0.0-3.1-3.1-1.31","yohrjbtcjulbnzn","practice_cue","5e60c04eec276e000d83b85d","5f60e3c0a3b16e07647b2ff9","5f60f0c02605c5016e1611f5","true","733.7000000406988","./Stimuli/ImagesPractice/SN220.jpg","76","","","","test","true","M + N","76","","SN","SN220.jpg","remember","old","64","3","practice_recog","right","","","",""
"html-keyboard-response","167","752244","0.0-3.1-3.1-3.31","yohrjbtcjulbnzn","practice_cue","5e60c04eec276e000d83b85d","5f60e3c0a3b16e07647b2ff9","5f60f0c02605c5016e1611f5","false","null","<div style=""align-items: center; display: flex; color: dodgerblue; font-size: 90px""><b>o</b></div>","null","","","","forget_cue","","","","","","","","","","","","","","","",""
"html-keyboard-response","168","756082","0.0-3.1-4.1","yohrjbtcjulbnzn","break","5e60c04eec276e000d83b85d","5f60e3c0a3b16e07647b2ff9","5f60f0c02605c5016e1611f5","false","3833.1100000068545","<p style='font-size: 32px;'>Break</><br><br><br><br><br><p style='font-size: 24px;'>In the last block, you committed 0 errors and did not respond in time on 1 trials.
</p><p style='font-size: 24px;'>Try to respond as fast and accurately as possible in the next block as well! </p><p style='font-size: 24px;'>Press SPACE to continue.</p>","32","","","","","","","","","","","","","","","","","","","",""
"html-keyboard-response","169","766111","0.0-3.1-5.1","yohrjbtcjulbnzn","instructions","5e60c04eec276e000d83b85d","5f60e3c0a3b16e07647b2ff9","5f60f0c02605c5016e1611f5","false","10025.284999981523","<div align=left> Now, to practice, we kindly ask you to remember as many of the to-be-remembered pictures<br>of the previous learning phase as possible.<br><br>The pictures you were instructed to remember were the pictures followed by a <span style='color: dodgerblue; font-size: 28px'>O</span>.<br><br>In this memory test phase, you will also see some new pictures.<br>It is your task to remember whether you were presented with this specific picture in this study so far or not.<br>If you recognize an object (you have already seen it in this study), it is an OLD object. <br>If you do not recognize an object (you have NOT seen it in this study), it is a NEW object. <br><strong> Attention</strong>: As already mentioned, <span style='color: darkorange; font-size:28px'>Ø</span>-pictures will <strong>never</strong> appear in this memory test (neither as new objects). <br><br>Press SPACE to continue. </div>","32","","","","","","","","","","","","","","","","","","","",""
"html-keyboard-response","170","788428","0.0-3.1-6.1","yohrjbtcjulbnzn","instructions","5e60c04eec276e000d83b85d","5f60e3c0a3b16e07647b2ff9","5f60f0c02605c5016e1611f5","false","22312.694999971427","<div align=left> M and N no longer will appear on the left/right of the fixation cross. <br>Instead there will be a note at the bottom of the left or right side  <br>indicating which key you should press for an old or new object:  <br> <br>Press the <strong>right</strong> key to classify an object as <strong>old</strong> and press the <strong>left</strong>, to classify an object as <strong>new</strong>.<br>Please classify the objects as new/old by again placing your index finger on the 'S' and 'L' keys <br>and press them accordingly.<br><br><strong>Old:</strong> This object has been presented before. <br><strong>New:</strong> This object has <strong>not</strong> been presented.<br><br>Now please put your right and left index fingers on the 'S' and 'L' keys of your keyboard. <br>Please respond as fast and as accurately as possible!<br><br>Press SPACE to continue. </div>","32","","","","","","","","","","","","","","","","","","","",""
"categorize-image","171","790181","0.0-3.1-7.1-0.16","yohrjbtcjulbnzn","practice_recog","5e60c04eec276e000d83b85d","5f60e3c0a3b16e07647b2ff9","5f60f0c02605c5016e1611f5","true","1243.155000032857","./Stimuli/ImagesPractice/SN75.jpg","76","","","","test","false","","83","","SN","SN75.jpg","","old","65","4","practice_recog","right","","","",""
"categorize-image","172","791553","0.0-3.1-7.1-0.17","yohrjbtcjulbnzn","practice_recog","5e60c04eec276e000d83b85d","5f60e3c0a3b16e07647b2ff9","5f60f0c02605c5016e1611f5","true","864.8950000060722","./Stimuli/ImagesPractice/LN15.jpg","76","","","","test","true","","76","","LN","LN15.jpg","","new","66","4","practice_recog","right","","","",""
"categorize-image","173","792907","0.0-3.1-7.1-0.18","yohrjbtcjulbnzn","practice_recog","5e60c04eec276e000d83b85d","5f60e3c0a3b16e07647b2ff9","5f60f0c02605c5016e1611f5","true","832.5249999761581","./Stimuli/ImagesPractice/SM97.jpg","76","","","","test","true","","76","","SM","SM97.jpg","","new","67","4","practice_recog","right","","","",""
"categorize-image","174","794394","0.0-3.1-7.1-0.19","yohrjbtcjulbnzn","practice_recog","5e60c04eec276e000d83b85d","5f60e3c0a3b16e07647b2ff9","5f60f0c02605c5016e1611f5","true","980.7349999900907","./Stimuli/ImagesPractice/SM37.jpg","76","","","","test","false","","83","","SM","SM37.jpg","","old","68","4","practice_recog","right","","","",""
"categorize-image","175","796298","0.0-3.1-7.1-0.20","yohrjbtcjulbnzn","practice_recog","5e60c04eec276e000d83b85d","5f60e3c0a3b16e07647b2ff9","5f60f0c02605c5016e1611f5","true","1400.6350000272505","./Stimuli/ImagesPractice/SN221.jpg","76","","","","test","true","","76","","SN","SN221.jpg","","new","69","4","practice_recog","right","","","",""
"categorize-image","176","797572","0.0-3.1-7.1-0.21","yohrjbtcjulbnzn","practice_recog","5e60c04eec276e000d83b85d","5f60e3c0a3b16e07647b2ff9","5f60f0c02605c5016e1611f5","true","766.1649999790825","./Stimuli/ImagesPractice/LM224.jpg","76","","","","test","true","","76","","LM","LM224.jpg","","new","70","4","practice_recog","right","","","",""
"categorize-image","177","799123","0.0-3.1-7.1-0.22","yohrjbtcjulbnzn","practice_recog","5e60c04eec276e000d83b85d","5f60e3c0a3b16e07647b2ff9","5f60f0c02605c5016e1611f5","true","1044.4949999800883","./Stimuli/ImagesPractice/LM230.jpg","76","","","","test","true","","76","","LM","LM230.jpg","","new","71","4","practice_recog","right","","","",""
"categorize-image","178","800590","0.0-3.1-7.1-0.23","yohrjbtcjulbnzn","practice_recog","5e60c04eec276e000d83b85d","5f60e3c0a3b16e07647b2ff9","5f60f0c02605c5016e1611f5","true","959.6850000089034","./Stimuli/ImagesPractice/SN76.jpg","76","","","","test","true","","76","","SN","SN76.jpg","","new","72","4","practice_recog","right","","","",""
"categorize-image","179","802281","0.0-3.1-7.1-0.24","yohrjbtcjulbnzn","practice_recog","5e60c04eec276e000d83b85d","5f60e3c0a3b16e07647b2ff9","5f60f0c02605c5016e1611f5","true","1184.705000021495","./Stimuli/ImagesPractice/SN222.jpg","83","","","","test","true","","83","","SN","SN222.jpg","","old","73","4","practice_recog","left","","","",""
"categorize-image","180","803621","0.0-3.1-7.1-0.25","yohrjbtcjulbnzn","practice_recog","5e60c04eec276e000d83b85d","5f60e3c0a3b16e07647b2ff9","5f60f0c02605c5016e1611f5","true","832.55500002997","./Stimuli/ImagesPractice/LN72.jpg","83","","","","test","true","","83","","LN","LN72.jpg","","old","74","4","practice_recog","left","","","",""
"categorize-image","181","805068","0.0-3.1-7.1-0.26","yohrjbtcjulbnzn","practice_recog","5e60c04eec276e000d83b85d","5f60e3c0a3b16e07647b2ff9","5f60f0c02605c5016e1611f5","true","940.9250000026077","./Stimuli/ImagesPractice/SM62.jpg","76","","","","test","true","","76","","SM","SM62.jpg","","new","75","4","practice_recog","right","","","",""
"categorize-image","182","806914","0.0-3.1-7.1-0.27","yohrjbtcjulbnzn","practice_recog","5e60c04eec276e000d83b85d","5f60e3c0a3b16e07647b2ff9","5f60f0c02605c5016e1611f5","true","1337.0299999951385","./Stimuli/ImagesPractice/SM98.jpg","83","","","","test","true","","83","","SM","SM98.jpg","","old","76","4","practice_recog","left","","","",""
"categorize-image","183","808375","0.0-3.1-7.1-0.28","yohrjbtcjulbnzn","practice_recog","5e60c04eec276e000d83b85d","5f60e3c0a3b16e07647b2ff9","5f60f0c02605c5016e1611f5","true","954.3000000412576","./Stimuli/ImagesPractice/LN2.jpg","83","","","","test","true","","83","","LN","LN2.jpg","","old","77","4","practice_recog","left","","","",""
"categorize-image","184","809543","0.0-3.1-7.1-0.29","yohrjbtcjulbnzn","practice_recog","5e60c04eec276e000d83b85d","5f60e3c0a3b16e07647b2ff9","5f60f0c02605c5016e1611f5","true","661.420000018552","./Stimuli/ImagesPractice/LN4.jpg","83","","","","test","true","","83","","LN","LN4.jpg","","old","78","4","practice_recog","left","","","",""
"categorize-image","185","811123","0.0-3.1-7.1-0.30","yohrjbtcjulbnzn","practice_recog","5e60c04eec276e000d83b85d","5f60e3c0a3b16e07647b2ff9","5f60f0c02605c5016e1611f5","true","1074.6650000219233","./Stimuli/ImagesPractice/LM147.jpg","76","","","","test","true","","76","","LM","LM147.jpg","","new","79","4","practice_recog","right","","","",""
"categorize-image","186","814505","0.0-3.1-7.1-0.31","yohrjbtcjulbnzn","practice_recog","5e60c04eec276e000d83b85d","5f60e3c0a3b16e07647b2ff9","5f60f0c02605c5016e1611f5","true","2874.710000003688","./Stimuli/ImagesPractice/SN220.jpg","83","","","","test","true","","83","","SN","SN220.jpg","","old","80","4","practice_recog","left","","","",""
"html-keyboard-response","187","826289","0.0-3.1-8.1","yohrjbtcjulbnzn","instructions","5e60c04eec276e000d83b85d","5f60e3c0a3b16e07647b2ff9","5f60f0c02605c5016e1611f5","false","11780.144999967888","<div align=left> Great!<br><br>Are you ready to continue?<br>If you want to reread the instructions and redo the practice trials, please <br>press „Z“.<br><br>You can proceed when you are ready.<br><br>After the presentation of each object, you will receive an instruction whether to <br>remember or to forget the object.<br>We will test your memory of the following pictures only at the very end of <br>the experiment after all learning blocks are completed. <br><br>Press SPACE to CONTINUE when you are ready. </div>","32","","","","","","","","","","","","","","","","","","","",""
"html-keyboard-response","188","832900","0.0-4.0-0.0","yohrjbtcjulbnzn","instructions","5e60c04eec276e000d83b85d","5f60e3c0a3b16e07647b2ff9","5f60f0c02605c5016e1611f5","false","6606.514999992214","<div align=left> The actual experiment is about to start.<br>The practice trials are over!<br><br>Please always respond both fast and accurately!<br><br>Remember: <br> <br><li> Please place your index fingers on the <strong>'S'</strong> and <strong>'L'</strong> keys <br>to respond as fast and accurately as possible.</li><li> Every picture can be classified as either mechanical or non-mechanical.</li><li> If you do not respond in time or commit an error, you will receive a corresponding feedback.<br> Please try to respond as <strong> fast </strong> and as <strong> accurately as possible </strong>.</li><li> Remember the <span style='color: dodgerblue; font-size: 28px'>O</span> pictures. <br></li><li> Please minimize distractions and stay focused. </li><br><br>Press SPACE to START.</div>","32","","","","","","","","","","","","","","","","","","","",""
"html-keyboard-response","189","833605","0.0-4.0-1.0-0.0","yohrjbtcjulbnzn","prime","5e60c04eec276e000d83b85d","5f60e3c0a3b16e07647b2ff9","5f60f0c02605c5016e1611f5","false","null","<span style=""color: black; font-size: 48px"">M + N</span>","null","","","","resp_prompt","","","","","","","","","","","","","","","",""
"categorize-image","190","835605","0.0-4.0-1.0-1.0","yohrjbtcjulbnzn","prime","5e60c04eec276e000d83b85d","5f60e3c0a3b16e07647b2ff9","5f60f0c02605c5016e1611f5","true","1988.3849999750964","./Stimuli/SelectedImages/SN/SN179.bmp","76","","","","test","true","M + N","76","repetition","SN","SN179.bmp","forget","","81","4","prime1","right","","","",""
"html-keyboard-response","191","837608","0.0-4.0-1.0-3.0","yohrjbtcjulbnzn","prime","5e60c04eec276e000d83b85d","5f60e3c0a3b16e07647b2ff9","5f60f0c02605c5016e1611f5","false","null","<div style=""align-items: center; display: flex; color: darkorange; font-size: 90px""><b>ø</b></div>","null","","","","forget_cue","","","","","","","","","","","","","","","",""
"html-keyboard-response","192","838312","0.0-4.0-1.0-0.1","yohrjbtcjulbnzn","prime","5e60c04eec276e000d83b85d","5f60e3c0a3b16e07647b2ff9","5f60f0c02605c5016e1611f5","false","null","<span style=""color: black; font-size: 48px"">N + M</span>","null","","","","resp_prompt","","","","","","","","","","","","","","","",""
"categorize-image","193","839119","0.0-4.0-1.0-1.1","yohrjbtcjulbnzn","prime","5e60c04eec276e000d83b85d","5f60e3c0a3b16e07647b2ff9","5f60f0c02605c5016e1611f5","true","795.9350000019185","./Stimuli/SelectedImages/SN/SN155.bmp","83","","","","test","true","N + M","83","switch","SN","SN155.bmp","remember","","82","4","prime1","left","","","",""
"html-keyboard-response","194","841123","0.0-4.0-1.0-3.1","yohrjbtcjulbnzn","prime","5e60c04eec276e000d83b85d","5f60e3c0a3b16e07647b2ff9","5f60f0c02605c5016e1611f5","false","null","<div style=""align-items: center; display: flex; color: dodgerblue; font-size: 90px""><b>o</b></div>","null","","","","forget_cue","","","","","","","","","","","","","","","",""
"html-keyboard-response","195","841827","0.0-4.0-1.0-0.2","yohrjbtcjulbnzn","prime","5e60c04eec276e000d83b85d","5f60e3c0a3b16e07647b2ff9","5f60f0c02605c5016e1611f5","false","null","<span style=""color: black; font-size: 48px"">M + N</span>","null","","","","resp_prompt","","","","","","","","","","","","","","","",""
"categorize-image","196","843037","0.0-4.0-1.0-1.2","yohrjbtcjulbnzn","prime","5e60c04eec276e000d83b85d","5f60e3c0a3b16e07647b2ff9","5f60f0c02605c5016e1611f5","true","1201.1850000126287","./Stimuli/SelectedImages/LM/LM216.bmp","83","","","","test","true","M + N","83","repetition","LM","LM216.bmp","forget","","83","4","prime1","left","","","",""
"html-keyboard-response","197","845042","0.0-4.0-1.0-3.2","yohrjbtcjulbnzn","prime","5e60c04eec276e000d83b85d","5f60e3c0a3b16e07647b2ff9","5f60f0c02605c5016e1611f5","false","null","<div style=""align-items: center; display: flex; color: darkorange; font-size: 90px""><b>ø</b></div>","null","","","","forget_cue","","","","","","","","","","","","","","","",""
"html-keyboard-response","198","845745","0.0-4.0-1.0-0.3","yohrjbtcjulbnzn","prime","5e60c04eec276e000d83b85d","5f60e3c0a3b16e07647b2ff9","5f60f0c02605c5016e1611f5","false","null","<span style=""color: black; font-size: 48px"">N + M</span>","null","","","","resp_prompt","","","","","","","","","","","","","","","",""
"categorize-image","199","847205","0.0-4.0-1.0-1.3","yohrjbtcjulbnzn","prime","5e60c04eec276e000d83b85d","5f60e3c0a3b16e07647b2ff9","5f60f0c02605c5016e1611f5","true","1451.1899999924935","./Stimuli/SelectedImages/LN/LN28.bmp","83","","","","test","true","N + M","83","switch","LN","LN28.bmp","remember","","84","4","prime1","left","","","",""
"html-keyboard-response","200","849211","0.0-4.0-1.0-3.3","yohrjbtcjulbnzn","prime","5e60c04eec276e000d83b85d","5f60e3c0a3b16e07647b2ff9","5f60f0c02605c5016e1611f5","false","null","<div style=""align-items: center; display: flex; color: dodgerblue; font-size: 90px""><b>o</b></div>","null","","","","forget_cue","","","","","","","","","","","","","","","",""
"html-keyboard-response","201","849915","0.0-4.0-1.0-0.4","yohrjbtcjulbnzn","prime","5e60c04eec276e000d83b85d","5f60e3c0a3b16e07647b2ff9","5f60f0c02605c5016e1611f5","false","null","<span style=""color: black; font-size: 48px"">N + M</span>","null","","","","resp_prompt","","","","","","","","","","","","","","","",""
"categorize-image","202","850984","0.0-4.0-1.0-1.4","yohrjbtcjulbnzn","prime","5e60c04eec276e000d83b85d","5f60e3c0a3b16e07647b2ff9","5f60f0c02605c5016e1611f5","true","1057.6599999913014","./Stimuli/SelectedImages/SM/SM73.bmp","83","","","","test","false","N + M","76","switch","SM","SM73.bmp","forget","","85","4","prime1","left","","","",""
"html-keyboard-response","203","851488","0.0-4.0-1.0-2.4-0.4","yohrjbtcjulbnzn","prime","5e60c04eec276e000d83b85d","5f60e3c0a3b16e07647b2ff9","5f60f0c02605c5016e1611f5","false","null","<span style=""color: red; font-size: 48px"">Error!</span>","null","","","","feedback","","","","","","","","","","","","","","","",""
"html-keyboard-response","204","853492","0.0-4.0-1.0-3.4","yohrjbtcjulbnzn","prime","5e60c04eec276e000d83b85d","5f60e3c0a3b16e07647b2ff9","5f60f0c02605c5016e1611f5","false","null","<div style=""align-items: center; display: flex; color: darkorange; font-size: 90px""><b>ø</b></div>","null","","","","forget_cue","","","","","","","","","","","","","","","",""
"html-keyboard-response","205","854199","0.0-4.0-1.0-0.5","yohrjbtcjulbnzn","prime","5e60c04eec276e000d83b85d","5f60e3c0a3b16e07647b2ff9","5f60f0c02605c5016e1611f5","false","null","<span style=""color: black; font-size: 48px"">M + N</span>","null","","","","resp_prompt","","","","","","","","","","","","","","","",""
"categorize-image","206","855137","0.0-4.0-1.0-1.5","yohrjbtcjulbnzn","prime","5e60c04eec276e000d83b85d","5f60e3c0a3b16e07647b2ff9","5f60f0c02605c5016e1611f5","true","926.8700000247918","./Stimuli/SelectedImages/LN/LN101.bmp","76","","","","test","true","M + N","76","switch","LN","LN101.bmp","remember","","86","4","prime1","right","","","",""
"html-keyboard-response","207","857142","0.0-4.0-1.0-3.5","yohrjbtcjulbnzn","prime","5e60c04eec276e000d83b85d","5f60e3c0a3b16e07647b2ff9","5f60f0c02605c5016e1611f5","false","null","<div style=""align-items: center; display: flex; color: dodgerblue; font-size: 90px""><b>o</b></div>","null","","","","forget_cue","","","","","","","","","","","","","","","",""
"html-keyboard-response","208","857846","0.0-4.0-1.0-0.6","yohrjbtcjulbnzn","prime","5e60c04eec276e000d83b85d","5f60e3c0a3b16e07647b2ff9","5f60f0c02605c5016e1611f5","false","null","<span style=""color: black; font-size: 48px"">M + N</span>","null","","","","resp_prompt","","","","","","","","","","","","","","","",""
"categorize-image","209","858703","0.0-4.0-1.0-1.6","yohrjbtcjulbnzn","prime","5e60c04eec276e000d83b85d","5f60e3c0a3b16e07647b2ff9","5f60f0c02605c5016e1611f5","true","845.534999971278","./Stimuli/SelectedImages/LN/LN9.bmp","76","","","","test","true","M + N","76","switch","LN","LN9.bmp","remember","","87","4","prime1","right","","","",""
"html-keyboard-response","210","860708","0.0-4.0-1.0-3.6","yohrjbtcjulbnzn","prime","5e60c04eec276e000d83b85d","5f60e3c0a3b16e07647b2ff9","5f60f0c02605c5016e1611f5","false","null","<div style=""align-items: center; display: flex; color: dodgerblue; font-size: 90px""><b>o</b></div>","null","","","","forget_cue","","","","","","","","","","","","","","","",""
"html-keyboard-response","211","861412","0.0-4.0-1.0-0.7","yohrjbtcjulbnzn","prime","5e60c04eec276e000d83b85d","5f60e3c0a3b16e07647b2ff9","5f60f0c02605c5016e1611f5","false","null","<span style=""color: black; font-size: 48px"">M + N</span>","null","","","","resp_prompt","","","","","","","","","","","","","","","",""
"categorize-image","212","862126","0.0-4.0-1.0-1.7","yohrjbtcjulbnzn","prime","5e60c04eec276e000d83b85d","5f60e3c0a3b16e07647b2ff9","5f60f0c02605c5016e1611f5","true","704.314999980852","./Stimuli/SelectedImages/LN/LN42.bmp","76","","","","test","true","M + N","76","repetition","LN","LN42.bmp","forget","","88","4","prime1","right","","","",""
"html-keyboard-response","213","864131","0.0-4.0-1.0-3.7","yohrjbtcjulbnzn","prime","5e60c04eec276e000d83b85d","5f60e3c0a3b16e07647b2ff9","5f60f0c02605c5016e1611f5","false","null","<div style=""align-items: center; display: flex; color: darkorange; font-size: 90px""><b>ø</b></div>","null","","","","forget_cue","","","","","","","","","","","","","","","",""
"html-keyboard-response","214","864835","0.0-4.0-1.0-0.8","yohrjbtcjulbnzn","prime","5e60c04eec276e000d83b85d","5f60e3c0a3b16e07647b2ff9","5f60f0c02605c5016e1611f5","false","null","<span style=""color: black; font-size: 48px"">N + M</span>","null","","","","resp_prompt","","","","","","","","","","","","","","","",""
"categorize-image","215","865910","0.0-4.0-1.0-1.8","yohrjbtcjulbnzn","prime","5e60c04eec276e000d83b85d","5f60e3c0a3b16e07647b2ff9","5f60f0c02605c5016e1611f5","true","1064.9449999909848","./Stimuli/SelectedImages/LM/LM48.bmp","76","","","","test","true","N + M","76","switch","LM","LM48.bmp","remember","","89","4","prime1","right","","","",""
"html-keyboard-response","216","867914","0.0-4.0-1.0-3.8","yohrjbtcjulbnzn","prime","5e60c04eec276e000d83b85d","5f60e3c0a3b16e07647b2ff9","5f60f0c02605c5016e1611f5","false","null","<div style=""align-items: center; display: flex; color: dodgerblue; font-size: 90px""><b>o</b></div>","null","","","","forget_cue","","","","","","","","","","","","","","","",""
"html-keyboard-response","217","868618","0.0-4.0-1.0-0.9","yohrjbtcjulbnzn","prime","5e60c04eec276e000d83b85d","5f60e3c0a3b16e07647b2ff9","5f60f0c02605c5016e1611f5","false","null","<span style=""color: black; font-size: 48px"">N + M</span>","null","","","","resp_prompt","","","","","","","","","","","","","","","",""
"categorize-image","218","869352","0.0-4.0-1.0-1.9","yohrjbtcjulbnzn","prime","5e60c04eec276e000d83b85d","5f60e3c0a3b16e07647b2ff9","5f60f0c02605c5016e1611f5","true","726.0200000018813","./Stimuli/SelectedImages/LN/LN177.bmp","83","","","","test","true","N + M","83","repetition","LN","LN177.bmp","remember","","90","4","prime1","left","","","",""
"html-keyboard-response","219","871355","0.0-4.0-1.0-3.9","yohrjbtcjulbnzn","prime","5e60c04eec276e000d83b85d","5f60e3c0a3b16e07647b2ff9","5f60f0c02605c5016e1611f5","false","null","<div style=""align-items: center; display: flex; color: dodgerblue; font-size: 90px""><b>o</b></div>","null","","","","forget_cue","","","","","","","","","","","","","","","",""
"html-keyboard-response","220","872058","0.0-4.0-1.0-0.10","yohrjbtcjulbnzn","prime","5e60c04eec276e000d83b85d","5f60e3c0a3b16e07647b2ff9","5f60f0c02605c5016e1611f5","false","null","<span style=""color: black; font-size: 48px"">N + M</span>","null","","","","resp_prompt","","","","","","","","","","","","","","","",""
"categorize-image","221","872898","0.0-4.0-1.0-1.10","yohrjbtcjulbnzn","prime","5e60c04eec276e000d83b85d","5f60e3c0a3b16e07647b2ff9","5f60f0c02605c5016e1611f5","true","830.7149999891408","./Stimuli/SelectedImages/SM/SM78.bmp","76","","","","test","true","N + M","76","repetition","SM","SM78.bmp","forget","","91","4","prime1","right","","","",""
"html-keyboard-response","222","874902","0.0-4.0-1.0-3.10","yohrjbtcjulbnzn","prime","5e60c04eec276e000d83b85d","5f60e3c0a3b16e07647b2ff9","5f60f0c02605c5016e1611f5","false","null","<div style=""align-items: center; display: flex; color: darkorange; font-size: 90px""><b>ø</b></div>","null","","","","forget_cue","","","","","","","","","","","","","","","",""
"html-keyboard-response","223","875605","0.0-4.0-1.0-0.11","yohrjbtcjulbnzn","prime","5e60c04eec276e000d83b85d","5f60e3c0a3b16e07647b2ff9","5f60f0c02605c5016e1611f5","false","null","<span style=""color: black; font-size: 48px"">M + N</span>","null","","","","resp_prompt","","","","","","","","","","","","","","","",""
"categorize-image","224","876999","0.0-4.0-1.0-1.11","yohrjbtcjulbnzn","prime","5e60c04eec276e000d83b85d","5f60e3c0a3b16e07647b2ff9","5f60f0c02605c5016e1611f5","true","1382.0899999700487","./Stimuli/SelectedImages/LN/LN149.bmp","83","","","","test","false","M + N","76","switch","LN","LN149.bmp","forget","","92","4","prime1","left","","","",""
"html-keyboard-response","225","877503","0.0-4.0-1.0-2.11-0.11","yohrjbtcjulbnzn","prime","5e60c04eec276e000d83b85d","5f60e3c0a3b16e07647b2ff9","5f60f0c02605c5016e1611f5","false","null","<span style=""color: red; font-size: 48px"">Error!</span>","null","","","","feedback","","","","","","","","","","","","","","","",""
"html-keyboard-response","226","879506","0.0-4.0-1.0-3.11","yohrjbtcjulbnzn","prime","5e60c04eec276e000d83b85d","5f60e3c0a3b16e07647b2ff9","5f60f0c02605c5016e1611f5","false","null","<div style=""align-items: center; display: flex; color: darkorange; font-size: 90px""><b>ø</b></div>","null","","","","forget_cue","","","","","","","","","","","","","","","",""
"html-keyboard-response","227","880209","0.0-4.0-1.0-0.12","yohrjbtcjulbnzn","prime","5e60c04eec276e000d83b85d","5f60e3c0a3b16e07647b2ff9","5f60f0c02605c5016e1611f5","false","null","<span style=""color: black; font-size: 48px"">M + N</span>","null","","","","resp_prompt","","","","","","","","","","","","","","","",""
"categorize-image","228","881263","0.0-4.0-1.0-1.12","yohrjbtcjulbnzn","prime","5e60c04eec276e000d83b85d","5f60e3c0a3b16e07647b2ff9","5f60f0c02605c5016e1611f5","true","1043.3349999948405","./Stimuli/SelectedImages/LM/LM129.bmp","83","","","","test","true","M + N","83","repetition","LM","LM129.bmp","forget","","93","4","prime1","left","","","",""
"html-keyboard-response","229","883267","0.0-4.0-1.0-3.12","yohrjbtcjulbnzn","prime","5e60c04eec276e000d83b85d","5f60e3c0a3b16e07647b2ff9","5f60f0c02605c5016e1611f5","false","null","<div style=""align-items: center; display: flex; color: darkorange; font-size: 90px""><b>ø</b></div>","null","","","","forget_cue","","","","","","","","","","","","","","","",""
"html-keyboard-response","230","883970","0.0-4.0-1.0-0.13","yohrjbtcjulbnzn","prime","5e60c04eec276e000d83b85d","5f60e3c0a3b16e07647b2ff9","5f60f0c02605c5016e1611f5","false","null","<span style=""color: black; font-size: 48px"">M + N</span>","null","","","","resp_prompt","","","","","","","","","","","","","","","",""
"categorize-image","231","884842","0.0-4.0-1.0-1.13","yohrjbtcjulbnzn","prime","5e60c04eec276e000d83b85d","5f60e3c0a3b16e07647b2ff9","5f60f0c02605c5016e1611f5","true","862.5400000018999","./Stimuli/SelectedImages/LM/LM57.bmp","83","","","","test","true","M + N","83","switch","LM","LM57.bmp","remember","","94","4","prime1","left","","","",""
"html-keyboard-response","232","886846","0.0-4.0-1.0-3.13","yohrjbtcjulbnzn","prime","5e60c04eec276e000d83b85d","5f60e3c0a3b16e07647b2ff9","5f60f0c02605c5016e1611f5","false","null","<div style=""align-items: center; display: flex; color: dodgerblue; font-size: 90px""><b>o</b></div>","null","","","","forget_cue","","","","","","","","","","","","","","","",""
"html-keyboard-response","233","887552","0.0-4.0-1.0-0.14","yohrjbtcjulbnzn","prime","5e60c04eec276e000d83b85d","5f60e3c0a3b16e07647b2ff9","5f60f0c02605c5016e1611f5","false","null","<span style=""color: black; font-size: 48px"">N + M</span>","null","","","","resp_prompt","","","","","","","","","","","","","","","",""
"categorize-image","234","888476","0.0-4.0-1.0-1.14","yohrjbtcjulbnzn","prime","5e60c04eec276e000d83b85d","5f60e3c0a3b16e07647b2ff9","5f60f0c02605c5016e1611f5","true","914.8849999764934","./Stimuli/SelectedImages/LN/LN92.bmp","76","","","","test","false","N + M","83","switch","LN","LN92.bmp","forget","","95","4","prime1","right","","","",""
"html-keyboard-response","235","888981","0.0-4.0-1.0-2.14-0.14","yohrjbtcjulbnzn","prime","5e60c04eec276e000d83b85d","5f60e3c0a3b16e07647b2ff9","5f60f0c02605c5016e1611f5","false","null","<span style=""color: red; font-size: 48px"">Error!</span>","null","","","","feedback","","","","","","","","","","","","","","","",""
"html-keyboard-response","236","890984","0.0-4.0-1.0-3.14","yohrjbtcjulbnzn","prime","5e60c04eec276e000d83b85d","5f60e3c0a3b16e07647b2ff9","5f60f0c02605c5016e1611f5","false","null","<div style=""align-items: center; display: flex; color: darkorange; font-size: 90px""><b>ø</b></div>","null","","","","forget_cue","","","","","","","","","","","","","","","",""
"html-keyboard-response","237","891688","0.0-4.0-1.0-0.15","yohrjbtcjulbnzn","prime","5e60c04eec276e000d83b85d","5f60e3c0a3b16e07647b2ff9","5f60f0c02605c5016e1611f5","false","null","<span style=""color: black; font-size: 48px"">M + N</span>","null","","","","resp_prompt","","","","","","","","","","","","","","","",""
