"trial_type","trial_index","time_elapsed","internal_node_id","subject","exp_part","prolific_PID","study_ID","session_ID","use","rt","stimulus","key_press","button_pressed","responses","question_order","trial_part","correct","resp_map","correct_resp","probe_condition","category","image","forget_condition","list","trial_num","block_num","block","response","test_part","n_span","sequence","num_spaces"
"pavlovia","0","4","0.0-0.0","7zufyb5bnk933ge","","5dc9de05292aaa6e477846c1","5f60e3c0a3b16e07647b2ff9","5f61dbfde45bc218bc50d55c","false","","","","","","","","","","","","","","","","","","","","","","",""
"html-keyboard-response","1","14037","0.0-1.0-0.0-0.0","7zufyb5bnk933ge","welcome","5dc9de05292aaa6e477846c1","5f60e3c0a3b16e07647b2ff9","5f61dbfde45bc218bc50d55c","false","14031.395000056364","<div align=left>Dear participant, <br> thank you for participating in an online study of the Cognition, Action, and Sustainability Unit of the University of Freiburg! <br> <br>The aim of this study is to examine our ability to remember previously learned information. <br>Our goal is to find out, whether our memory improves, when we only remember information that is relevant to us. <br>The experiment will take about 35 minutes to complete. <br> <br>Please, note that you can only participate in this study if you are using a device with a keyboard (PC, Laptop etc.) <br>and not if you are using a mobile device such as a tablet or smartphone.<br> <br>Press 'SPACE' to proceed to the experiment. </div>","32","","","","","","","","","","","","","","","","","","","",""
"html-keyboard-response","2","49345","0.0-1.0-0.0-1.0","7zufyb5bnk933ge","welcome","5dc9de05292aaa6e477846c1","5f60e3c0a3b16e07647b2ff9","5f61dbfde45bc218bc50d55c","false","35307.174999965355","<div align=left><strong> Time Course of this experiment: </strong> <br><br> <strong> 1.</strong>  First, please fill in some information regarding your demographic data. <br><br> <strong> 2.</strong>  Next, your task will be to classify everyday objects. <br>In addition, you will be asked to remember certain objects and recall them later. <br>Working on these tasks requires your undivided attention and concentration.<br>It is therefore essential that you eliminate any sources of distraction in your  <br>environment and ensure that you will not be disturbed. <br><br><strong> 3.</strong>  At the end of the experiment, you will be asked to answer a few additional questions. <br> <br><strong> Important:</strong> After finishing the experiment, only close the browser window <br> by clicking on the 'end the experiment'-button when you are asked to do so. <br>Closing the browser window prematurely will make the allocation of your participation credit impossible. <br><br> Press 'SPACE' to start the experiment. </div>","32","","","","","","","","","","","","","","","","","","","",""
"html-button-response","3","62381","0.0-1.0-0.0-2.0","7zufyb5bnk933ge","welcome","5dc9de05292aaa6e477846c1","5f60e3c0a3b16e07647b2ff9","5f61dbfde45bc218bc50d55c","true","13033.895000000484","<div align=left><strong> Informed consent </strong>  <br>The aim of our research is to better understand human behavior and mental processes. <br>In the following study your behavior (e.g. choices, reaction times) will be studied. <br> <br><strong> Voluntariness and Anonymity </strong> <br>Your participation in this study is  <strong> voluntary</strong>.<br>You may withdraw your consent to participate at any time without providing a reason for doing so and without fear of prejudice. <br><br>As no personal data will be collected, <strong>your data and your person cannot be connected after data collection</strong> – the data-set is anonymous. <br>Respectively, deletion of your data will not be possible after data collection has been completed, as we cannot retrace your data-set.<br>The results and anonymized data collected in this study will be published as a scientific publication. <br>This will happen in an <strong>anonymized format</strong>, so that no data can be traced back to a specific person. <br> <br>The anonymized data of this study will be made available to other researchers and/or in a data archive on the Internet as a means of transparency and to enable subsequent re-use. By doing so, this study follows the recommendations of the Deutsche Forschungsgemeinschaft (DFG, German Research Foundation) and Deutsche Gesellschaft für Psychologie (DGPS, German Psychological Society) regarding quality assurance in research.<br>If you have any questions now or after the experiment, please contact our team (experiments@cs.uni-freiburg.de).<br><br><br>I hereby declare, that I understand the above described conditions of participation and I agree to participate under these conditions. <br><br> </div>","","0","","","","","","","","","","","","","","","","","","",""
"html-keyboard-response","4","97329","0.0-1.0-0.0-3.0","7zufyb5bnk933ge","welcome","5dc9de05292aaa6e477846c1","5f60e3c0a3b16e07647b2ff9","5f61dbfde45bc218bc50d55c","false","34946.390000055544","<div align=left><strong> General information concerning the experiment </strong>  <br> <br>Please follow the instructions:<ol> <li><strong> Do not leave this tab (your browser window) during the experiment and do not reload this tab! </strong>  <br>If you do switch tabs/windows during the experiment (to check your mail or visit another website, for example), <br>the experiment will end automatically and you will <strong>not receive credit</strong> for your participation. <br>Repeated participation or resumption of the experiment is impossible.</li> <br><li>Please close all other programs for the duration of your participation. </li> <br><li>Please mute or turn off your phone and put it out of your reach. </li> <br><li>Please also take off any disturbing accessories (such as wristwatches, bracelets, etc.). </li> <br><li>If you have music playing in the background, please turn it off now. </li> <br></ol>Thank you! <br>Press 'SPACE' to continue. </div>","32","","","","","","","","","","","","","","","","","","","",""
"survey-text","5","102329","0.0-1.0-1.0-0.0","7zufyb5bnk933ge","demographics","5dc9de05292aaa6e477846c1","5f60e3c0a3b16e07647b2ff9","5f61dbfde45bc218bc50d55c","true","4995.959999971092","","","","{""age"":""25""}","","","","","","","","","","","","","","","","","",""
"survey-multi-choice","6","124813","0.0-1.0-1.0-1.0","7zufyb5bnk933ge","demographics","5dc9de05292aaa6e477846c1","5f60e3c0a3b16e07647b2ff9","5f61dbfde45bc218bc50d55c","true","22481.395000009798","","","","{""gender"":""male"",""school"":""high school"",""education"":""Completed university degree or equivalent""}","[0,1,2]","","","","","","","","","","","","","","","","",""
"html-keyboard-response","7","146587","0.0-1.0-2.0","7zufyb5bnk933ge","instructions","5dc9de05292aaa6e477846c1","5f60e3c0a3b16e07647b2ff9","5f61dbfde45bc218bc50d55c","false","21769.57499992568","<div align=left> The experiment is now about to start: <br> <br>In the following part, you will be presented pictures of everyday objects. <br>Your first task is to <strong>classify these objects. </strong> <br> <br> You will classify them either as mechanical or non-mechanical objects. <br> <br>Objects that include any kind of technical mechanism (for example, wheels, switches, levers, <br> electronic components) fall under the category of <strong>mechanical</strong> objects. <br>Only objects without any kind of technical mechanism should be classified as <strong>non-mechanical</strong>. <br><br>Press 'SPACE' to continue. </div>","32","","","","","","","","","","","","","","","","","","","",""
"html-keyboard-response","8","218212","0.0-2.0-0.0","7zufyb5bnk933ge","instructions","5dc9de05292aaa6e477846c1","5f60e3c0a3b16e07647b2ff9","5f61dbfde45bc218bc50d55c","false","71624.65999997221","<div align=justify>You will classify the objects using the <strong>'S'</strong> and the <strong>'L'</strong> keys on your keyboard.<br>For doing so, please place your <strong>left index finger</strong> on the <strong>'S'</strong> key and place your <strong>right index finger</strong> on the <strong>'L'</strong> key. <br><br> Each trial starts with an instruction, indicating which key ('S'/'L') you need to press to classify <br>the object as mechanical (letter M) or non-mechanical (letter N).<br>The instruction <strong>M + N</strong> indicates that, in the current trial, by pressing the left key ('S') you classify the displayed object as mechanical (M) <br> and by pressing the right key ('L') you classify the object as non-mechanical (N). <br>The instruction <strong>N + M</strong> on the other hand indicates that by pressing the left key ('S') you classify the displayed object as non-mechanical (N) <br> and by pressing the right key ('L') you classify the object as mechanical (M). <br><br>Please press the key corresponding to the correct classification as fast as possible as soon as the object is displayed and try to avoid making mistakes.<br>If you do not respond within a 2 second window, a corresponding feedback will be displayed and the next trial will start.<br> The experiment is divided into multiple blocks to give you the opportunity to take a break after each block. <br>First, you can now practice this task. <br><br>Please place your <strong>LEFT INDEX FINGER</strong> on the 'S' key and your <strong>RIGHT INDEX FINGER</strong> on the 'L' key now. <br><br>Press SPACE to continue.</div>","32","","","","","","","","","","","","","","","","","","","",""
"html-keyboard-response","9","236491","0.0-2.0-1.0","7zufyb5bnk933ge","instructions","5dc9de05292aaa6e477846c1","5f60e3c0a3b16e07647b2ff9","5f61dbfde45bc218bc50d55c","false","18277.360000065528","<div align=left> You will now have time to practice this task.<br><br>Remember: <br> <br><li>Please place your index fingers on the <strong>'S'</strong> and <strong>'L'</strong> keys <br>to respond as fast and accurately as possible.</li><li>Every picture can be classified as either mechanical or non-mechanical.</li><li>If you do not respond in time or commit an error, you will receive a corresponding feedback. </li><li> Please try to respond as <strong> fast </strong> and as <strong> accurately as possible </strong> .<br><li>To ensure optimal results, please minimize distractions and stay focused. </li><br><br>Press SPACE to continue.</div>","32","","","","","","","","","","","","","","","","","","","",""
"html-keyboard-response","10","237197","0.0-2.0-2.0-0.0","7zufyb5bnk933ge","practice_no_cue","5dc9de05292aaa6e477846c1","5f60e3c0a3b16e07647b2ff9","5f61dbfde45bc218bc50d55c","false","null","<span style=""color: black; font-size: 48px"">N + M</span>","null","","","","resp_prompt","","","","","","","","","","","","","","","",""
"categorize-image","11","238323","0.0-2.0-2.0-1.0","7zufyb5bnk933ge","practice_no_cue","5dc9de05292aaa6e477846c1","5f60e3c0a3b16e07647b2ff9","5f61dbfde45bc218bc50d55c","true","621.9099999871105","./Stimuli/ImagesPractice/SM98.jpg","83","","","","test","false","N + M","76","","SM","SM98.jpg","forget","old","1","1","start","left","","","",""
"html-keyboard-response","12","239027","0.0-2.0-2.0-0.1","7zufyb5bnk933ge","practice_no_cue","5dc9de05292aaa6e477846c1","5f60e3c0a3b16e07647b2ff9","5f61dbfde45bc218bc50d55c","false","null","<span style=""color: black; font-size: 48px"">M + N</span>","null","","","","resp_prompt","","","","","","","","","","","","","","","",""
"categorize-image","13","240338","0.0-2.0-2.0-1.1","7zufyb5bnk933ge","practice_no_cue","5dc9de05292aaa6e477846c1","5f60e3c0a3b16e07647b2ff9","5f61dbfde45bc218bc50d55c","true","804.8200000775978","./Stimuli/ImagesPractice/LN2.jpg","76","","","","test","true","M + N","76","","LN","LN2.jpg","forget","old","2","1","start","right","","","",""
"html-keyboard-response","14","241040","0.0-2.0-2.0-0.2","7zufyb5bnk933ge","practice_no_cue","5dc9de05292aaa6e477846c1","5f60e3c0a3b16e07647b2ff9","5f61dbfde45bc218bc50d55c","false","null","<span style=""color: black; font-size: 48px"">N + M</span>","null","","","","resp_prompt","","","","","","","","","","","","","","","",""
"categorize-image","15","242166","0.0-2.0-2.0-1.2","7zufyb5bnk933ge","practice_no_cue","5dc9de05292aaa6e477846c1","5f60e3c0a3b16e07647b2ff9","5f61dbfde45bc218bc50d55c","true","621.3849999476224","./Stimuli/ImagesPractice/LM147.jpg","83","","","","test","false","N + M","76","","LM","LM147.jpg","forget","old","3","1","start","left","","","",""
"html-keyboard-response","16","242869","0.0-2.0-2.0-0.3","7zufyb5bnk933ge","practice_no_cue","5dc9de05292aaa6e477846c1","5f60e3c0a3b16e07647b2ff9","5f61dbfde45bc218bc50d55c","false","null","<span style=""color: black; font-size: 48px"">N + M</span>","null","","","","resp_prompt","","","","","","","","","","","","","","","",""
"categorize-image","17","244133","0.0-2.0-2.0-1.3","7zufyb5bnk933ge","practice_no_cue","5dc9de05292aaa6e477846c1","5f60e3c0a3b16e07647b2ff9","5f61dbfde45bc218bc50d55c","true","759.7700000042096","./Stimuli/ImagesPractice/LN109.jpg","76","","","","test","false","N + M","83","","LN","LN109.jpg","remember","old","4","1","start","right","","","",""
"html-keyboard-response","18","244836","0.0-2.0-2.0-0.4","7zufyb5bnk933ge","practice_no_cue","5dc9de05292aaa6e477846c1","5f60e3c0a3b16e07647b2ff9","5f61dbfde45bc218bc50d55c","false","null","<span style=""color: black; font-size: 48px"">M + N</span>","null","","","","resp_prompt","","","","","","","","","","","","","","","",""
"categorize-image","19","246241","0.0-2.0-2.0-1.4","7zufyb5bnk933ge","practice_no_cue","5dc9de05292aaa6e477846c1","5f60e3c0a3b16e07647b2ff9","5f61dbfde45bc218bc50d55c","true","897.6699999766424","./Stimuli/ImagesPractice/SN205.jpg","76","","","","test","true","M + N","76","","SN","SN205.jpg","forget","old","5","1","start","right","","","",""
"html-keyboard-response","20","246944","0.0-2.0-2.0-0.5","7zufyb5bnk933ge","practice_no_cue","5dc9de05292aaa6e477846c1","5f60e3c0a3b16e07647b2ff9","5f61dbfde45bc218bc50d55c","false","null","<span style=""color: black; font-size: 48px"">M + N</span>","null","","","","resp_prompt","","","","","","","","","","","","","","","",""
"categorize-image","21","248157","0.0-2.0-2.0-1.5","7zufyb5bnk933ge","practice_no_cue","5dc9de05292aaa6e477846c1","5f60e3c0a3b16e07647b2ff9","5f61dbfde45bc218bc50d55c","true","711.6650000680238","./Stimuli/ImagesPractice/SM37.jpg","83","","","","test","true","M + N","83","","SM","SM37.jpg","remember","old","6","1","start","left","","","",""
"html-keyboard-response","22","248859","0.0-2.0-2.0-0.6","7zufyb5bnk933ge","practice_no_cue","5dc9de05292aaa6e477846c1","5f60e3c0a3b16e07647b2ff9","5f61dbfde45bc218bc50d55c","false","null","<span style=""color: black; font-size: 48px"">M + N</span>","null","","","","resp_prompt","","","","","","","","","","","","","","","",""
"categorize-image","23","250160","0.0-2.0-2.0-1.6","7zufyb5bnk933ge","practice_no_cue","5dc9de05292aaa6e477846c1","5f60e3c0a3b16e07647b2ff9","5f61dbfde45bc218bc50d55c","true","796.6900001047179","./Stimuli/ImagesPractice/LM239.jpg","76","","","","test","false","M + N","83","","LM","LM239.jpg","forget","old","7","1","start","right","","","",""
"html-keyboard-response","24","250865","0.0-2.0-2.0-0.7","7zufyb5bnk933ge","practice_no_cue","5dc9de05292aaa6e477846c1","5f60e3c0a3b16e07647b2ff9","5f61dbfde45bc218bc50d55c","false","null","<span style=""color: black; font-size: 48px"">M + N</span>","null","","","","resp_prompt","","","","","","","","","","","","","","","",""
"categorize-image","25","252331","0.0-2.0-2.0-1.7","7zufyb5bnk933ge","practice_no_cue","5dc9de05292aaa6e477846c1","5f60e3c0a3b16e07647b2ff9","5f61dbfde45bc218bc50d55c","true","963.7949999887496","./Stimuli/ImagesPractice/LN4.jpg","76","","","","test","true","M + N","76","","LN","LN4.jpg","remember","old","8","1","start","right","","","",""
"html-keyboard-response","26","253034","0.0-2.0-2.0-0.8","7zufyb5bnk933ge","practice_no_cue","5dc9de05292aaa6e477846c1","5f60e3c0a3b16e07647b2ff9","5f61dbfde45bc218bc50d55c","false","null","<span style=""color: black; font-size: 48px"">N + M</span>","null","","","","resp_prompt","","","","","","","","","","","","","","","",""
"categorize-image","27","254420","0.0-2.0-2.0-1.8","7zufyb5bnk933ge","practice_no_cue","5dc9de05292aaa6e477846c1","5f60e3c0a3b16e07647b2ff9","5f61dbfde45bc218bc50d55c","true","882.0949998917058","./Stimuli/ImagesPractice/SM97.jpg","83","","","","test","false","N + M","76","","SM","SM97.jpg","remember","old","9","1","start","left","","","",""
"html-keyboard-response","28","255123","0.0-2.0-2.0-0.9","7zufyb5bnk933ge","practice_no_cue","5dc9de05292aaa6e477846c1","5f60e3c0a3b16e07647b2ff9","5f61dbfde45bc218bc50d55c","false","null","<span style=""color: black; font-size: 48px"">M + N</span>","null","","","","resp_prompt","","","","","","","","","","","","","","","",""
"categorize-image","29","256538","0.0-2.0-2.0-1.9","7zufyb5bnk933ge","practice_no_cue","5dc9de05292aaa6e477846c1","5f60e3c0a3b16e07647b2ff9","5f61dbfde45bc218bc50d55c","true","911.5400000009686","./Stimuli/ImagesPractice/SN222.jpg","76","","","","test","true","M + N","76","","SN","SN222.jpg","remember","old","10","1","start","right","","","",""
"html-keyboard-response","30","257242","0.0-2.0-2.0-0.10","7zufyb5bnk933ge","practice_no_cue","5dc9de05292aaa6e477846c1","5f60e3c0a3b16e07647b2ff9","5f61dbfde45bc218bc50d55c","false","null","<span style=""color: black; font-size: 48px"">N + M</span>","null","","","","resp_prompt","","","","","","","","","","","","","","","",""
"categorize-image","31","258513","0.0-2.0-2.0-1.10","7zufyb5bnk933ge","practice_no_cue","5dc9de05292aaa6e477846c1","5f60e3c0a3b16e07647b2ff9","5f61dbfde45bc218bc50d55c","true","768.8499999931082","./Stimuli/ImagesPractice/LM224.jpg","83","","","","test","false","N + M","76","","LM","LM224.jpg","forget","old","11","1","start","left","","","",""
"html-keyboard-response","32","259216","0.0-2.0-2.0-0.11","7zufyb5bnk933ge","practice_no_cue","5dc9de05292aaa6e477846c1","5f60e3c0a3b16e07647b2ff9","5f61dbfde45bc218bc50d55c","false","null","<span style=""color: black; font-size: 48px"">N + M</span>","null","","","","resp_prompt","","","","","","","","","","","","","","","",""
"categorize-image","33","260655","0.0-2.0-2.0-1.11","7zufyb5bnk933ge","practice_no_cue","5dc9de05292aaa6e477846c1","5f60e3c0a3b16e07647b2ff9","5f61dbfde45bc218bc50d55c","true","932.9750000033528","./Stimuli/ImagesPractice/LM55.jpg","83","","","","test","false","N + M","76","","LM","LM55.jpg","remember","old","12","1","start","left","","","",""
"html-keyboard-response","34","261357","0.0-2.0-2.0-0.12","7zufyb5bnk933ge","practice_no_cue","5dc9de05292aaa6e477846c1","5f60e3c0a3b16e07647b2ff9","5f61dbfde45bc218bc50d55c","false","null","<span style=""color: black; font-size: 48px"">N + M</span>","null","","","","resp_prompt","","","","","","","","","","","","","","","",""
"categorize-image","35","263064","0.0-2.0-2.0-1.12","7zufyb5bnk933ge","practice_no_cue","5dc9de05292aaa6e477846c1","5f60e3c0a3b16e07647b2ff9","5f61dbfde45bc218bc50d55c","true","1204.0100001031533","./Stimuli/ImagesPractice/SM61.jpg","83","","","","test","false","N + M","76","","SM","SM61.jpg","remember","old","13","1","start","left","","","",""
"html-keyboard-response","36","263766","0.0-2.0-2.0-0.13","7zufyb5bnk933ge","practice_no_cue","5dc9de05292aaa6e477846c1","5f60e3c0a3b16e07647b2ff9","5f61dbfde45bc218bc50d55c","false","null","<span style=""color: black; font-size: 48px"">N + M</span>","null","","","","resp_prompt","","","","","","","","","","","","","","","",""
"categorize-image","37","265270","0.0-2.0-2.0-1.13","7zufyb5bnk933ge","practice_no_cue","5dc9de05292aaa6e477846c1","5f60e3c0a3b16e07647b2ff9","5f61dbfde45bc218bc50d55c","true","999.515000032261","./Stimuli/ImagesPractice/SN75.jpg","83","","","","test","true","N + M","83","","SN","SN75.jpg","forget","old","14","1","start","left","","","",""
"html-keyboard-response","38","265972","0.0-2.0-2.0-0.14","7zufyb5bnk933ge","practice_no_cue","5dc9de05292aaa6e477846c1","5f60e3c0a3b16e07647b2ff9","5f61dbfde45bc218bc50d55c","false","null","<span style=""color: black; font-size: 48px"">M + N</span>","null","","","","resp_prompt","","","","","","","","","","","","","","","",""
"categorize-image","39","267157","0.0-2.0-2.0-1.14","7zufyb5bnk933ge","practice_no_cue","5dc9de05292aaa6e477846c1","5f60e3c0a3b16e07647b2ff9","5f61dbfde45bc218bc50d55c","true","682.3549999389797","./Stimuli/ImagesPractice/SM35.jpg","83","","","","test","true","M + N","83","","SM","SM35.jpg","remember","old","15","1","start","left","","","",""
"html-keyboard-response","40","267863","0.0-2.0-2.0-0.15","7zufyb5bnk933ge","practice_no_cue","5dc9de05292aaa6e477846c1","5f60e3c0a3b16e07647b2ff9","5f61dbfde45bc218bc50d55c","false","null","<span style=""color: black; font-size: 48px"">M + N</span>","null","","","","resp_prompt","","","","","","","","","","","","","","","",""
"categorize-image","41","269142","0.0-2.0-2.0-1.15","7zufyb5bnk933ge","practice_no_cue","5dc9de05292aaa6e477846c1","5f60e3c0a3b16e07647b2ff9","5f61dbfde45bc218bc50d55c","true","774.0099999355152","./Stimuli/ImagesPractice/LM230.jpg","83","","","","test","true","M + N","83","","LM","LM230.jpg","forget","old","16","1","start","left","","","",""
"html-keyboard-response","42","326416","0.0-2.0-3.0","7zufyb5bnk933ge","break","5dc9de05292aaa6e477846c1","5f60e3c0a3b16e07647b2ff9","5f61dbfde45bc218bc50d55c","false","57272.019999916665","<p style='font-size: 32px;'>Break</><br><br><br><br><br><p style='font-size: 24px;'>In the last block, you committed 8 errors and did not respond in time on 0 trials.
</p><p style='font-size: 24px;'>Try to respond as fast and accurately as possible in the next block as well! </p><p style='font-size: 24px;'>Press SPACE to continue.</p>","32","","","","","","","","","","","","","","","","","","","",""
"html-keyboard-response","43","334991","0.0-2.0-4.0","7zufyb5bnk933ge","instructions","5dc9de05292aaa6e477846c1","5f60e3c0a3b16e07647b2ff9","5f61dbfde45bc218bc50d55c","false","8573.86000000406","<div align=left> Great!<br><br>Are you ready to continue?<br><br>If you want to reread the instructions and redo the practice trials, <br>please press „Z“. <br><br>Press SPACE to CONTINUE with the experiment when you are ready. </div>","32","","","","","","","","","","","","","","","","","","","",""
"html-keyboard-response","44","379847","0.0-3.0-0.0","7zufyb5bnk933ge","instructions","5dc9de05292aaa6e477846c1","5f60e3c0a3b16e07647b2ff9","5f61dbfde45bc218bc50d55c","false","44855.214999988675","<div align=left>Great!<br> <strong>Attention</strong>! You will now receive a second, additional task! <br><br>To this point it was you <strong>first task</strong> to correctly <strong>classify objects</strong>. <br><br>As mentioned in the beginning, we aim to examine how well humans can remember previously learned information.<br>We would like to find out whether our memory improves if we only remember information that is relevant to us. <br><br>Therefore, your <strong>second task</strong> will be to <strong>remember</strong> the pictures you are to categorize. <br> After the learning phase, there will be a memory test phase, in which you will be asked to indicate whether you have seen a picture before or not. <br>Some, but not all pictures shown in the learning phase will appear in the memory test phase.<br>After classifying a picture, you will be told whether you should remember it for the memory test phase or not. <br>Thus, some pictures can be forgotten, whereas others have to be remembered. <br><br>Note: From now on, feedback will only be displayed if you responded incorrectly or not in time.<br><br>Press SPACE to continue.</div>","32","","","","","","","","","","","","","","","","","","","",""
"html-keyboard-response","45","409236","0.0-3.0-1.0","7zufyb5bnk933ge","instructions","5dc9de05292aaa6e477846c1","5f60e3c0a3b16e07647b2ff9","5f61dbfde45bc218bc50d55c","false","29388.254999998026","<div align=left>In the following part, you will thus have to remember only some pictures. <br>Immediately after seeing and classifying the picture, a symbol will be displayed, indicating whether you should remember or forget the previous picture. <br><br>A <span style='color: dodgerblue; font-size: 28px'>O</span> indicates REMEMBER. That means, you have to remember this picture, because it will be tested later. <br><br>A <span style='color: darkorange; font-size:28px'>Ø</span> indicates FORGET. You do not have to remember this picture. <br><br> As you will have to remember a lot of pictures, it will be hard for you to remember all of them. <br>It will put you at an advantage if you instantly forget the pictures you are not asked to remember. <br> This will make it easier for you to remember the pictures that will be tested afterwards. <br><br>Press SPACE to continue.</div>","32","","","","","","","","","","","","","","","","","","","",""
"html-keyboard-response","46","428587","0.0-3.0-2.0","7zufyb5bnk933ge","instructions","5dc9de05292aaa6e477846c1","5f60e3c0a3b16e07647b2ff9","5f61dbfde45bc218bc50d55c","false","19349.460000055842","<div align=left> Now you have the chance to practice both tasks together.<br><br>Remember: <br> <br><li>Please place your index fingers on the <strong>'S'</strong> and <strong>'L'</strong> keys <br>to respond as fast and accurately as possible.</li><li>Every picture can be classified as either mechanical or non-mechanical.</li><li>If you do not respond in time or commit an error, you will receive a corresponding feedback. <br>Please try to respond as <strong> fast </strong> and as <strong> accurately as possible </strong>.</li><li> Please remember only the to-be-remembered <span style='color: dodgerblue; font-size: 28px'>O</span> pictures. <br></li><li> Please minimize distractions and stay focused. </li><br><br>Press SPACE to START</div>","32","","","","","","","","","","","","","","","","","","","",""
"html-keyboard-response","47","429290","0.0-3.0-3.0-0.0","7zufyb5bnk933ge","practice_cue","5dc9de05292aaa6e477846c1","5f60e3c0a3b16e07647b2ff9","5f61dbfde45bc218bc50d55c","false","null","<span style=""color: black; font-size: 48px"">N + M</span>","null","","","","resp_prompt","","","","","","","","","","","","","","","",""
"categorize-image","48","429935","0.0-3.0-3.0-1.0","7zufyb5bnk933ge","practice_cue","5dc9de05292aaa6e477846c1","5f60e3c0a3b16e07647b2ff9","5f61dbfde45bc218bc50d55c","true","641.5499999420717","./Stimuli/ImagesPractice/SM98.jpg","83","","","","test","false","N + M","76","","SM","SM98.jpg","forget","old","17","2","practice_forget","left","","","",""
"html-keyboard-response","49","430437","0.0-3.0-3.0-2.0-0.0","7zufyb5bnk933ge","practice_cue","5dc9de05292aaa6e477846c1","5f60e3c0a3b16e07647b2ff9","5f61dbfde45bc218bc50d55c","false","null","<span style=""color: red; font-size: 48px"">Error!</span>","null","","","","feedback","","","","","","","","","","","","","","","",""
"html-keyboard-response","50","432442","0.0-3.0-3.0-3.0","7zufyb5bnk933ge","practice_cue","5dc9de05292aaa6e477846c1","5f60e3c0a3b16e07647b2ff9","5f61dbfde45bc218bc50d55c","false","null","<div style=""align-items: center; display: flex; color: darkorange; font-size: 90px""><b>ø</b></div>","null","","","","forget_cue","","","","","","","","","","","","","","","",""
"html-keyboard-response","51","433144","0.0-3.0-3.0-0.1","7zufyb5bnk933ge","practice_cue","5dc9de05292aaa6e477846c1","5f60e3c0a3b16e07647b2ff9","5f61dbfde45bc218bc50d55c","false","null","<span style=""color: black; font-size: 48px"">N + M</span>","null","","","","resp_prompt","","","","","","","","","","","","","","","",""
"categorize-image","52","433754","0.0-3.0-3.0-1.1","7zufyb5bnk933ge","practice_cue","5dc9de05292aaa6e477846c1","5f60e3c0a3b16e07647b2ff9","5f61dbfde45bc218bc50d55c","true","606.3200000207871","./Stimuli/ImagesPractice/SM97.jpg","76","","","","test","true","N + M","76","","SM","SM97.jpg","remember","old","18","2","practice_forget","right","","","",""
"html-keyboard-response","53","435757","0.0-3.0-3.0-3.1","7zufyb5bnk933ge","practice_cue","5dc9de05292aaa6e477846c1","5f60e3c0a3b16e07647b2ff9","5f61dbfde45bc218bc50d55c","false","null","<div style=""align-items: center; display: flex; color: dodgerblue; font-size: 90px""><b>o</b></div>","null","","","","forget_cue","","","","","","","","","","","","","","","",""
"html-keyboard-response","54","436459","0.0-3.0-3.0-0.2","7zufyb5bnk933ge","practice_cue","5dc9de05292aaa6e477846c1","5f60e3c0a3b16e07647b2ff9","5f61dbfde45bc218bc50d55c","false","null","<span style=""color: black; font-size: 48px"">M + N</span>","null","","","","resp_prompt","","","","","","","","","","","","","","","",""
"categorize-image","55","437251","0.0-3.0-3.0-1.2","7zufyb5bnk933ge","practice_cue","5dc9de05292aaa6e477846c1","5f60e3c0a3b16e07647b2ff9","5f61dbfde45bc218bc50d55c","true","788.6749999597669","./Stimuli/ImagesPractice/SM35.jpg","76","","","","test","false","M + N","83","","SM","SM35.jpg","remember","old","19","2","practice_forget","right","","","",""
"html-keyboard-response","56","437752","0.0-3.0-3.0-2.2-0.2","7zufyb5bnk933ge","practice_cue","5dc9de05292aaa6e477846c1","5f60e3c0a3b16e07647b2ff9","5f61dbfde45bc218bc50d55c","false","null","<span style=""color: red; font-size: 48px"">Error!</span>","null","","","","feedback","","","","","","","","","","","","","","","",""
"html-keyboard-response","57","439756","0.0-3.0-3.0-3.2","7zufyb5bnk933ge","practice_cue","5dc9de05292aaa6e477846c1","5f60e3c0a3b16e07647b2ff9","5f61dbfde45bc218bc50d55c","false","null","<div style=""align-items: center; display: flex; color: dodgerblue; font-size: 90px""><b>o</b></div>","null","","","","forget_cue","","","","","","","","","","","","","","","",""
"html-keyboard-response","58","440459","0.0-3.0-3.0-0.3","7zufyb5bnk933ge","practice_cue","5dc9de05292aaa6e477846c1","5f60e3c0a3b16e07647b2ff9","5f61dbfde45bc218bc50d55c","false","null","<span style=""color: black; font-size: 48px"">N + M</span>","null","","","","resp_prompt","","","","","","","","","","","","","","","",""
"categorize-image","59","441028","0.0-3.0-3.0-1.3","7zufyb5bnk933ge","practice_cue","5dc9de05292aaa6e477846c1","5f60e3c0a3b16e07647b2ff9","5f61dbfde45bc218bc50d55c","true","566.4549999637529","./Stimuli/ImagesPractice/LM147.jpg","83","","","","test","false","N + M","76","","LM","LM147.jpg","forget","old","20","2","practice_forget","left","","","",""
"html-keyboard-response","60","441530","0.0-3.0-3.0-2.3-0.3","7zufyb5bnk933ge","practice_cue","5dc9de05292aaa6e477846c1","5f60e3c0a3b16e07647b2ff9","5f61dbfde45bc218bc50d55c","false","null","<span style=""color: red; font-size: 48px"">Error!</span>","null","","","","feedback","","","","","","","","","","","","","","","",""
"html-keyboard-response","61","443532","0.0-3.0-3.0-3.3","7zufyb5bnk933ge","practice_cue","5dc9de05292aaa6e477846c1","5f60e3c0a3b16e07647b2ff9","5f61dbfde45bc218bc50d55c","false","null","<div style=""align-items: center; display: flex; color: darkorange; font-size: 90px""><b>ø</b></div>","null","","","","forget_cue","","","","","","","","","","","","","","","",""
"html-keyboard-response","62","444238","0.0-3.0-3.0-0.4","7zufyb5bnk933ge","practice_cue","5dc9de05292aaa6e477846c1","5f60e3c0a3b16e07647b2ff9","5f61dbfde45bc218bc50d55c","false","null","<span style=""color: black; font-size: 48px"">N + M</span>","null","","","","resp_prompt","","","","","","","","","","","","","","","",""
"categorize-image","63","445016","0.0-3.0-3.0-1.4","7zufyb5bnk933ge","practice_cue","5dc9de05292aaa6e477846c1","5f60e3c0a3b16e07647b2ff9","5f61dbfde45bc218bc50d55c","true","774.9799999874085","./Stimuli/ImagesPractice/LN109.jpg","83","","","","test","true","N + M","83","","LN","LN109.jpg","remember","old","21","2","practice_forget","left","","","",""
"html-keyboard-response","64","447018","0.0-3.0-3.0-3.4","7zufyb5bnk933ge","practice_cue","5dc9de05292aaa6e477846c1","5f60e3c0a3b16e07647b2ff9","5f61dbfde45bc218bc50d55c","false","null","<div style=""align-items: center; display: flex; color: dodgerblue; font-size: 90px""><b>o</b></div>","null","","","","forget_cue","","","","","","","","","","","","","","","",""
"html-keyboard-response","65","447721","0.0-3.0-3.0-0.5","7zufyb5bnk933ge","practice_cue","5dc9de05292aaa6e477846c1","5f60e3c0a3b16e07647b2ff9","5f61dbfde45bc218bc50d55c","false","null","<span style=""color: black; font-size: 48px"">M + N</span>","null","","","","resp_prompt","","","","","","","","","","","","","","","",""
"categorize-image","66","448414","0.0-3.0-3.0-1.5","7zufyb5bnk933ge","practice_cue","5dc9de05292aaa6e477846c1","5f60e3c0a3b16e07647b2ff9","5f61dbfde45bc218bc50d55c","true","689.7850000532344","./Stimuli/ImagesPractice/LM230.jpg","83","","","","test","true","M + N","83","","LM","LM230.jpg","forget","old","22","2","practice_forget","left","","","",""
"html-keyboard-response","67","450420","0.0-3.0-3.0-3.5","7zufyb5bnk933ge","practice_cue","5dc9de05292aaa6e477846c1","5f60e3c0a3b16e07647b2ff9","5f61dbfde45bc218bc50d55c","false","null","<div style=""align-items: center; display: flex; color: darkorange; font-size: 90px""><b>ø</b></div>","null","","","","forget_cue","","","","","","","","","","","","","","","",""
"html-keyboard-response","68","451122","0.0-3.0-3.0-0.6","7zufyb5bnk933ge","practice_cue","5dc9de05292aaa6e477846c1","5f60e3c0a3b16e07647b2ff9","5f61dbfde45bc218bc50d55c","false","null","<span style=""color: black; font-size: 48px"">M + N</span>","null","","","","resp_prompt","","","","","","","","","","","","","","","",""
"categorize-image","69","451906","0.0-3.0-3.0-1.6","7zufyb5bnk933ge","practice_cue","5dc9de05292aaa6e477846c1","5f60e3c0a3b16e07647b2ff9","5f61dbfde45bc218bc50d55c","true","780.4550000000745","./Stimuli/ImagesPractice/LM239.jpg","83","","","","test","true","M + N","83","","LM","LM239.jpg","forget","old","23","2","practice_forget","left","","","",""
"html-keyboard-response","70","453909","0.0-3.0-3.0-3.6","7zufyb5bnk933ge","practice_cue","5dc9de05292aaa6e477846c1","5f60e3c0a3b16e07647b2ff9","5f61dbfde45bc218bc50d55c","false","null","<div style=""align-items: center; display: flex; color: darkorange; font-size: 90px""><b>ø</b></div>","null","","","","forget_cue","","","","","","","","","","","","","","","",""
"html-keyboard-response","71","454611","0.0-3.0-3.0-0.7","7zufyb5bnk933ge","practice_cue","5dc9de05292aaa6e477846c1","5f60e3c0a3b16e07647b2ff9","5f61dbfde45bc218bc50d55c","false","null","<span style=""color: black; font-size: 48px"">M + N</span>","null","","","","resp_prompt","","","","","","","","","","","","","","","",""
"categorize-image","72","455290","0.0-3.0-3.0-1.7","7zufyb5bnk933ge","practice_cue","5dc9de05292aaa6e477846c1","5f60e3c0a3b16e07647b2ff9","5f61dbfde45bc218bc50d55c","true","676.2749999761581","./Stimuli/ImagesPractice/SN205.jpg","76","","","","test","true","M + N","76","","SN","SN205.jpg","forget","old","24","2","practice_forget","right","","","",""
"html-keyboard-response","73","457293","0.0-3.0-3.0-3.7","7zufyb5bnk933ge","practice_cue","5dc9de05292aaa6e477846c1","5f60e3c0a3b16e07647b2ff9","5f61dbfde45bc218bc50d55c","false","null","<div style=""align-items: center; display: flex; color: darkorange; font-size: 90px""><b>ø</b></div>","null","","","","forget_cue","","","","","","","","","","","","","","","",""
"html-keyboard-response","74","457995","0.0-3.0-3.0-0.8","7zufyb5bnk933ge","practice_cue","5dc9de05292aaa6e477846c1","5f60e3c0a3b16e07647b2ff9","5f61dbfde45bc218bc50d55c","false","null","<span style=""color: black; font-size: 48px"">M + N</span>","null","","","","resp_prompt","","","","","","","","","","","","","","","",""
"categorize-image","75","458743","0.0-3.0-3.0-1.8","7zufyb5bnk933ge","practice_cue","5dc9de05292aaa6e477846c1","5f60e3c0a3b16e07647b2ff9","5f61dbfde45bc218bc50d55c","true","745.230000000447","./Stimuli/ImagesPractice/LN4.jpg","76","","","","test","true","M + N","76","","LN","LN4.jpg","remember","old","25","2","practice_forget","right","","","",""
"html-keyboard-response","76","460747","0.0-3.0-3.0-3.8","7zufyb5bnk933ge","practice_cue","5dc9de05292aaa6e477846c1","5f60e3c0a3b16e07647b2ff9","5f61dbfde45bc218bc50d55c","false","null","<div style=""align-items: center; display: flex; color: dodgerblue; font-size: 90px""><b>o</b></div>","null","","","","forget_cue","","","","","","","","","","","","","","","",""
"html-keyboard-response","77","461450","0.0-3.0-3.0-0.9","7zufyb5bnk933ge","practice_cue","5dc9de05292aaa6e477846c1","5f60e3c0a3b16e07647b2ff9","5f61dbfde45bc218bc50d55c","false","null","<span style=""color: black; font-size: 48px"">N + M</span>","null","","","","resp_prompt","","","","","","","","","","","","","","","",""
"categorize-image","78","462394","0.0-3.0-3.0-1.9","7zufyb5bnk933ge","practice_cue","5dc9de05292aaa6e477846c1","5f60e3c0a3b16e07647b2ff9","5f61dbfde45bc218bc50d55c","true","940.085000009276","./Stimuli/ImagesPractice/SM61.jpg","76","","","","test","true","N + M","76","","SM","SM61.jpg","remember","old","26","2","practice_forget","right","","","",""
"html-keyboard-response","79","464398","0.0-3.0-3.0-3.9","7zufyb5bnk933ge","practice_cue","5dc9de05292aaa6e477846c1","5f60e3c0a3b16e07647b2ff9","5f61dbfde45bc218bc50d55c","false","null","<div style=""align-items: center; display: flex; color: dodgerblue; font-size: 90px""><b>o</b></div>","null","","","","forget_cue","","","","","","","","","","","","","","","",""
"html-keyboard-response","80","465100","0.0-3.0-3.0-0.10","7zufyb5bnk933ge","practice_cue","5dc9de05292aaa6e477846c1","5f60e3c0a3b16e07647b2ff9","5f61dbfde45bc218bc50d55c","false","null","<span style=""color: black; font-size: 48px"">N + M</span>","null","","","","resp_prompt","","","","","","","","","","","","","","","",""
"categorize-image","81","466029","0.0-3.0-3.0-1.10","7zufyb5bnk933ge","practice_cue","5dc9de05292aaa6e477846c1","5f60e3c0a3b16e07647b2ff9","5f61dbfde45bc218bc50d55c","true","926.1000000406057","./Stimuli/ImagesPractice/LM224.jpg","83","","","","test","false","N + M","76","","LM","LM224.jpg","forget","old","27","2","practice_forget","left","","","",""
"html-keyboard-response","82","466532","0.0-3.0-3.0-2.10-0.10","7zufyb5bnk933ge","practice_cue","5dc9de05292aaa6e477846c1","5f60e3c0a3b16e07647b2ff9","5f61dbfde45bc218bc50d55c","false","null","<span style=""color: red; font-size: 48px"">Error!</span>","null","","","","feedback","","","","","","","","","","","","","","","",""
"html-keyboard-response","83","468537","0.0-3.0-3.0-3.10","7zufyb5bnk933ge","practice_cue","5dc9de05292aaa6e477846c1","5f60e3c0a3b16e07647b2ff9","5f61dbfde45bc218bc50d55c","false","null","<div style=""align-items: center; display: flex; color: darkorange; font-size: 90px""><b>ø</b></div>","null","","","","forget_cue","","","","","","","","","","","","","","","",""
"html-keyboard-response","84","469240","0.0-3.0-3.0-0.11","7zufyb5bnk933ge","practice_cue","5dc9de05292aaa6e477846c1","5f60e3c0a3b16e07647b2ff9","5f61dbfde45bc218bc50d55c","false","null","<span style=""color: black; font-size: 48px"">N + M</span>","null","","","","resp_prompt","","","","","","","","","","","","","","","",""
"categorize-image","85","470166","0.0-3.0-3.0-1.11","7zufyb5bnk933ge","practice_cue","5dc9de05292aaa6e477846c1","5f60e3c0a3b16e07647b2ff9","5f61dbfde45bc218bc50d55c","true","923.0700000189245","./Stimuli/ImagesPractice/LM55.jpg","83","","","","test","false","N + M","76","","LM","LM55.jpg","remember","old","28","2","practice_forget","left","","","",""
"html-keyboard-response","86","470668","0.0-3.0-3.0-2.11-0.11","7zufyb5bnk933ge","practice_cue","5dc9de05292aaa6e477846c1","5f60e3c0a3b16e07647b2ff9","5f61dbfde45bc218bc50d55c","false","null","<span style=""color: red; font-size: 48px"">Error!</span>","null","","","","feedback","","","","","","","","","","","","","","","",""
"html-keyboard-response","87","472671","0.0-3.0-3.0-3.11","7zufyb5bnk933ge","practice_cue","5dc9de05292aaa6e477846c1","5f60e3c0a3b16e07647b2ff9","5f61dbfde45bc218bc50d55c","false","null","<div style=""align-items: center; display: flex; color: dodgerblue; font-size: 90px""><b>o</b></div>","null","","","","forget_cue","","","","","","","","","","","","","","","",""
"html-keyboard-response","88","473373","0.0-3.0-3.0-0.12","7zufyb5bnk933ge","practice_cue","5dc9de05292aaa6e477846c1","5f60e3c0a3b16e07647b2ff9","5f61dbfde45bc218bc50d55c","false","null","<span style=""color: black; font-size: 48px"">M + N</span>","null","","","","resp_prompt","","","","","","","","","","","","","","","",""
"categorize-image","89","473982","0.0-3.0-3.0-1.12","7zufyb5bnk933ge","practice_cue","5dc9de05292aaa6e477846c1","5f60e3c0a3b16e07647b2ff9","5f61dbfde45bc218bc50d55c","true","606.4699999988079","./Stimuli/ImagesPractice/LN2.jpg","76","","","","test","true","M + N","76","","LN","LN2.jpg","forget","old","29","2","practice_forget","right","","","",""
"html-keyboard-response","90","475985","0.0-3.0-3.0-3.12","7zufyb5bnk933ge","practice_cue","5dc9de05292aaa6e477846c1","5f60e3c0a3b16e07647b2ff9","5f61dbfde45bc218bc50d55c","false","null","<div style=""align-items: center; display: flex; color: darkorange; font-size: 90px""><b>ø</b></div>","null","","","","forget_cue","","","","","","","","","","","","","","","",""
"html-keyboard-response","91","476688","0.0-3.0-3.0-0.13","7zufyb5bnk933ge","practice_cue","5dc9de05292aaa6e477846c1","5f60e3c0a3b16e07647b2ff9","5f61dbfde45bc218bc50d55c","false","null","<span style=""color: black; font-size: 48px"">M + N</span>","null","","","","resp_prompt","","","","","","","","","","","","","","","",""
"categorize-image","92","477350","0.0-3.0-3.0-1.13","7zufyb5bnk933ge","practice_cue","5dc9de05292aaa6e477846c1","5f60e3c0a3b16e07647b2ff9","5f61dbfde45bc218bc50d55c","true","659.8249999806285","./Stimuli/ImagesPractice/SN222.jpg","76","","","","test","true","M + N","76","","SN","SN222.jpg","remember","old","30","2","practice_forget","right","","","",""
"html-keyboard-response","93","479352","0.0-3.0-3.0-3.13","7zufyb5bnk933ge","practice_cue","5dc9de05292aaa6e477846c1","5f60e3c0a3b16e07647b2ff9","5f61dbfde45bc218bc50d55c","false","null","<div style=""align-items: center; display: flex; color: dodgerblue; font-size: 90px""><b>o</b></div>","null","","","","forget_cue","","","","","","","","","","","","","","","",""
"html-keyboard-response","94","480055","0.0-3.0-3.0-0.14","7zufyb5bnk933ge","practice_cue","5dc9de05292aaa6e477846c1","5f60e3c0a3b16e07647b2ff9","5f61dbfde45bc218bc50d55c","false","null","<span style=""color: black; font-size: 48px"">N + M</span>","null","","","","resp_prompt","","","","","","","","","","","","","","","",""
"categorize-image","95","480701","0.0-3.0-3.0-1.14","7zufyb5bnk933ge","practice_cue","5dc9de05292aaa6e477846c1","5f60e3c0a3b16e07647b2ff9","5f61dbfde45bc218bc50d55c","true","643.3599999872968","./Stimuli/ImagesPractice/SN75.jpg","76","","","","test","false","N + M","83","","SN","SN75.jpg","forget","old","31","2","practice_forget","right","","","",""
"html-keyboard-response","96","481204","0.0-3.0-3.0-2.14-0.14","7zufyb5bnk933ge","practice_cue","5dc9de05292aaa6e477846c1","5f60e3c0a3b16e07647b2ff9","5f61dbfde45bc218bc50d55c","false","null","<span style=""color: red; font-size: 48px"">Error!</span>","null","","","","feedback","","","","","","","","","","","","","","","",""
"html-keyboard-response","97","483207","0.0-3.0-3.0-3.14","7zufyb5bnk933ge","practice_cue","5dc9de05292aaa6e477846c1","5f60e3c0a3b16e07647b2ff9","5f61dbfde45bc218bc50d55c","false","null","<div style=""align-items: center; display: flex; color: darkorange; font-size: 90px""><b>ø</b></div>","null","","","","forget_cue","","","","","","","","","","","","","","","",""
"html-keyboard-response","98","483909","0.0-3.0-3.0-0.15","7zufyb5bnk933ge","practice_cue","5dc9de05292aaa6e477846c1","5f60e3c0a3b16e07647b2ff9","5f61dbfde45bc218bc50d55c","false","null","<span style=""color: black; font-size: 48px"">M + N</span>","null","","","","resp_prompt","","","","","","","","","","","","","","","",""
"categorize-image","99","484554","0.0-3.0-3.0-1.15","7zufyb5bnk933ge","practice_cue","5dc9de05292aaa6e477846c1","5f60e3c0a3b16e07647b2ff9","5f61dbfde45bc218bc50d55c","true","641.9549999991432","./Stimuli/ImagesPractice/SM37.jpg","83","","","","test","true","M + N","83","","SM","SM37.jpg","remember","old","32","2","practice_forget","left","","","",""
"html-keyboard-response","100","486556","0.0-3.0-3.0-3.15","7zufyb5bnk933ge","practice_cue","5dc9de05292aaa6e477846c1","5f60e3c0a3b16e07647b2ff9","5f61dbfde45bc218bc50d55c","false","null","<div style=""align-items: center; display: flex; color: dodgerblue; font-size: 90px""><b>o</b></div>","null","","","","forget_cue","","","","","","","","","","","","","","","",""
"html-keyboard-response","101","495002","0.0-3.0-4.0","7zufyb5bnk933ge","break","5dc9de05292aaa6e477846c1","5f60e3c0a3b16e07647b2ff9","5f61dbfde45bc218bc50d55c","false","8444.174999953248","<p style='font-size: 32px;'>Break</><br><br><br><br><br><p style='font-size: 24px;'>In the last block, you committed 6 errors and did not respond in time on 0 trials.
</p><p style='font-size: 24px;'>Try to respond as fast and accurately as possible in the next block as well! </p><p style='font-size: 24px;'>Press SPACE to continue.</p>","32","","","","","","","","","","","","","","","","","","","",""
"html-keyboard-response","102","531955","0.0-3.0-5.0","7zufyb5bnk933ge","instructions","5dc9de05292aaa6e477846c1","5f60e3c0a3b16e07647b2ff9","5f61dbfde45bc218bc50d55c","false","36952.18999998178","<div align=left> Now, to practice, we kindly ask you to remember as many of the to-be-remembered pictures<br>of the previous learning phase as possible.<br><br>The pictures you were instructed to remember were the pictures followed by a <span style='color: dodgerblue; font-size: 28px'>O</span>.<br><br>In this memory test phase, you will also see some new pictures.<br>It is your task to remember whether you were presented with this specific picture in this study so far or not.<br>If you recognize an object (you have already seen it in this study), it is an OLD object. <br>If you do not recognize an object (you have NOT seen it in this study), it is a NEW object. <br><strong> Attention</strong>: As already mentioned, <span style='color: darkorange; font-size:28px'>Ø</span>-pictures will <strong>never</strong> appear in this memory test (neither as new objects). <br><br>Press SPACE to continue. </div>","32","","","","","","","","","","","","","","","","","","","",""
"html-keyboard-response","103","592361","0.0-3.0-6.0","7zufyb5bnk933ge","instructions","5dc9de05292aaa6e477846c1","5f60e3c0a3b16e07647b2ff9","5f61dbfde45bc218bc50d55c","false","60405.07500001695","<div align=left> M and N no longer will appear on the left/right of the fixation cross. <br>Instead there will be a note at the bottom of the left or right side  <br>indicating which key you should press for an old or new object:  <br> <br>Press the <strong>right</strong> key to classify an object as <strong>old</strong> and press the <strong>left</strong>, to classify an object as <strong>new</strong>.<br>Please classify the objects as new/old by again placing your index finger on the 'S' and 'L' keys <br>and press them accordingly.<br><br><strong>Old:</strong> This object has been presented before. <br><strong>New:</strong> This object has <strong>not</strong> been presented.<br><br>Now please put your right and left index fingers on the 'S' and 'L' keys of your keyboard. <br>Please respond as fast and as accurately as possible!<br><br>Press SPACE to continue. </div>","32","","","","","","","","","","","","","","","","","","","",""
"categorize-image","104","595627","0.0-3.0-7.0-0.0","7zufyb5bnk933ge","practice_recog","5dc9de05292aaa6e477846c1","5f60e3c0a3b16e07647b2ff9","5f61dbfde45bc218bc50d55c","true","2759.719999972731","./Stimuli/ImagesPractice/LM143.jpg","83","","","","test","false","","76","","LM","LM143.jpg","","new","33","3","practice_recog","left","","","",""
"categorize-image","105","597832","0.0-3.0-7.0-0.1","7zufyb5bnk933ge","practice_recog","5dc9de05292aaa6e477846c1","5f60e3c0a3b16e07647b2ff9","5f61dbfde45bc218bc50d55c","true","1702.7750000124797","./Stimuli/ImagesPractice/SN221.jpg","76","","","","test","true","","76","","SN","SN221.jpg","","new","34","3","practice_recog","right","","","",""
"categorize-image","106","599248","0.0-3.0-7.0-0.2","7zufyb5bnk933ge","practice_recog","5dc9de05292aaa6e477846c1","5f60e3c0a3b16e07647b2ff9","5f61dbfde45bc218bc50d55c","true","911.9750000536442","./Stimuli/ImagesPractice/SN76.jpg","76","","","","test","true","","76","","SN","SN76.jpg","","new","35","3","practice_recog","right","","","",""
"categorize-image","107","600566","0.0-3.0-7.0-0.3","7zufyb5bnk933ge","practice_recog","5dc9de05292aaa6e477846c1","5f60e3c0a3b16e07647b2ff9","5f61dbfde45bc218bc50d55c","true","810.8500000089407","./Stimuli/ImagesPractice/LN15.jpg","76","","","","test","true","","76","","LN","LN15.jpg","","new","36","3","practice_recog","right","","","",""
"categorize-image","108","601954","0.0-3.0-7.0-0.4","7zufyb5bnk933ge","practice_recog","5dc9de05292aaa6e477846c1","5f60e3c0a3b16e07647b2ff9","5f61dbfde45bc218bc50d55c","true","883.8450000621378","./Stimuli/ImagesPractice/LN4.jpg","83","","","","test","true","","83","","LN","LN4.jpg","","old","37","3","practice_recog","left","","","",""
"categorize-image","109","603427","0.0-3.0-7.0-0.5","7zufyb5bnk933ge","practice_recog","5dc9de05292aaa6e477846c1","5f60e3c0a3b16e07647b2ff9","5f61dbfde45bc218bc50d55c","true","971.860000048764","./Stimuli/ImagesPractice/SM35.jpg","83","","","","test","true","","83","","SM","SM35.jpg","","old","38","3","practice_recog","left","","","",""
"categorize-image","110","604745","0.0-3.0-7.0-0.6","7zufyb5bnk933ge","practice_recog","5dc9de05292aaa6e477846c1","5f60e3c0a3b16e07647b2ff9","5f61dbfde45bc218bc50d55c","true","811.3250000169501","./Stimuli/ImagesPractice/SM62.jpg","76","","","","test","true","","76","","SM","SM62.jpg","","new","39","3","practice_recog","right","","","",""
"categorize-image","111","606017","0.0-3.0-7.0-0.7","7zufyb5bnk933ge","practice_recog","5dc9de05292aaa6e477846c1","5f60e3c0a3b16e07647b2ff9","5f61dbfde45bc218bc50d55c","true","768.1200000224635","./Stimuli/ImagesPractice/SM61.jpg","76","","","","test","false","","83","","SM","SM61.jpg","","old","40","3","practice_recog","right","","","",""
"categorize-image","112","607753","0.0-3.0-7.0-0.8","7zufyb5bnk933ge","practice_recog","5dc9de05292aaa6e477846c1","5f60e3c0a3b16e07647b2ff9","5f61dbfde45bc218bc50d55c","true","1230.615000007674","./Stimuli/ImagesPractice/LM55.jpg","83","","","","test","true","","83","","LM","LM55.jpg","","old","41","3","practice_recog","left","","","",""
"categorize-image","113","609198","0.0-3.0-7.0-0.9","7zufyb5bnk933ge","practice_recog","5dc9de05292aaa6e477846c1","5f60e3c0a3b16e07647b2ff9","5f61dbfde45bc218bc50d55c","true","939.2799999332055","./Stimuli/ImagesPractice/SN220.jpg","76","","","","test","true","","76","","SN","SN220.jpg","","new","42","3","practice_recog","right","","","",""
"categorize-image","114","610773","0.0-3.0-7.0-0.10","7zufyb5bnk933ge","practice_recog","5dc9de05292aaa6e477846c1","5f60e3c0a3b16e07647b2ff9","5f61dbfde45bc218bc50d55c","true","1068.0399999255314","./Stimuli/ImagesPractice/LN109.jpg","83","","","","test","true","","83","","LN","LN109.jpg","","old","43","3","practice_recog","left","","","",""
"categorize-image","115","612292","0.0-3.0-7.0-0.11","7zufyb5bnk933ge","practice_recog","5dc9de05292aaa6e477846c1","5f60e3c0a3b16e07647b2ff9","5f61dbfde45bc218bc50d55c","true","1016.7199999559671","./Stimuli/ImagesPractice/SN222.jpg","83","","","","test","true","","83","","SN","SN222.jpg","","old","44","3","practice_recog","left","","","",""
"categorize-image","116","613749","0.0-3.0-7.0-0.12","7zufyb5bnk933ge","practice_recog","5dc9de05292aaa6e477846c1","5f60e3c0a3b16e07647b2ff9","5f61dbfde45bc218bc50d55c","true","951.7650000052527","./Stimuli/ImagesPractice/LN17.jpg","76","","","","test","true","","76","","LN","LN17.jpg","","new","45","3","practice_recog","right","","","",""
"categorize-image","117","615026","0.0-3.0-7.0-0.13","7zufyb5bnk933ge","practice_recog","5dc9de05292aaa6e477846c1","5f60e3c0a3b16e07647b2ff9","5f61dbfde45bc218bc50d55c","true","771.1200000485405","./Stimuli/ImagesPractice/SM97.jpg","83","","","","test","true","","83","","SM","SM97.jpg","","old","46","3","practice_recog","left","","","",""
"categorize-image","118","617034","0.0-3.0-7.0-0.14","7zufyb5bnk933ge","practice_recog","5dc9de05292aaa6e477846c1","5f60e3c0a3b16e07647b2ff9","5f61dbfde45bc218bc50d55c","true","1501.4700000174344","./Stimuli/ImagesPractice/LN72.jpg","76","","","","test","true","","76","","LN","LN72.jpg","","new","47","3","practice_recog","right","","","",""
"categorize-image","119","618382","0.0-3.0-7.0-0.15","7zufyb5bnk933ge","practice_recog","5dc9de05292aaa6e477846c1","5f60e3c0a3b16e07647b2ff9","5f61dbfde45bc218bc50d55c","true","841.0400000866503","./Stimuli/ImagesPractice/SM37.jpg","83","","","","test","true","","83","","SM","SM37.jpg","","old","48","3","practice_recog","left","","","",""
"html-keyboard-response","120","684904","0.0-3.0-8.0","7zufyb5bnk933ge","instructions","5dc9de05292aaa6e477846c1","5f60e3c0a3b16e07647b2ff9","5f61dbfde45bc218bc50d55c","false","66521.5549999848","<div align=left> Great!<br><br>Are you ready to continue?<br>If you want to reread the instructions and redo the practice trials, please <br>press „Z“.<br><br>You can proceed when you are ready.<br><br>After the presentation of each object, you will receive an instruction whether to <br>remember or to forget the object.<br>We will test your memory of the following pictures only at the very end of <br>the experiment after all learning blocks are completed. <br><br>Press SPACE to CONTINUE when you are ready. </div>","32","","","","","","","","","","","","","","","","","","","",""
"html-keyboard-response","121","695622","0.0-4.0-0.0","7zufyb5bnk933ge","instructions","5dc9de05292aaa6e477846c1","5f60e3c0a3b16e07647b2ff9","5f61dbfde45bc218bc50d55c","false","10717.090000049211","<div align=left> The actual experiment is about to start.<br>The practice trials are over!<br><br>Please always respond both fast and accurately!<br><br>Remember: <br> <br><li> Please place your index fingers on the <strong>'S'</strong> and <strong>'L'</strong> keys <br>to respond as fast and accurately as possible.</li><li> Every picture can be classified as either mechanical or non-mechanical.</li><li> If you do not respond in time or commit an error, you will receive a corresponding feedback.<br> Please try to respond as <strong> fast </strong> and as <strong> accurately as possible </strong>.</li><li> Remember the <span style='color: dodgerblue; font-size: 28px'>O</span> pictures. <br></li><li> Please minimize distractions and stay focused. </li><br><br>Press SPACE to START.</div>","32","","","","","","","","","","","","","","","","","","","",""
"html-keyboard-response","122","696327","0.0-4.0-1.0-0.0","7zufyb5bnk933ge","prime","5dc9de05292aaa6e477846c1","5f60e3c0a3b16e07647b2ff9","5f61dbfde45bc218bc50d55c","false","null","<span style=""color: black; font-size: 48px"">M + N</span>","null","","","","resp_prompt","","","","","","","","","","","","","","","",""
"categorize-image","123","697035","0.0-4.0-1.0-1.0","7zufyb5bnk933ge","prime","5dc9de05292aaa6e477846c1","5f60e3c0a3b16e07647b2ff9","5f61dbfde45bc218bc50d55c","true","704.8399999039248","./Stimuli/SelectedImages/SN/SN181.bmp","76","","","","test","true","M + N","76","repetition","SN","SN181.bmp","remember","","49","3","prime1","right","","","",""
"html-keyboard-response","124","699042","0.0-4.0-1.0-3.0","7zufyb5bnk933ge","prime","5dc9de05292aaa6e477846c1","5f60e3c0a3b16e07647b2ff9","5f61dbfde45bc218bc50d55c","false","null","<div style=""align-items: center; display: flex; color: dodgerblue; font-size: 90px""><b>o</b></div>","null","","","","forget_cue","","","","","","","","","","","","","","","",""
"html-keyboard-response","125","699744","0.0-4.0-1.0-0.1","7zufyb5bnk933ge","prime","5dc9de05292aaa6e477846c1","5f60e3c0a3b16e07647b2ff9","5f61dbfde45bc218bc50d55c","false","null","<span style=""color: black; font-size: 48px"">N + M</span>","null","","","","resp_prompt","","","","","","","","","","","","","","","",""
"categorize-image","126","700932","0.0-4.0-1.0-1.1","7zufyb5bnk933ge","prime","5dc9de05292aaa6e477846c1","5f60e3c0a3b16e07647b2ff9","5f61dbfde45bc218bc50d55c","true","1184.1900000581518","./Stimuli/SelectedImages/LM/LM129.bmp","83","","","","test","false","N + M","76","switch","LM","LM129.bmp","forget","","50","3","prime1","left","","","",""
"html-keyboard-response","127","701434","0.0-4.0-1.0-2.1-0.1","7zufyb5bnk933ge","prime","5dc9de05292aaa6e477846c1","5f60e3c0a3b16e07647b2ff9","5f61dbfde45bc218bc50d55c","false","null","<span style=""color: red; font-size: 48px"">Error!</span>","null","","","","feedback","","","","","","","","","","","","","","","",""
"html-keyboard-response","128","703436","0.0-4.0-1.0-3.1","7zufyb5bnk933ge","prime","5dc9de05292aaa6e477846c1","5f60e3c0a3b16e07647b2ff9","5f61dbfde45bc218bc50d55c","false","null","<div style=""align-items: center; display: flex; color: darkorange; font-size: 90px""><b>ø</b></div>","null","","","","forget_cue","","","","","","","","","","","","","","","",""
"html-keyboard-response","129","704139","0.0-4.0-1.0-0.2","7zufyb5bnk933ge","prime","5dc9de05292aaa6e477846c1","5f60e3c0a3b16e07647b2ff9","5f61dbfde45bc218bc50d55c","false","null","<span style=""color: black; font-size: 48px"">N + M</span>","null","","","","resp_prompt","","","","","","","","","","","","","","","",""
"categorize-image","130","704991","0.0-4.0-1.0-1.2","7zufyb5bnk933ge","prime","5dc9de05292aaa6e477846c1","5f60e3c0a3b16e07647b2ff9","5f61dbfde45bc218bc50d55c","true","849.2449999321252","./Stimuli/SelectedImages/LM/LM100.bmp","83","","","","test","false","N + M","76","switch","LM","LM100.bmp","remember","","51","3","prime1","left","","","",""
"html-keyboard-response","131","705492","0.0-4.0-1.0-2.2-0.2","7zufyb5bnk933ge","prime","5dc9de05292aaa6e477846c1","5f60e3c0a3b16e07647b2ff9","5f61dbfde45bc218bc50d55c","false","null","<span style=""color: red; font-size: 48px"">Error!</span>","null","","","","feedback","","","","","","","","","","","","","","","",""
"html-keyboard-response","132","707497","0.0-4.0-1.0-3.2","7zufyb5bnk933ge","prime","5dc9de05292aaa6e477846c1","5f60e3c0a3b16e07647b2ff9","5f61dbfde45bc218bc50d55c","false","null","<div style=""align-items: center; display: flex; color: dodgerblue; font-size: 90px""><b>o</b></div>","null","","","","forget_cue","","","","","","","","","","","","","","","",""
"html-keyboard-response","133","708200","0.0-4.0-1.0-0.3","7zufyb5bnk933ge","prime","5dc9de05292aaa6e477846c1","5f60e3c0a3b16e07647b2ff9","5f61dbfde45bc218bc50d55c","false","null","<span style=""color: black; font-size: 48px"">M + N</span>","null","","","","resp_prompt","","","","","","","","","","","","","","","",""
"categorize-image","134","709068","0.0-4.0-1.0-1.3","7zufyb5bnk933ge","prime","5dc9de05292aaa6e477846c1","5f60e3c0a3b16e07647b2ff9","5f61dbfde45bc218bc50d55c","true","865.3399999020621","./Stimuli/SelectedImages/LN/LN131.bmp","76","","","","test","true","M + N","76","switch","LN","LN131.bmp","remember","","52","3","prime1","right","","","",""
"html-keyboard-response","135","711075","0.0-4.0-1.0-3.3","7zufyb5bnk933ge","prime","5dc9de05292aaa6e477846c1","5f60e3c0a3b16e07647b2ff9","5f61dbfde45bc218bc50d55c","false","null","<div style=""align-items: center; display: flex; color: dodgerblue; font-size: 90px""><b>o</b></div>","null","","","","forget_cue","","","","","","","","","","","","","","","",""
"html-keyboard-response","136","711778","0.0-4.0-1.0-0.4","7zufyb5bnk933ge","prime","5dc9de05292aaa6e477846c1","5f60e3c0a3b16e07647b2ff9","5f61dbfde45bc218bc50d55c","false","null","<span style=""color: black; font-size: 48px"">M + N</span>","null","","","","resp_prompt","","","","","","","","","","","","","","","",""
"categorize-image","137","712440","0.0-4.0-1.0-1.4","7zufyb5bnk933ge","prime","5dc9de05292aaa6e477846c1","5f60e3c0a3b16e07647b2ff9","5f61dbfde45bc218bc50d55c","true","659.319999977015","./Stimuli/SelectedImages/LN/LN9.bmp","76","","","","test","true","M + N","76","switch","LN","LN9.bmp","remember","","53","3","prime1","right","","","",""
"html-keyboard-response","138","714442","0.0-4.0-1.0-3.4","7zufyb5bnk933ge","prime","5dc9de05292aaa6e477846c1","5f60e3c0a3b16e07647b2ff9","5f61dbfde45bc218bc50d55c","false","null","<div style=""align-items: center; display: flex; color: dodgerblue; font-size: 90px""><b>o</b></div>","null","","","","forget_cue","","","","","","","","","","","","","","","",""
"html-keyboard-response","139","715145","0.0-4.0-1.0-0.5","7zufyb5bnk933ge","prime","5dc9de05292aaa6e477846c1","5f60e3c0a3b16e07647b2ff9","5f61dbfde45bc218bc50d55c","false","null","<span style=""color: black; font-size: 48px"">N + M</span>","null","","","","resp_prompt","","","","","","","","","","","","","","","",""
"categorize-image","140","716243","0.0-4.0-1.0-1.5","7zufyb5bnk933ge","prime","5dc9de05292aaa6e477846c1","5f60e3c0a3b16e07647b2ff9","5f61dbfde45bc218bc50d55c","true","1095.1699999859557","./Stimuli/SelectedImages/SM/SM207.bmp","76","","","","test","true","N + M","76","repetition","SM","SM207.bmp","remember","","54","3","prime1","right","","","",""
"html-keyboard-response","141","718245","0.0-4.0-1.0-3.5","7zufyb5bnk933ge","prime","5dc9de05292aaa6e477846c1","5f60e3c0a3b16e07647b2ff9","5f61dbfde45bc218bc50d55c","false","null","<div style=""align-items: center; display: flex; color: dodgerblue; font-size: 90px""><b>o</b></div>","null","","","","forget_cue","","","","","","","","","","","","","","","",""
"html-keyboard-response","142","718947","0.0-4.0-1.0-0.6","7zufyb5bnk933ge","prime","5dc9de05292aaa6e477846c1","5f60e3c0a3b16e07647b2ff9","5f61dbfde45bc218bc50d55c","false","null","<span style=""color: black; font-size: 48px"">M + N</span>","null","","","","resp_prompt","","","","","","","","","","","","","","","",""
"categorize-image","143","719671","0.0-4.0-1.0-1.6","7zufyb5bnk933ge","prime","5dc9de05292aaa6e477846c1","5f60e3c0a3b16e07647b2ff9","5f61dbfde45bc218bc50d55c","true","721.2750000180677","./Stimuli/SelectedImages/SN/SN187.bmp","83","","","","test","false","M + N","76","switch","SN","SN187.bmp","remember","","55","3","prime1","left","","","",""
"html-keyboard-response","144","720172","0.0-4.0-1.0-2.6-0.6","7zufyb5bnk933ge","prime","5dc9de05292aaa6e477846c1","5f60e3c0a3b16e07647b2ff9","5f61dbfde45bc218bc50d55c","false","null","<span style=""color: red; font-size: 48px"">Error!</span>","null","","","","feedback","","","","","","","","","","","","","","","",""
"html-keyboard-response","145","722175","0.0-4.0-1.0-3.6","7zufyb5bnk933ge","prime","5dc9de05292aaa6e477846c1","5f60e3c0a3b16e07647b2ff9","5f61dbfde45bc218bc50d55c","false","null","<div style=""align-items: center; display: flex; color: dodgerblue; font-size: 90px""><b>o</b></div>","null","","","","forget_cue","","","","","","","","","","","","","","","",""
"html-keyboard-response","146","722877","0.0-4.0-1.0-0.7","7zufyb5bnk933ge","prime","5dc9de05292aaa6e477846c1","5f60e3c0a3b16e07647b2ff9","5f61dbfde45bc218bc50d55c","false","null","<span style=""color: black; font-size: 48px"">M + N</span>","null","","","","resp_prompt","","","","","","","","","","","","","","","",""
"categorize-image","147","723546","0.0-4.0-1.0-1.7","7zufyb5bnk933ge","prime","5dc9de05292aaa6e477846c1","5f60e3c0a3b16e07647b2ff9","5f61dbfde45bc218bc50d55c","true","665.889999945648","./Stimuli/SelectedImages/SM/SM73.bmp","76","","","","test","false","M + N","83","switch","SM","SM73.bmp","forget","","56","3","prime1","right","","","",""
"html-keyboard-response","148","724050","0.0-4.0-1.0-2.7-0.7","7zufyb5bnk933ge","prime","5dc9de05292aaa6e477846c1","5f60e3c0a3b16e07647b2ff9","5f61dbfde45bc218bc50d55c","false","null","<span style=""color: red; font-size: 48px"">Error!</span>","null","","","","feedback","","","","","","","","","","","","","","","",""
"html-keyboard-response","149","726052","0.0-4.0-1.0-3.7","7zufyb5bnk933ge","prime","5dc9de05292aaa6e477846c1","5f60e3c0a3b16e07647b2ff9","5f61dbfde45bc218bc50d55c","false","null","<div style=""align-items: center; display: flex; color: darkorange; font-size: 90px""><b>ø</b></div>","null","","","","forget_cue","","","","","","","","","","","","","","","",""
"html-keyboard-response","150","726755","0.0-4.0-1.0-0.8","7zufyb5bnk933ge","prime","5dc9de05292aaa6e477846c1","5f60e3c0a3b16e07647b2ff9","5f61dbfde45bc218bc50d55c","false","null","<span style=""color: black; font-size: 48px"">M + N</span>","null","","","","resp_prompt","","","","","","","","","","","","","","","",""
"categorize-image","151","727371","0.0-4.0-1.0-1.8","7zufyb5bnk933ge","prime","5dc9de05292aaa6e477846c1","5f60e3c0a3b16e07647b2ff9","5f61dbfde45bc218bc50d55c","true","613.1649999879301","./Stimuli/SelectedImages/LM/LM216.bmp","83","","","","test","true","M + N","83","switch","LM","LM216.bmp","forget","","57","3","prime1","left","","","",""
"html-keyboard-response","152","729374","0.0-4.0-1.0-3.8","7zufyb5bnk933ge","prime","5dc9de05292aaa6e477846c1","5f60e3c0a3b16e07647b2ff9","5f61dbfde45bc218bc50d55c","false","null","<div style=""align-items: center; display: flex; color: darkorange; font-size: 90px""><b>ø</b></div>","null","","","","forget_cue","","","","","","","","","","","","","","","",""
"html-keyboard-response","153","730075","0.0-4.0-1.0-0.9","7zufyb5bnk933ge","prime","5dc9de05292aaa6e477846c1","5f60e3c0a3b16e07647b2ff9","5f61dbfde45bc218bc50d55c","false","null","<span style=""color: black; font-size: 48px"">N + M</span>","null","","","","resp_prompt","","","","","","","","","","","","","","","",""
"categorize-image","154","730921","0.0-4.0-1.0-1.9","7zufyb5bnk933ge","prime","5dc9de05292aaa6e477846c1","5f60e3c0a3b16e07647b2ff9","5f61dbfde45bc218bc50d55c","true","842.9199999663979","./Stimuli/SelectedImages/SN/SN49.bmp","76","","","","test","false","N + M","83","repetition","SN","SN49.bmp","remember","","58","3","prime1","right","","","",""
"html-keyboard-response","155","731422","0.0-4.0-1.0-2.9-0.9","7zufyb5bnk933ge","prime","5dc9de05292aaa6e477846c1","5f60e3c0a3b16e07647b2ff9","5f61dbfde45bc218bc50d55c","false","null","<span style=""color: red; font-size: 48px"">Error!</span>","null","","","","feedback","","","","","","","","","","","","","","","",""
"html-keyboard-response","156","733427","0.0-4.0-1.0-3.9","7zufyb5bnk933ge","prime","5dc9de05292aaa6e477846c1","5f60e3c0a3b16e07647b2ff9","5f61dbfde45bc218bc50d55c","false","null","<div style=""align-items: center; display: flex; color: dodgerblue; font-size: 90px""><b>o</b></div>","null","","","","forget_cue","","","","","","","","","","","","","","","",""
"html-keyboard-response","157","734133","0.0-4.0-1.0-0.10","7zufyb5bnk933ge","prime","5dc9de05292aaa6e477846c1","5f60e3c0a3b16e07647b2ff9","5f61dbfde45bc218bc50d55c","false","null","<span style=""color: black; font-size: 48px"">M + N</span>","null","","","","resp_prompt","","","","","","","","","","","","","","","",""
"categorize-image","158","734875","0.0-4.0-1.0-1.10","7zufyb5bnk933ge","prime","5dc9de05292aaa6e477846c1","5f60e3c0a3b16e07647b2ff9","5f61dbfde45bc218bc50d55c","true","738.5199998971075","./Stimuli/SelectedImages/SM/SM108.bmp","83","","","","test","true","M + N","83","switch","SM","SM108.bmp","remember","","59","3","prime1","left","","","",""
"html-keyboard-response","159","736879","0.0-4.0-1.0-3.10","7zufyb5bnk933ge","prime","5dc9de05292aaa6e477846c1","5f60e3c0a3b16e07647b2ff9","5f61dbfde45bc218bc50d55c","false","null","<div style=""align-items: center; display: flex; color: dodgerblue; font-size: 90px""><b>o</b></div>","null","","","","forget_cue","","","","","","","","","","","","","","","",""
"html-keyboard-response","160","737581","0.0-4.0-1.0-0.11","7zufyb5bnk933ge","prime","5dc9de05292aaa6e477846c1","5f60e3c0a3b16e07647b2ff9","5f61dbfde45bc218bc50d55c","false","null","<span style=""color: black; font-size: 48px"">N + M</span>","null","","","","resp_prompt","","","","","","","","","","","","","","","",""
"categorize-image","161","738719","0.0-4.0-1.0-1.11","7zufyb5bnk933ge","prime","5dc9de05292aaa6e477846c1","5f60e3c0a3b16e07647b2ff9","5f61dbfde45bc218bc50d55c","true","1135.5850000400096","./Stimuli/SelectedImages/SN/SN128.bmp","76","","","","test","false","N + M","83","switch","SN","SN128.bmp","forget","","60","3","prime1","right","","","",""
"html-keyboard-response","162","739221","0.0-4.0-1.0-2.11-0.11","7zufyb5bnk933ge","prime","5dc9de05292aaa6e477846c1","5f60e3c0a3b16e07647b2ff9","5f61dbfde45bc218bc50d55c","false","null","<span style=""color: red; font-size: 48px"">Error!</span>","null","","","","feedback","","","","","","","","","","","","","","","",""
"html-keyboard-response","163","741227","0.0-4.0-1.0-3.11","7zufyb5bnk933ge","prime","5dc9de05292aaa6e477846c1","5f60e3c0a3b16e07647b2ff9","5f61dbfde45bc218bc50d55c","false","null","<div style=""align-items: center; display: flex; color: darkorange; font-size: 90px""><b>ø</b></div>","null","","","","forget_cue","","","","","","","","","","","","","","","",""
"html-keyboard-response","164","741929","0.0-4.0-1.0-0.12","7zufyb5bnk933ge","prime","5dc9de05292aaa6e477846c1","5f60e3c0a3b16e07647b2ff9","5f61dbfde45bc218bc50d55c","false","null","<span style=""color: black; font-size: 48px"">M + N</span>","null","","","","resp_prompt","","","","","","","","","","","","","","","",""
"categorize-image","165","742708","0.0-4.0-1.0-1.12","7zufyb5bnk933ge","prime","5dc9de05292aaa6e477846c1","5f60e3c0a3b16e07647b2ff9","5f61dbfde45bc218bc50d55c","true","775.580000015907","./Stimuli/SelectedImages/SN/SN64.bmp","83","","","","test","false","M + N","76","switch","SN","SN64.bmp","remember","","61","3","prime1","left","","","",""
"html-keyboard-response","166","743209","0.0-4.0-1.0-2.12-0.12","7zufyb5bnk933ge","prime","5dc9de05292aaa6e477846c1","5f60e3c0a3b16e07647b2ff9","5f61dbfde45bc218bc50d55c","false","null","<span style=""color: red; font-size: 48px"">Error!</span>","null","","","","feedback","","","","","","","","","","","","","","","",""
"html-keyboard-response","167","745215","0.0-4.0-1.0-3.12","7zufyb5bnk933ge","prime","5dc9de05292aaa6e477846c1","5f60e3c0a3b16e07647b2ff9","5f61dbfde45bc218bc50d55c","false","null","<div style=""align-items: center; display: flex; color: dodgerblue; font-size: 90px""><b>o</b></div>","null","","","","forget_cue","","","","","","","","","","","","","","","",""
"html-keyboard-response","168","745917","0.0-4.0-1.0-0.13","7zufyb5bnk933ge","prime","5dc9de05292aaa6e477846c1","5f60e3c0a3b16e07647b2ff9","5f61dbfde45bc218bc50d55c","false","null","<span style=""color: black; font-size: 48px"">N + M</span>","null","","","","resp_prompt","","","","","","","","","","","","","","","",""
"categorize-image","169","746970","0.0-4.0-1.0-1.13","7zufyb5bnk933ge","prime","5dc9de05292aaa6e477846c1","5f60e3c0a3b16e07647b2ff9","5f61dbfde45bc218bc50d55c","true","1049.5699999155477","./Stimuli/SelectedImages/LN/LN42.bmp","83","","","","test","true","N + M","83","repetition","LN","LN42.bmp","remember","","62","3","prime1","left","","","",""
"html-keyboard-response","170","748976","0.0-4.0-1.0-3.13","7zufyb5bnk933ge","prime","5dc9de05292aaa6e477846c1","5f60e3c0a3b16e07647b2ff9","5f61dbfde45bc218bc50d55c","false","null","<div style=""align-items: center; display: flex; color: dodgerblue; font-size: 90px""><b>o</b></div>","null","","","","forget_cue","","","","","","","","","","","","","","","",""
"html-keyboard-response","171","749681","0.0-4.0-1.0-0.14","7zufyb5bnk933ge","prime","5dc9de05292aaa6e477846c1","5f60e3c0a3b16e07647b2ff9","5f61dbfde45bc218bc50d55c","false","null","<span style=""color: black; font-size: 48px"">N + M</span>","null","","","","resp_prompt","","","","","","","","","","","","","","","",""
"categorize-image","172","750887","0.0-4.0-1.0-1.14","7zufyb5bnk933ge","prime","5dc9de05292aaa6e477846c1","5f60e3c0a3b16e07647b2ff9","5f61dbfde45bc218bc50d55c","true","1202.7199999429286","./Stimuli/SelectedImages/LN/LN166.bmp","76","","","","test","false","N + M","83","switch","LN","LN166.bmp","forget","","63","3","prime1","right","","","",""
"html-keyboard-response","173","751388","0.0-4.0-1.0-2.14-0.14","7zufyb5bnk933ge","prime","5dc9de05292aaa6e477846c1","5f60e3c0a3b16e07647b2ff9","5f61dbfde45bc218bc50d55c","false","null","<span style=""color: red; font-size: 48px"">Error!</span>","null","","","","feedback","","","","","","","","","","","","","","","",""
"html-keyboard-response","174","753394","0.0-4.0-1.0-3.14","7zufyb5bnk933ge","prime","5dc9de05292aaa6e477846c1","5f60e3c0a3b16e07647b2ff9","5f61dbfde45bc218bc50d55c","false","null","<div style=""align-items: center; display: flex; color: darkorange; font-size: 90px""><b>ø</b></div>","null","","","","forget_cue","","","","","","","","","","","","","","","",""
"html-keyboard-response","175","754096","0.0-4.0-1.0-0.15","7zufyb5bnk933ge","prime","5dc9de05292aaa6e477846c1","5f60e3c0a3b16e07647b2ff9","5f61dbfde45bc218bc50d55c","false","null","<span style=""color: black; font-size: 48px"">N + M</span>","null","","","","resp_prompt","","","","","","","","","","","","","","","",""
"categorize-image","176","755442","0.0-4.0-1.0-1.15","7zufyb5bnk933ge","prime","5dc9de05292aaa6e477846c1","5f60e3c0a3b16e07647b2ff9","5f61dbfde45bc218bc50d55c","true","1342.7849999861792","./Stimuli/SelectedImages/LN/LN150.bmp","83","","","","test","true","N + M","83","repetition","LN","LN150.bmp","forget","","64","3","prime1","left","","","",""
"html-keyboard-response","177","757446","0.0-4.0-1.0-3.15","7zufyb5bnk933ge","prime","5dc9de05292aaa6e477846c1","5f60e3c0a3b16e07647b2ff9","5f61dbfde45bc218bc50d55c","false","null","<div style=""align-items: center; display: flex; color: darkorange; font-size: 90px""><b>ø</b></div>","null","","","","forget_cue","","","","","","","","","","","","","","","",""
"html-keyboard-response","178","758152","0.0-4.0-1.0-0.16","7zufyb5bnk933ge","prime","5dc9de05292aaa6e477846c1","5f60e3c0a3b16e07647b2ff9","5f61dbfde45bc218bc50d55c","false","null","<span style=""color: black; font-size: 48px"">M + N</span>","null","","","","resp_prompt","","","","","","","","","","","","","","","",""
"categorize-image","179","759469","0.0-4.0-1.0-1.16","7zufyb5bnk933ge","prime","5dc9de05292aaa6e477846c1","5f60e3c0a3b16e07647b2ff9","5f61dbfde45bc218bc50d55c","true","1313.6049999156967","./Stimuli/SelectedImages/LN/LN177.bmp","76","","","","test","true","M + N","76","repetition","LN","LN177.bmp","forget","","65","3","prime1","right","","","",""
"html-keyboard-response","180","761473","0.0-4.0-1.0-3.16","7zufyb5bnk933ge","prime","5dc9de05292aaa6e477846c1","5f60e3c0a3b16e07647b2ff9","5f61dbfde45bc218bc50d55c","false","null","<div style=""align-items: center; display: flex; color: darkorange; font-size: 90px""><b>ø</b></div>","null","","","","forget_cue","","","","","","","","","","","","","","","",""
"html-keyboard-response","181","762177","0.0-4.0-1.0-0.17","7zufyb5bnk933ge","prime","5dc9de05292aaa6e477846c1","5f60e3c0a3b16e07647b2ff9","5f61dbfde45bc218bc50d55c","false","null","<span style=""color: black; font-size: 48px"">M + N</span>","null","","","","resp_prompt","","","","","","","","","","","","","","","",""
"categorize-image","182","763003","0.0-4.0-1.0-1.17","7zufyb5bnk933ge","prime","5dc9de05292aaa6e477846c1","5f60e3c0a3b16e07647b2ff9","5f61dbfde45bc218bc50d55c","true","823.2099999440834","./Stimuli/SelectedImages/LM/LM58.bmp","83","","","","test","true","M + N","83","repetition","LM","LM58.bmp","forget","","66","3","prime1","left","","","",""
"html-keyboard-response","183","765009","0.0-4.0-1.0-3.17","7zufyb5bnk933ge","prime","5dc9de05292aaa6e477846c1","5f60e3c0a3b16e07647b2ff9","5f61dbfde45bc218bc50d55c","false","null","<div style=""align-items: center; display: flex; color: darkorange; font-size: 90px""><b>ø</b></div>","null","","","","forget_cue","","","","","","","","","","","","","","","",""
"html-keyboard-response","184","765712","0.0-4.0-1.0-0.18","7zufyb5bnk933ge","prime","5dc9de05292aaa6e477846c1","5f60e3c0a3b16e07647b2ff9","5f61dbfde45bc218bc50d55c","false","null","<span style=""color: black; font-size: 48px"">M + N</span>","null","","","","resp_prompt","","","","","","","","","","","","","","","",""
"categorize-image","185","766491","0.0-4.0-1.0-1.18","7zufyb5bnk933ge","prime","5dc9de05292aaa6e477846c1","5f60e3c0a3b16e07647b2ff9","5f61dbfde45bc218bc50d55c","true","775.7200000341982","./Stimuli/SelectedImages/SN/SN140.bmp","76","","","","test","true","M + N","76","repetition","SN","SN140.bmp","forget","","67","3","prime1","right","","","",""
"html-keyboard-response","186","768493","0.0-4.0-1.0-3.18","7zufyb5bnk933ge","prime","5dc9de05292aaa6e477846c1","5f60e3c0a3b16e07647b2ff9","5f61dbfde45bc218bc50d55c","false","null","<div style=""align-items: center; display: flex; color: darkorange; font-size: 90px""><b>ø</b></div>","null","","","","forget_cue","","","","","","","","","","","","","","","",""
"html-keyboard-response","187","769195","0.0-4.0-1.0-0.19","7zufyb5bnk933ge","prime","5dc9de05292aaa6e477846c1","5f60e3c0a3b16e07647b2ff9","5f61dbfde45bc218bc50d55c","false","null","<span style=""color: black; font-size: 48px"">M + N</span>","null","","","","resp_prompt","","","","","","","","","","","","","","","",""
"categorize-image","188","770445","0.0-4.0-1.0-1.19","7zufyb5bnk933ge","prime","5dc9de05292aaa6e477846c1","5f60e3c0a3b16e07647b2ff9","5f61dbfde45bc218bc50d55c","true","1246.5350000420585","./Stimuli/SelectedImages/SM/SM106.bmp","83","","","","test","true","M + N","83","repetition","SM","SM106.bmp","remember","","68","3","prime1","left","","","",""
"html-keyboard-response","189","772446","0.0-4.0-1.0-3.19","7zufyb5bnk933ge","prime","5dc9de05292aaa6e477846c1","5f60e3c0a3b16e07647b2ff9","5f61dbfde45bc218bc50d55c","false","null","<div style=""align-items: center; display: flex; color: dodgerblue; font-size: 90px""><b>o</b></div>","null","","","","forget_cue","","","","","","","","","","","","","","","",""
"html-keyboard-response","190","773148","0.0-4.0-1.0-0.20","7zufyb5bnk933ge","prime","5dc9de05292aaa6e477846c1","5f60e3c0a3b16e07647b2ff9","5f61dbfde45bc218bc50d55c","false","null","<span style=""color: black; font-size: 48px"">N + M</span>","null","","","","resp_prompt","","","","","","","","","","","","","","","",""
"categorize-image","191","773921","0.0-4.0-1.0-1.20","7zufyb5bnk933ge","prime","5dc9de05292aaa6e477846c1","5f60e3c0a3b16e07647b2ff9","5f61dbfde45bc218bc50d55c","true","769.4299999857321","./Stimuli/SelectedImages/SM/SM128.bmp","83","","","","test","false","N + M","76","switch","SM","SM128.bmp","remember","","69","3","prime1","left","","","",""
"html-keyboard-response","192","774424","0.0-4.0-1.0-2.20-0.20","7zufyb5bnk933ge","prime","5dc9de05292aaa6e477846c1","5f60e3c0a3b16e07647b2ff9","5f61dbfde45bc218bc50d55c","false","null","<span style=""color: red; font-size: 48px"">Error!</span>","null","","","","feedback","","","","","","","","","","","","","","","",""
"html-keyboard-response","193","776426","0.0-4.0-1.0-3.20","7zufyb5bnk933ge","prime","5dc9de05292aaa6e477846c1","5f60e3c0a3b16e07647b2ff9","5f61dbfde45bc218bc50d55c","false","null","<div style=""align-items: center; display: flex; color: dodgerblue; font-size: 90px""><b>o</b></div>","null","","","","forget_cue","","","","","","","","","","","","","","","",""
"html-keyboard-response","194","777127","0.0-4.0-1.0-0.21","7zufyb5bnk933ge","prime","5dc9de05292aaa6e477846c1","5f60e3c0a3b16e07647b2ff9","5f61dbfde45bc218bc50d55c","false","null","<span style=""color: black; font-size: 48px"">M + N</span>","null","","","","resp_prompt","","","","","","","","","","","","","","","",""
"categorize-image","195","778031","0.0-4.0-1.0-1.21","7zufyb5bnk933ge","prime","5dc9de05292aaa6e477846c1","5f60e3c0a3b16e07647b2ff9","5f61dbfde45bc218bc50d55c","true","900.9850000729784","./Stimuli/SelectedImages/LN/LN149.bmp","76","","","","test","true","M + N","76","switch","LN","LN149.bmp","forget","","70","3","prime1","right","","","",""
"html-keyboard-response","196","780033","0.0-4.0-1.0-3.21","7zufyb5bnk933ge","prime","5dc9de05292aaa6e477846c1","5f60e3c0a3b16e07647b2ff9","5f61dbfde45bc218bc50d55c","false","null","<div style=""align-items: center; display: flex; color: darkorange; font-size: 90px""><b>ø</b></div>","null","","","","forget_cue","","","","","","","","","","","","","","","",""
"html-keyboard-response","197","780735","0.0-4.0-1.0-0.22","7zufyb5bnk933ge","prime","5dc9de05292aaa6e477846c1","5f60e3c0a3b16e07647b2ff9","5f61dbfde45bc218bc50d55c","false","null","<span style=""color: black; font-size: 48px"">N + M</span>","null","","","","resp_prompt","","","","","","","","","","","","","","","",""
"categorize-image","198","781870","0.0-4.0-1.0-1.22","7zufyb5bnk933ge","prime","5dc9de05292aaa6e477846c1","5f60e3c0a3b16e07647b2ff9","5f61dbfde45bc218bc50d55c","true","1131.359999999404","./Stimuli/SelectedImages/LM/LM167.bmp","76","","","","test","true","N + M","76","repetition","LM","LM167.bmp","forget","","71","3","prime1","right","","","",""
"html-keyboard-response","199","783872","0.0-4.0-1.0-3.22","7zufyb5bnk933ge","prime","5dc9de05292aaa6e477846c1","5f60e3c0a3b16e07647b2ff9","5f61dbfde45bc218bc50d55c","false","null","<div style=""align-items: center; display: flex; color: darkorange; font-size: 90px""><b>ø</b></div>","null","","","","forget_cue","","","","","","","","","","","","","","","",""
"html-keyboard-response","200","784578","0.0-4.0-1.0-0.23","7zufyb5bnk933ge","prime","5dc9de05292aaa6e477846c1","5f60e3c0a3b16e07647b2ff9","5f61dbfde45bc218bc50d55c","false","null","<span style=""color: black; font-size: 48px"">N + M</span>","null","","","","resp_prompt","","","","","","","","","","","","","","","",""
"categorize-image","201","785378","0.0-4.0-1.0-1.23","7zufyb5bnk933ge","prime","5dc9de05292aaa6e477846c1","5f60e3c0a3b16e07647b2ff9","5f61dbfde45bc218bc50d55c","true","797.3100000526756","./Stimuli/SelectedImages/LN/LN28.bmp","83","","","","test","true","N + M","83","repetition","LN","LN28.bmp","remember","","72","3","prime1","left","","","",""
"html-keyboard-response","202","787382","0.0-4.0-1.0-3.23","7zufyb5bnk933ge","prime","5dc9de05292aaa6e477846c1","5f60e3c0a3b16e07647b2ff9","5f61dbfde45bc218bc50d55c","false","null","<div style=""align-items: center; display: flex; color: dodgerblue; font-size: 90px""><b>o</b></div>","null","","","","forget_cue","","","","","","","","","","","","","","","",""
"html-keyboard-response","203","788085","0.0-4.0-1.0-0.24","7zufyb5bnk933ge","prime","5dc9de05292aaa6e477846c1","5f60e3c0a3b16e07647b2ff9","5f61dbfde45bc218bc50d55c","false","null","<span style=""color: black; font-size: 48px"">N + M</span>","null","","","","resp_prompt","","","","","","","","","","","","","","","",""
"categorize-image","204","788990","0.0-4.0-1.0-1.24","7zufyb5bnk933ge","prime","5dc9de05292aaa6e477846c1","5f60e3c0a3b16e07647b2ff9","5f61dbfde45bc218bc50d55c","true","902.4950000457466","./Stimuli/SelectedImages/SM/SM78.bmp","83","","","","test","false","N + M","76","repetition","SM","SM78.bmp","remember","","73","3","prime1","left","","","",""
"html-keyboard-response","205","789492","0.0-4.0-1.0-2.24-0.24","7zufyb5bnk933ge","prime","5dc9de05292aaa6e477846c1","5f60e3c0a3b16e07647b2ff9","5f61dbfde45bc218bc50d55c","false","null","<span style=""color: red; font-size: 48px"">Error!</span>","null","","","","feedback","","","","","","","","","","","","","","","",""
"html-keyboard-response","206","791498","0.0-4.0-1.0-3.24","7zufyb5bnk933ge","prime","5dc9de05292aaa6e477846c1","5f60e3c0a3b16e07647b2ff9","5f61dbfde45bc218bc50d55c","false","null","<div style=""align-items: center; display: flex; color: dodgerblue; font-size: 90px""><b>o</b></div>","null","","","","forget_cue","","","","","","","","","","","","","","","",""
"html-keyboard-response","207","792200","0.0-4.0-1.0-0.25","7zufyb5bnk933ge","prime","5dc9de05292aaa6e477846c1","5f60e3c0a3b16e07647b2ff9","5f61dbfde45bc218bc50d55c","false","null","<span style=""color: black; font-size: 48px"">M + N</span>","null","","","","resp_prompt","","","","","","","","","","","","","","","",""
"categorize-image","208","793350","0.0-4.0-1.0-1.25","7zufyb5bnk933ge","prime","5dc9de05292aaa6e477846c1","5f60e3c0a3b16e07647b2ff9","5f61dbfde45bc218bc50d55c","true","1146.1899999994785","./Stimuli/SelectedImages/LM/LM48.bmp","76","","","","test","false","M + N","83","switch","LM","LM48.bmp","remember","","74","3","prime1","right","","","",""
"html-keyboard-response","209","793851","0.0-4.0-1.0-2.25-0.25","7zufyb5bnk933ge","prime","5dc9de05292aaa6e477846c1","5f60e3c0a3b16e07647b2ff9","5f61dbfde45bc218bc50d55c","false","null","<span style=""color: red; font-size: 48px"">Error!</span>","null","","","","feedback","","","","","","","","","","","","","","","",""
"html-keyboard-response","210","795852","0.0-4.0-1.0-3.25","7zufyb5bnk933ge","prime","5dc9de05292aaa6e477846c1","5f60e3c0a3b16e07647b2ff9","5f61dbfde45bc218bc50d55c","false","null","<div style=""align-items: center; display: flex; color: dodgerblue; font-size: 90px""><b>o</b></div>","null","","","","forget_cue","","","","","","","","","","","","","","","",""
"html-keyboard-response","211","796554","0.0-4.0-1.0-0.26","7zufyb5bnk933ge","prime","5dc9de05292aaa6e477846c1","5f60e3c0a3b16e07647b2ff9","5f61dbfde45bc218bc50d55c","false","null","<span style=""color: black; font-size: 48px"">M + N</span>","null","","","","resp_prompt","","","","","","","","","","","","","","","",""
"categorize-image","212","797620","0.0-4.0-1.0-1.26","7zufyb5bnk933ge","prime","5dc9de05292aaa6e477846c1","5f60e3c0a3b16e07647b2ff9","5f61dbfde45bc218bc50d55c","true","1062.5650000292808","./Stimuli/SelectedImages/SM/SM205.bmp","76","","","","test","false","M + N","83","repetition","SM","SM205.bmp","forget","","75","3","prime1","right","","","",""
"html-keyboard-response","213","798121","0.0-4.0-1.0-2.26-0.26","7zufyb5bnk933ge","prime","5dc9de05292aaa6e477846c1","5f60e3c0a3b16e07647b2ff9","5f61dbfde45bc218bc50d55c","false","null","<span style=""color: red; font-size: 48px"">Error!</span>","null","","","","feedback","","","","","","","","","","","","","","","",""
"html-keyboard-response","214","800127","0.0-4.0-1.0-3.26","7zufyb5bnk933ge","prime","5dc9de05292aaa6e477846c1","5f60e3c0a3b16e07647b2ff9","5f61dbfde45bc218bc50d55c","false","null","<div style=""align-items: center; display: flex; color: darkorange; font-size: 90px""><b>ø</b></div>","null","","","","forget_cue","","","","","","","","","","","","","","","",""
"html-keyboard-response","215","800832","0.0-4.0-1.0-0.27","7zufyb5bnk933ge","prime","5dc9de05292aaa6e477846c1","5f60e3c0a3b16e07647b2ff9","5f61dbfde45bc218bc50d55c","false","null","<span style=""color: black; font-size: 48px"">N + M</span>","null","","","","resp_prompt","","","","","","","","","","","","","","","",""
"categorize-image","216","801610","0.0-4.0-1.0-1.27","7zufyb5bnk933ge","prime","5dc9de05292aaa6e477846c1","5f60e3c0a3b16e07647b2ff9","5f61dbfde45bc218bc50d55c","true","774.7699999017641","./Stimuli/SelectedImages/LM/LM179.bmp","83","","","","test","false","N + M","76","repetition","LM","LM179.bmp","remember","","76","3","prime1","left","","","",""
"html-keyboard-response","217","802112","0.0-4.0-1.0-2.27-0.27","7zufyb5bnk933ge","prime","5dc9de05292aaa6e477846c1","5f60e3c0a3b16e07647b2ff9","5f61dbfde45bc218bc50d55c","false","null","<span style=""color: red; font-size: 48px"">Error!</span>","null","","","","feedback","","","","","","","","","","","","","","","",""
"html-keyboard-response","218","804118","0.0-4.0-1.0-3.27","7zufyb5bnk933ge","prime","5dc9de05292aaa6e477846c1","5f60e3c0a3b16e07647b2ff9","5f61dbfde45bc218bc50d55c","false","null","<div style=""align-items: center; display: flex; color: dodgerblue; font-size: 90px""><b>o</b></div>","null","","","","forget_cue","","","","","","","","","","","","","","","",""
"html-keyboard-response","219","804820","0.0-4.0-1.0-0.28","7zufyb5bnk933ge","prime","5dc9de05292aaa6e477846c1","5f60e3c0a3b16e07647b2ff9","5f61dbfde45bc218bc50d55c","false","null","<span style=""color: black; font-size: 48px"">N + M</span>","null","","","","resp_prompt","","","","","","","","","","","","","","","",""
"categorize-image","220","806015","0.0-4.0-1.0-1.28","7zufyb5bnk933ge","prime","5dc9de05292aaa6e477846c1","5f60e3c0a3b16e07647b2ff9","5f61dbfde45bc218bc50d55c","true","1191.425000084564","./Stimuli/SelectedImages/SM/SM213.bmp","76","","","","test","true","N + M","76","repetition","SM","SM213.bmp","forget","","77","3","prime1","right","","","",""
"html-keyboard-response","221","808019","0.0-4.0-1.0-3.28","7zufyb5bnk933ge","prime","5dc9de05292aaa6e477846c1","5f60e3c0a3b16e07647b2ff9","5f61dbfde45bc218bc50d55c","false","null","<div style=""align-items: center; display: flex; color: darkorange; font-size: 90px""><b>ø</b></div>","null","","","","forget_cue","","","","","","","","","","","","","","","",""
"html-keyboard-response","222","808721","0.0-4.0-1.0-0.29","7zufyb5bnk933ge","prime","5dc9de05292aaa6e477846c1","5f60e3c0a3b16e07647b2ff9","5f61dbfde45bc218bc50d55c","false","null","<span style=""color: black; font-size: 48px"">M + N</span>","null","","","","resp_prompt","","","","","","","","","","","","","","","",""
"categorize-image","223","809674","0.0-4.0-1.0-1.29","7zufyb5bnk933ge","prime","5dc9de05292aaa6e477846c1","5f60e3c0a3b16e07647b2ff9","5f61dbfde45bc218bc50d55c","true","949.2350000655279","./Stimuli/SelectedImages/SN/SN27.bmp","83","","","","test","false","M + N","76","repetition","SN","SN27.bmp","forget","","78","3","prime1","left","","","",""
"html-keyboard-response","224","810175","0.0-4.0-1.0-2.29-0.29","7zufyb5bnk933ge","prime","5dc9de05292aaa6e477846c1","5f60e3c0a3b16e07647b2ff9","5f61dbfde45bc218bc50d55c","false","null","<span style=""color: red; font-size: 48px"">Error!</span>","null","","","","feedback","","","","","","","","","","","","","","","",""
"html-keyboard-response","225","812181","0.0-4.0-1.0-3.29","7zufyb5bnk933ge","prime","5dc9de05292aaa6e477846c1","5f60e3c0a3b16e07647b2ff9","5f61dbfde45bc218bc50d55c","false","null","<div style=""align-items: center; display: flex; color: darkorange; font-size: 90px""><b>ø</b></div>","null","","","","forget_cue","","","","","","","","","","","","","","","",""
"html-keyboard-response","226","812883","0.0-4.0-1.0-0.30","7zufyb5bnk933ge","prime","5dc9de05292aaa6e477846c1","5f60e3c0a3b16e07647b2ff9","5f61dbfde45bc218bc50d55c","false","null","<span style=""color: black; font-size: 48px"">N + M</span>","null","","","","resp_prompt","","","","","","","","","","","","","","","",""
"categorize-image","227","814718","0.0-4.0-1.0-1.30","7zufyb5bnk933ge","prime","5dc9de05292aaa6e477846c1","5f60e3c0a3b16e07647b2ff9","5f61dbfde45bc218bc50d55c","true","1831.800000043586","./Stimuli/SelectedImages/SN/SN179.bmp","76","","","","test","false","N + M","83","repetition","SN","SN179.bmp","remember","","79","3","prime1","right","","","",""
"html-keyboard-response","228","815220","0.0-4.0-1.0-2.30-0.30","7zufyb5bnk933ge","prime","5dc9de05292aaa6e477846c1","5f60e3c0a3b16e07647b2ff9","5f61dbfde45bc218bc50d55c","false","null","<span style=""color: red; font-size: 48px"">Error!</span>","null","","","","feedback","","","","","","","","","","","","","","","",""
"html-keyboard-response","229","817226","0.0-4.0-1.0-3.30","7zufyb5bnk933ge","prime","5dc9de05292aaa6e477846c1","5f60e3c0a3b16e07647b2ff9","5f61dbfde45bc218bc50d55c","false","null","<div style=""align-items: center; display: flex; color: dodgerblue; font-size: 90px""><b>o</b></div>","null","","","","forget_cue","","","","","","","","","","","","","","","",""
"html-keyboard-response","230","817927","0.0-4.0-1.0-0.31","7zufyb5bnk933ge","prime","5dc9de05292aaa6e477846c1","5f60e3c0a3b16e07647b2ff9","5f61dbfde45bc218bc50d55c","false","null","<span style=""color: black; font-size: 48px"">N + M</span>","null","","","","resp_prompt","","","","","","","","","","","","","","","",""
"categorize-image","231","818725","0.0-4.0-1.0-1.31","7zufyb5bnk933ge","prime","5dc9de05292aaa6e477846c1","5f60e3c0a3b16e07647b2ff9","5f61dbfde45bc218bc50d55c","true","794.895000057295","./Stimuli/SelectedImages/LN/LN13.bmp","83","","","","test","true","N + M","83","switch","LN","LN13.bmp","remember","","80","3","prime1","left","","","",""
"html-keyboard-response","232","820727","0.0-4.0-1.0-3.31","7zufyb5bnk933ge","prime","5dc9de05292aaa6e477846c1","5f60e3c0a3b16e07647b2ff9","5f61dbfde45bc218bc50d55c","false","null","<div style=""align-items: center; display: flex; color: dodgerblue; font-size: 90px""><b>o</b></div>","null","","","","forget_cue","","","","","","","","","","","","","","","",""
"html-keyboard-response","233","821428","0.0-4.0-1.0-0.32","7zufyb5bnk933ge","prime","5dc9de05292aaa6e477846c1","5f60e3c0a3b16e07647b2ff9","5f61dbfde45bc218bc50d55c","false","null","<span style=""color: black; font-size: 48px"">M + N</span>","null","","","","resp_prompt","","","","","","","","","","","","","","","",""
"categorize-image","234","822884","0.0-4.0-1.0-1.32","7zufyb5bnk933ge","prime","5dc9de05292aaa6e477846c1","5f60e3c0a3b16e07647b2ff9","5f61dbfde45bc218bc50d55c","true","1453.0050000175834","./Stimuli/SelectedImages/LM/LM51.bmp","76","","","","test","false","M + N","83","repetition","LM","LM51.bmp","remember","","81","3","prime1","right","","","",""
"html-keyboard-response","235","823385","0.0-4.0-1.0-2.32-0.32","7zufyb5bnk933ge","prime","5dc9de05292aaa6e477846c1","5f60e3c0a3b16e07647b2ff9","5f61dbfde45bc218bc50d55c","false","null","<span style=""color: red; font-size: 48px"">Error!</span>","null","","","","feedback","","","","","","","","","","","","","","","",""
"html-keyboard-response","236","825391","0.0-4.0-1.0-3.32","7zufyb5bnk933ge","prime","5dc9de05292aaa6e477846c1","5f60e3c0a3b16e07647b2ff9","5f61dbfde45bc218bc50d55c","false","null","<div style=""align-items: center; display: flex; color: dodgerblue; font-size: 90px""><b>o</b></div>","null","","","","forget_cue","","","","","","","","","","","","","","","",""
"html-keyboard-response","237","826096","0.0-4.0-1.0-0.33","7zufyb5bnk933ge","prime","5dc9de05292aaa6e477846c1","5f60e3c0a3b16e07647b2ff9","5f61dbfde45bc218bc50d55c","false","null","<span style=""color: black; font-size: 48px"">N + M</span>","null","","","","resp_prompt","","","","","","","","","","","","","","","",""
"categorize-image","238","827861","0.0-4.0-1.0-1.33","7zufyb5bnk933ge","prime","5dc9de05292aaa6e477846c1","5f60e3c0a3b16e07647b2ff9","5f61dbfde45bc218bc50d55c","true","1762.6150000141934","./Stimuli/SelectedImages/SM/SM184.bmp","76","","","","test","true","N + M","76","switch","SM","SM184.bmp","remember","","82","3","prime1","right","","","",""
"html-keyboard-response","239","829865","0.0-4.0-1.0-3.33","7zufyb5bnk933ge","prime","5dc9de05292aaa6e477846c1","5f60e3c0a3b16e07647b2ff9","5f61dbfde45bc218bc50d55c","false","null","<div style=""align-items: center; display: flex; color: dodgerblue; font-size: 90px""><b>o</b></div>","null","","","","forget_cue","","","","","","","","","","","","","","","",""
"html-keyboard-response","240","830566","0.0-4.0-1.0-0.34","7zufyb5bnk933ge","prime","5dc9de05292aaa6e477846c1","5f60e3c0a3b16e07647b2ff9","5f61dbfde45bc218bc50d55c","false","null","<span style=""color: black; font-size: 48px"">N + M</span>","null","","","","resp_prompt","","","","","","","","","","","","","","","",""
"categorize-image","241","831387","0.0-4.0-1.0-1.34","7zufyb5bnk933ge","prime","5dc9de05292aaa6e477846c1","5f60e3c0a3b16e07647b2ff9","5f61dbfde45bc218bc50d55c","true","817.4749999307096","./Stimuli/SelectedImages/SM/SM200.bmp","76","","","","test","true","N + M","76","repetition","SM","SM200.bmp","forget","","83","3","prime1","right","","","",""
"html-keyboard-response","242","833392","0.0-4.0-1.0-3.34","7zufyb5bnk933ge","prime","5dc9de05292aaa6e477846c1","5f60e3c0a3b16e07647b2ff9","5f61dbfde45bc218bc50d55c","false","null","<div style=""align-items: center; display: flex; color: darkorange; font-size: 90px""><b>ø</b></div>","null","","","","forget_cue","","","","","","","","","","","","","","","",""
"html-keyboard-response","243","834095","0.0-4.0-1.0-0.35","7zufyb5bnk933ge","prime","5dc9de05292aaa6e477846c1","5f60e3c0a3b16e07647b2ff9","5f61dbfde45bc218bc50d55c","false","null","<span style=""color: black; font-size: 48px"">N + M</span>","null","","","","resp_prompt","","","","","","","","","","","","","","","",""
"categorize-image","244","836103","0.0-4.0-1.0-1.35","7zufyb5bnk933ge","prime","5dc9de05292aaa6e477846c1","5f60e3c0a3b16e07647b2ff9","5f61dbfde45bc218bc50d55c","true","null","./Stimuli/SelectedImages/LN/LN92.bmp","null","","","","test","false","N + M","83","repetition","LN","LN92.bmp","forget","","84","3","prime1","too_slow","","","",""
"html-keyboard-response","245","836608","0.0-4.0-1.0-2.35-0.35","7zufyb5bnk933ge","prime","5dc9de05292aaa6e477846c1","5f60e3c0a3b16e07647b2ff9","5f61dbfde45bc218bc50d55c","false","null","<span style=""color: red; font-size: 48px"">Too slow!</span>","null","","","","feedback","","","","","","","","","","","","","","","",""
"html-keyboard-response","246","838611","0.0-4.0-1.0-3.35","7zufyb5bnk933ge","prime","5dc9de05292aaa6e477846c1","5f60e3c0a3b16e07647b2ff9","5f61dbfde45bc218bc50d55c","false","null","<div style=""align-items: center; display: flex; color: darkorange; font-size: 90px""><b>ø</b></div>","null","","","","forget_cue","","","","","","","","","","","","","","","",""
"html-keyboard-response","247","839313","0.0-4.0-1.0-0.36","7zufyb5bnk933ge","prime","5dc9de05292aaa6e477846c1","5f60e3c0a3b16e07647b2ff9","5f61dbfde45bc218bc50d55c","false","null","<span style=""color: black; font-size: 48px"">N + M</span>","null","","","","resp_prompt","","","","","","","","","","","","","","","",""
"categorize-image","248","839898","0.0-4.0-1.0-1.36","7zufyb5bnk933ge","prime","5dc9de05292aaa6e477846c1","5f60e3c0a3b16e07647b2ff9","5f61dbfde45bc218bc50d55c","true","581.8849999923259","./Stimuli/SelectedImages/SN/SN18.bmp","83","","","","test","true","N + M","83","switch","SN","SN18.bmp","forget","","85","3","prime1","left","","","",""
"html-keyboard-response","249","841903","0.0-4.0-1.0-3.36","7zufyb5bnk933ge","prime","5dc9de05292aaa6e477846c1","5f60e3c0a3b16e07647b2ff9","5f61dbfde45bc218bc50d55c","false","null","<div style=""align-items: center; display: flex; color: darkorange; font-size: 90px""><b>ø</b></div>","null","","","","forget_cue","","","","","","","","","","","","","","","",""
"html-keyboard-response","250","842605","0.0-4.0-1.0-0.37","7zufyb5bnk933ge","prime","5dc9de05292aaa6e477846c1","5f60e3c0a3b16e07647b2ff9","5f61dbfde45bc218bc50d55c","false","null","<span style=""color: black; font-size: 48px"">M + N</span>","null","","","","resp_prompt","","","","","","","","","","","","","","","",""
"categorize-image","251","843394","0.0-4.0-1.0-1.37","7zufyb5bnk933ge","prime","5dc9de05292aaa6e477846c1","5f60e3c0a3b16e07647b2ff9","5f61dbfde45bc218bc50d55c","true","786.2300000851974","./Stimuli/SelectedImages/LN/LN101.bmp","83","","","","test","false","M + N","76","switch","LN","LN101.bmp","forget","","86","3","prime1","left","","","",""
"html-keyboard-response","252","843896","0.0-4.0-1.0-2.37-0.37","7zufyb5bnk933ge","prime","5dc9de05292aaa6e477846c1","5f60e3c0a3b16e07647b2ff9","5f61dbfde45bc218bc50d55c","false","null","<span style=""color: red; font-size: 48px"">Error!</span>","null","","","","feedback","","","","","","","","","","","","","","","",""
"html-keyboard-response","253","845902","0.0-4.0-1.0-3.37","7zufyb5bnk933ge","prime","5dc9de05292aaa6e477846c1","5f60e3c0a3b16e07647b2ff9","5f61dbfde45bc218bc50d55c","false","null","<div style=""align-items: center; display: flex; color: darkorange; font-size: 90px""><b>ø</b></div>","null","","","","forget_cue","","","","","","","","","","","","","","","",""
