"trial_type","trial_index","time_elapsed","internal_node_id","subject","exp_part","prolific_PID","study_ID","session_ID","use","rt","stimulus","key_press","button_pressed","responses","question_order","trial_part","correct","resp_map","correct_resp","probe_condition","category","image","forget_condition","list","trial_num","block_num","block","response","test_part","n_span","sequence","num_spaces"
"pavlovia","0","16","0.0-0.0","og2lv2cav4jgrfz","","5f5fb07f3a1060048b583bdc","5f60e3c0a3b16e07647b2ff9","5f60eb79b140150109df7a6f","false","","","","","","","","","","","","","","","","","","","","","","",""
"html-keyboard-response","1","13782","0.0-1.0-0.0-0.0","og2lv2cav4jgrfz","welcome","5f5fb07f3a1060048b583bdc","5f60e3c0a3b16e07647b2ff9","5f60eb79b140150109df7a6f","false","13760.974999982864","<div align=left>Dear participant, <br> thank you for participating in an online study of the Cognition, Action, and Sustainability Unit of the University of Freiburg! <br> <br>The aim of this study is to examine our ability to remember previously learned information. <br>Our goal is to find out, whether our memory improves, when we only remember information that is relevant to us. <br>The experiment will take about 35 minutes to complete. <br> <br>Please, note that you can only participate in this study if you are using a device with a keyboard (PC, Laptop etc.) <br>and not if you are using a mobile device such as a tablet or smartphone.<br> <br>Press 'SPACE' to proceed to the experiment. </div>","32","","","","","","","","","","","","","","","","","","","",""
"html-keyboard-response","2","23008","0.0-1.0-0.0-1.0","og2lv2cav4jgrfz","welcome","5f5fb07f3a1060048b583bdc","5f60e3c0a3b16e07647b2ff9","5f60eb79b140150109df7a6f","false","9223.735000006855","<div align=left><strong> Time Course of this experiment: </strong> <br><br> <strong> 1.</strong>  First, please fill in some information regarding your demographic data. <br><br> <strong> 2.</strong>  Next, your task will be to classify everyday objects. <br>In addition, you will be asked to remember certain objects and recall them later. <br>Working on these tasks requires your undivided attention and concentration.<br>It is therefore essential that you eliminate any sources of distraction in your  <br>environment and ensure that you will not be disturbed. <br><br><strong> 3.</strong>  At the end of the experiment, you will be asked to answer a few additional questions. <br> <br><strong> Important:</strong> After finishing the experiment, only close the browser window <br> by clicking on the 'end the experiment'-button when you are asked to do so. <br>Closing the browser window prematurely will make the allocation of your participation credit impossible. <br><br> Press 'SPACE' to start the experiment. </div>","32","","","","","","","","","","","","","","","","","","","",""
"html-button-response","3","28935","0.0-1.0-0.0-2.0","og2lv2cav4jgrfz","welcome","5f5fb07f3a1060048b583bdc","5f60e3c0a3b16e07647b2ff9","5f60eb79b140150109df7a6f","true","5923.639999993611","<div align=left><strong> Informed consent </strong>  <br>The aim of our research is to better understand human behavior and mental processes. <br>In the following study your behavior (e.g. choices, reaction times) will be studied. <br> <br><strong> Voluntariness and Anonymity </strong> <br>Your participation in this study is  <strong> voluntary</strong>.<br>You may withdraw your consent to participate at any time without providing a reason for doing so and without fear of prejudice. <br><br>As no personal data will be collected, <strong>your data and your person cannot be connected after data collection</strong> – the data-set is anonymous. <br>Respectively, deletion of your data will not be possible after data collection has been completed, as we cannot retrace your data-set.<br>The results and anonymized data collected in this study will be published as a scientific publication. <br>This will happen in an <strong>anonymized format</strong>, so that no data can be traced back to a specific person. <br> <br>The anonymized data of this study will be made available to other researchers and/or in a data archive on the Internet as a means of transparency and to enable subsequent re-use. By doing so, this study follows the recommendations of the Deutsche Forschungsgemeinschaft (DFG, German Research Foundation) and Deutsche Gesellschaft für Psychologie (DGPS, German Psychological Society) regarding quality assurance in research.<br>If you have any questions now or after the experiment, please contact our team (experiments@cs.uni-freiburg.de).<br><br><br>I hereby declare, that I understand the above described conditions of participation and I agree to participate under these conditions. <br><br> </div>","","0","","","","","","","","","","","","","","","","","","",""
"html-keyboard-response","4","39023","0.0-1.0-0.0-3.0","og2lv2cav4jgrfz","welcome","5f5fb07f3a1060048b583bdc","5f60e3c0a3b16e07647b2ff9","5f60eb79b140150109df7a6f","false","10085.964999976568","<div align=left><strong> General information concerning the experiment </strong>  <br> <br>Please follow the instructions:<ol> <li><strong> Do not leave this tab (your browser window) during the experiment and do not reload this tab! </strong>  <br>If you do switch tabs/windows during the experiment (to check your mail or visit another website, for example), <br>the experiment will end automatically and you will <strong>not receive credit</strong> for your participation. <br>Repeated participation or resumption of the experiment is impossible.</li> <br><li>Please close all other programs for the duration of your participation. </li> <br><li>Please mute or turn off your phone and put it out of your reach. </li> <br><li>Please also take off any disturbing accessories (such as wristwatches, bracelets, etc.). </li> <br><li>If you have music playing in the background, please turn it off now. </li> <br></ol>Thank you! <br>Press 'SPACE' to continue. </div>","32","","","","","","","","","","","","","","","","","","","",""
"survey-text","5","43000","0.0-1.0-1.0-0.0","og2lv2cav4jgrfz","demographics","5f5fb07f3a1060048b583bdc","5f60e3c0a3b16e07647b2ff9","5f60eb79b140150109df7a6f","true","3972.36499999417","","","","{""age"":""20""}","","","","","","","","","","","","","","","","","",""
"survey-multi-choice","6","61512","0.0-1.0-1.0-1.0","og2lv2cav4jgrfz","demographics","5f5fb07f3a1060048b583bdc","5f60e3c0a3b16e07647b2ff9","5f60eb79b140150109df7a6f","true","18507.744999951683","","","","{""gender"":""female"",""school"":""high school"",""education"":""Still in training/ university""}","[0,1,2]","","","","","","","","","","","","","","","","",""
"survey-text","7","105507","0.0-1.0-1.0-2.0-0.0","og2lv2cav4jgrfz","demographics","5f5fb07f3a1060048b583bdc","5f60e3c0a3b16e07647b2ff9","5f60eb79b140150109df7a6f","true","43817.47000000905","","","","{""education_text"":""In my 3rd year of an undergraduate degree. My course is called Marine and Freshwater Biology.""}","","","","","","","","","","","","","","","","","",""
"html-keyboard-response","8","122371","0.0-1.0-2.0","og2lv2cav4jgrfz","instructions","5f5fb07f3a1060048b583bdc","5f60e3c0a3b16e07647b2ff9","5f60eb79b140150109df7a6f","false","16861.659999995027","<div align=left> The experiment is now about to start: <br> <br>In the following part, you will be presented pictures of everyday objects. <br>Your first task is to <strong>classify these objects. </strong> <br> <br> You will classify them either as mechanical or non-mechanical objects. <br> <br>Objects that include any kind of technical mechanism (for example, wheels, switches, levers, <br> electronic components) fall under the category of <strong>mechanical</strong> objects. <br>Only objects without any kind of technical mechanism should be classified as <strong>non-mechanical</strong>. <br><br>Press 'SPACE' to continue. </div>","32","","","","","","","","","","","","","","","","","","","",""
"html-keyboard-response","9","187100","0.0-2.0-0.0","og2lv2cav4jgrfz","instructions","5f5fb07f3a1060048b583bdc","5f60e3c0a3b16e07647b2ff9","5f60eb79b140150109df7a6f","false","64726.24499996891","<div align=justify>You will classify the objects using the <strong>'S'</strong> and the <strong>'L'</strong> keys on your keyboard.<br>For doing so, please place your <strong>left index finger</strong> on the <strong>'S'</strong> key and place your <strong>right index finger</strong> on the <strong>'L'</strong> key. <br><br> Each trial starts with an instruction, indicating which key ('S'/'L') you need to press to classify <br>the object as mechanical (letter M) or non-mechanical (letter N).<br>The instruction <strong>M + N</strong> indicates that, in the current trial, by pressing the left key ('S') you classify the displayed object as mechanical (M) <br> and by pressing the right key ('L') you classify the object as non-mechanical (N). <br>The instruction <strong>N + M</strong> on the other hand indicates that by pressing the left key ('S') you classify the displayed object as non-mechanical (N) <br> and by pressing the right key ('L') you classify the object as mechanical (M). <br><br>Please press the key corresponding to the correct classification as fast as possible as soon as the object is displayed and try to avoid making mistakes.<br>If you do not respond within a 2 second window, a corresponding feedback will be displayed and the next trial will start.<br> The experiment is divided into multiple blocks to give you the opportunity to take a break after each block. <br>First, you can now practice this task. <br><br>Please place your <strong>LEFT INDEX FINGER</strong> on the 'S' key and your <strong>RIGHT INDEX FINGER</strong> on the 'L' key now. <br><br>Press SPACE to continue.</div>","32","","","","","","","","","","","","","","","","","","","",""
"html-keyboard-response","10","193815","0.0-2.0-1.0","og2lv2cav4jgrfz","instructions","5f5fb07f3a1060048b583bdc","5f60e3c0a3b16e07647b2ff9","5f60eb79b140150109df7a6f","false","6713.4400000213645","<div align=left> You will now have time to practice this task.<br><br>Remember: <br> <br><li>Please place your index fingers on the <strong>'S'</strong> and <strong>'L'</strong> keys <br>to respond as fast and accurately as possible.</li><li>Every picture can be classified as either mechanical or non-mechanical.</li><li>If you do not respond in time or commit an error, you will receive a corresponding feedback. </li><li> Please try to respond as <strong> fast </strong> and as <strong> accurately as possible </strong> .<br><li>To ensure optimal results, please minimize distractions and stay focused. </li><br><br>Press SPACE to continue.</div>","32","","","","","","","","","","","","","","","","","","","",""
"html-keyboard-response","11","194520","0.0-2.0-2.0-0.0","og2lv2cav4jgrfz","practice_no_cue","5f5fb07f3a1060048b583bdc","5f60e3c0a3b16e07647b2ff9","5f60eb79b140150109df7a6f","false","null","<span style=""color: black; font-size: 48px"">M + N</span>","null","","","","resp_prompt","","","","","","","","","","","","","","","",""
"categorize-image","12","195917","0.0-2.0-2.0-1.0","og2lv2cav4jgrfz","practice_no_cue","5f5fb07f3a1060048b583bdc","5f60e3c0a3b16e07647b2ff9","5f60eb79b140150109df7a6f","true","886.11000002129","./Stimuli/ImagesPractice/SM98.jpg","83","","","","test","true","M + N","83","","SM","SM98.jpg","remember","old","1","1","start","left","","","",""
"html-keyboard-response","13","196635","0.0-2.0-2.0-0.1","og2lv2cav4jgrfz","practice_no_cue","5f5fb07f3a1060048b583bdc","5f60e3c0a3b16e07647b2ff9","5f60eb79b140150109df7a6f","false","null","<span style=""color: black; font-size: 48px"">N + M</span>","null","","","","resp_prompt","","","","","","","","","","","","","","","",""
"categorize-image","14","197165","0.0-2.0-2.0-1.1","og2lv2cav4jgrfz","practice_no_cue","5f5fb07f3a1060048b583bdc","5f60e3c0a3b16e07647b2ff9","5f60eb79b140150109df7a6f","true","16.485000029206276","./Stimuli/ImagesPractice/LM143.jpg","76","","","","test","true","N + M","76","","LM","LM143.jpg","forget","old","2","1","start","right","","","",""
"html-keyboard-response","15","197868","0.0-2.0-2.0-0.2","og2lv2cav4jgrfz","practice_no_cue","5f5fb07f3a1060048b583bdc","5f60e3c0a3b16e07647b2ff9","5f60eb79b140150109df7a6f","false","null","<span style=""color: black; font-size: 48px"">N + M</span>","null","","","","resp_prompt","","","","","","","","","","","","","","","",""
"categorize-image","16","200261","0.0-2.0-2.0-1.2","og2lv2cav4jgrfz","practice_no_cue","5f5fb07f3a1060048b583bdc","5f60e3c0a3b16e07647b2ff9","5f60eb79b140150109df7a6f","true","1881.3799999770708","./Stimuli/ImagesPractice/SM62.jpg","76","","","","test","true","N + M","76","","SM","SM62.jpg","forget","old","3","1","start","right","","","",""
"html-keyboard-response","17","200964","0.0-2.0-2.0-0.3","og2lv2cav4jgrfz","practice_no_cue","5f5fb07f3a1060048b583bdc","5f60e3c0a3b16e07647b2ff9","5f60eb79b140150109df7a6f","false","null","<span style=""color: black; font-size: 48px"">M + N</span>","null","","","","resp_prompt","","","","","","","","","","","","","","","",""
"categorize-image","18","202311","0.0-2.0-2.0-1.3","og2lv2cav4jgrfz","practice_no_cue","5f5fb07f3a1060048b583bdc","5f60e3c0a3b16e07647b2ff9","5f60eb79b140150109df7a6f","true","837.0699999504723","./Stimuli/ImagesPractice/LM224.jpg","76","","","","test","false","M + N","83","","LM","LM224.jpg","forget","old","4","1","start","right","","","",""
"html-keyboard-response","19","203014","0.0-2.0-2.0-0.4","og2lv2cav4jgrfz","practice_no_cue","5f5fb07f3a1060048b583bdc","5f60e3c0a3b16e07647b2ff9","5f60eb79b140150109df7a6f","false","null","<span style=""color: black; font-size: 48px"">N + M</span>","null","","","","resp_prompt","","","","","","","","","","","","","","","",""
"categorize-image","20","204792","0.0-2.0-2.0-1.4","og2lv2cav4jgrfz","practice_no_cue","5f5fb07f3a1060048b583bdc","5f60e3c0a3b16e07647b2ff9","5f60eb79b140150109df7a6f","true","1272.3899999982677","./Stimuli/ImagesPractice/LM147.jpg","83","","","","test","false","N + M","76","","LM","LM147.jpg","remember","old","5","1","start","left","","","",""
"html-keyboard-response","21","205494","0.0-2.0-2.0-0.5","og2lv2cav4jgrfz","practice_no_cue","5f5fb07f3a1060048b583bdc","5f60e3c0a3b16e07647b2ff9","5f60eb79b140150109df7a6f","false","null","<span style=""color: black; font-size: 48px"">M + N</span>","null","","","","resp_prompt","","","","","","","","","","","","","","","",""
"categorize-image","22","207056","0.0-2.0-2.0-1.5","og2lv2cav4jgrfz","practice_no_cue","5f5fb07f3a1060048b583bdc","5f60e3c0a3b16e07647b2ff9","5f60eb79b140150109df7a6f","true","1042.6100000040606","./Stimuli/ImagesPractice/SN221.jpg","76","","","","test","true","M + N","76","","SN","SN221.jpg","remember","old","6","1","start","right","","","",""
"html-keyboard-response","23","207759","0.0-2.0-2.0-0.6","og2lv2cav4jgrfz","practice_no_cue","5f5fb07f3a1060048b583bdc","5f60e3c0a3b16e07647b2ff9","5f60eb79b140150109df7a6f","false","null","<span style=""color: black; font-size: 48px"">N + M</span>","null","","","","resp_prompt","","","","","","","","","","","","","","","",""
"categorize-image","24","209170","0.0-2.0-2.0-1.6","og2lv2cav4jgrfz","practice_no_cue","5f5fb07f3a1060048b583bdc","5f60e3c0a3b16e07647b2ff9","5f60eb79b140150109df7a6f","true","896.8750000349246","./Stimuli/ImagesPractice/LM55.jpg","76","","","","test","true","N + M","76","","LM","LM55.jpg","forget","old","7","1","start","right","","","",""
"html-keyboard-response","25","209874","0.0-2.0-2.0-0.7","og2lv2cav4jgrfz","practice_no_cue","5f5fb07f3a1060048b583bdc","5f60e3c0a3b16e07647b2ff9","5f60eb79b140150109df7a6f","false","null","<span style=""color: black; font-size: 48px"">N + M</span>","null","","","","resp_prompt","","","","","","","","","","","","","","","",""
"categorize-image","26","211237","0.0-2.0-2.0-1.7","og2lv2cav4jgrfz","practice_no_cue","5f5fb07f3a1060048b583bdc","5f60e3c0a3b16e07647b2ff9","5f60eb79b140150109df7a6f","true","851.6350000281818","./Stimuli/ImagesPractice/SN75.jpg","83","","","","test","true","N + M","83","","SN","SN75.jpg","remember","old","8","1","start","left","","","",""
"html-keyboard-response","27","211939","0.0-2.0-2.0-0.8","og2lv2cav4jgrfz","practice_no_cue","5f5fb07f3a1060048b583bdc","5f60e3c0a3b16e07647b2ff9","5f60eb79b140150109df7a6f","false","null","<span style=""color: black; font-size: 48px"">M + N</span>","null","","","","resp_prompt","","","","","","","","","","","","","","","",""
"categorize-image","28","213434","0.0-2.0-2.0-1.8","og2lv2cav4jgrfz","practice_no_cue","5f5fb07f3a1060048b583bdc","5f60e3c0a3b16e07647b2ff9","5f60eb79b140150109df7a6f","true","986.0549999866635","./Stimuli/ImagesPractice/SN222.jpg","76","","","","test","true","M + N","76","","SN","SN222.jpg","remember","old","9","1","start","right","","","",""
"html-keyboard-response","29","214137","0.0-2.0-2.0-0.9","og2lv2cav4jgrfz","practice_no_cue","5f5fb07f3a1060048b583bdc","5f60e3c0a3b16e07647b2ff9","5f60eb79b140150109df7a6f","false","null","<span style=""color: black; font-size: 48px"">M + N</span>","null","","","","resp_prompt","","","","","","","","","","","","","","","",""
"categorize-image","30","215449","0.0-2.0-2.0-1.9","og2lv2cav4jgrfz","practice_no_cue","5f5fb07f3a1060048b583bdc","5f60e3c0a3b16e07647b2ff9","5f60eb79b140150109df7a6f","true","797.9499999783002","./Stimuli/ImagesPractice/LM239.jpg","76","","","","test","false","M + N","83","","LM","LM239.jpg","remember","old","10","1","start","right","","","",""
"html-keyboard-response","31","216152","0.0-2.0-2.0-0.10","og2lv2cav4jgrfz","practice_no_cue","5f5fb07f3a1060048b583bdc","5f60e3c0a3b16e07647b2ff9","5f60eb79b140150109df7a6f","false","null","<span style=""color: black; font-size: 48px"">M + N</span>","null","","","","resp_prompt","","","","","","","","","","","","","","","",""
"categorize-image","32","217630","0.0-2.0-2.0-1.10","og2lv2cav4jgrfz","practice_no_cue","5f5fb07f3a1060048b583bdc","5f60e3c0a3b16e07647b2ff9","5f60eb79b140150109df7a6f","true","961.5599999669939","./Stimuli/ImagesPractice/LN17.jpg","76","","","","test","true","M + N","76","","LN","LN17.jpg","forget","old","11","1","start","right","","","",""
"html-keyboard-response","33","218334","0.0-2.0-2.0-0.11","og2lv2cav4jgrfz","practice_no_cue","5f5fb07f3a1060048b583bdc","5f60e3c0a3b16e07647b2ff9","5f60eb79b140150109df7a6f","false","null","<span style=""color: black; font-size: 48px"">N + M</span>","null","","","","resp_prompt","","","","","","","","","","","","","","","",""
"categorize-image","34","219945","0.0-2.0-2.0-1.11","og2lv2cav4jgrfz","practice_no_cue","5f5fb07f3a1060048b583bdc","5f60e3c0a3b16e07647b2ff9","5f60eb79b140150109df7a6f","true","1102.8449999867007","./Stimuli/ImagesPractice/SM61.jpg","76","","","","test","true","N + M","76","","SM","SM61.jpg","remember","old","12","1","start","right","","","",""
"html-keyboard-response","35","220647","0.0-2.0-2.0-0.12","og2lv2cav4jgrfz","practice_no_cue","5f5fb07f3a1060048b583bdc","5f60e3c0a3b16e07647b2ff9","5f60eb79b140150109df7a6f","false","null","<span style=""color: black; font-size: 48px"">M + N</span>","null","","","","resp_prompt","","","","","","","","","","","","","","","",""
"categorize-image","36","222360","0.0-2.0-2.0-1.12","og2lv2cav4jgrfz","practice_no_cue","5f5fb07f3a1060048b583bdc","5f60e3c0a3b16e07647b2ff9","5f60eb79b140150109df7a6f","true","1203.8800000445917","./Stimuli/ImagesPractice/SM37.jpg","76","","","","test","false","M + N","83","","SM","SM37.jpg","forget","old","13","1","start","right","","","",""
"html-keyboard-response","37","223063","0.0-2.0-2.0-0.13","og2lv2cav4jgrfz","practice_no_cue","5f5fb07f3a1060048b583bdc","5f60e3c0a3b16e07647b2ff9","5f60eb79b140150109df7a6f","false","null","<span style=""color: black; font-size: 48px"">N + M</span>","null","","","","resp_prompt","","","","","","","","","","","","","","","",""
"categorize-image","38","224674","0.0-2.0-2.0-1.13","og2lv2cav4jgrfz","practice_no_cue","5f5fb07f3a1060048b583bdc","5f60e3c0a3b16e07647b2ff9","5f60eb79b140150109df7a6f","true","1094.9949999921955","./Stimuli/ImagesPractice/SM35.jpg","76","","","","test","true","N + M","76","","SM","SM35.jpg","remember","old","14","1","start","right","","","",""
"html-keyboard-response","39","225376","0.0-2.0-2.0-0.14","og2lv2cav4jgrfz","practice_no_cue","5f5fb07f3a1060048b583bdc","5f60e3c0a3b16e07647b2ff9","5f60eb79b140150109df7a6f","false","null","<span style=""color: black; font-size: 48px"">N + M</span>","null","","","","resp_prompt","","","","","","","","","","","","","","","",""
"categorize-image","40","226641","0.0-2.0-2.0-1.14","og2lv2cav4jgrfz","practice_no_cue","5f5fb07f3a1060048b583bdc","5f60e3c0a3b16e07647b2ff9","5f60eb79b140150109df7a6f","true","755.4300000192598","./Stimuli/ImagesPractice/SN220.jpg","83","","","","test","true","N + M","83","","SN","SN220.jpg","forget","old","15","1","start","left","","","",""
"html-keyboard-response","41","227358","0.0-2.0-2.0-0.15","og2lv2cav4jgrfz","practice_no_cue","5f5fb07f3a1060048b583bdc","5f60e3c0a3b16e07647b2ff9","5f60eb79b140150109df7a6f","false","null","<span style=""color: black; font-size: 48px"">M + N</span>","null","","","","resp_prompt","","","","","","","","","","","","","","","",""
"categorize-image","42","228552","0.0-2.0-2.0-1.15","og2lv2cav4jgrfz","practice_no_cue","5f5fb07f3a1060048b583bdc","5f60e3c0a3b16e07647b2ff9","5f60eb79b140150109df7a6f","true","685.7450000243261","./Stimuli/ImagesPractice/LN4.jpg","76","","","","test","true","M + N","76","","LN","LN4.jpg","forget","old","16","1","start","right","","","",""
"html-keyboard-response","43","233349","0.0-2.0-3.0","og2lv2cav4jgrfz","break","5f5fb07f3a1060048b583bdc","5f60e3c0a3b16e07647b2ff9","5f60eb79b140150109df7a6f","false","4792.414999974426","<p style='font-size: 32px;'>Break</><br><br><br><br><br><p style='font-size: 24px;'>In the last block, you committed 4 errors and did not respond in time on 0 trials.
</p><p style='font-size: 24px;'>Try to respond as fast and accurately as possible in the next block as well! </p><p style='font-size: 24px;'>Press SPACE to continue.</p>","32","","","","","","","","","","","","","","","","","","","",""
"html-keyboard-response","44","239026","0.0-2.0-4.0","og2lv2cav4jgrfz","instructions","5f5fb07f3a1060048b583bdc","5f60e3c0a3b16e07647b2ff9","5f60eb79b140150109df7a6f","false","5674.340000026859","<div align=left> Great!<br><br>Are you ready to continue?<br><br>If you want to reread the instructions and redo the practice trials, <br>please press „Z“. <br><br>Press SPACE to CONTINUE with the experiment when you are ready. </div>","32","","","","","","","","","","","","","","","","","","","",""
"html-keyboard-response","45","262425","0.0-3.0-0.0","og2lv2cav4jgrfz","instructions","5f5fb07f3a1060048b583bdc","5f60e3c0a3b16e07647b2ff9","5f60eb79b140150109df7a6f","false","23410.600000002887","<div align=left>Great!<br> <strong>Attention</strong>! You will now receive a second, additional task! <br><br>To this point it was you <strong>first task</strong> to correctly <strong>classify objects</strong>. <br><br>As mentioned in the beginning, we aim to examine how well humans can remember previously learned information.<br>We would like to find out whether our memory improves if we only remember information that is relevant to us. <br><br>Therefore, your <strong>second task</strong> will be to <strong>remember</strong> the pictures you are to categorize. <br> After the learning phase, there will be a memory test phase, in which you will be asked to indicate whether you have seen a picture before or not. <br>Some, but not all pictures shown in the learning phase will appear in the memory test phase.<br>After classifying a picture, you will be told whether you should remember it for the memory test phase or not. <br>Thus, some pictures can be forgotten, whereas others have to be remembered. <br><br>Note: From now on, feedback will only be displayed if you responded incorrectly or not in time.<br><br>Press SPACE to continue.</div>","32","","","","","","","","","","","","","","","","","","","",""
"html-keyboard-response","46","278809","0.0-3.0-1.0","og2lv2cav4jgrfz","instructions","5f5fb07f3a1060048b583bdc","5f60e3c0a3b16e07647b2ff9","5f60eb79b140150109df7a6f","false","16381.600000022445","<div align=left>In the following part, you will thus have to remember only some pictures. <br>Immediately after seeing and classifying the picture, a symbol will be displayed, indicating whether you should remember or forget the previous picture. <br><br>A <span style='color: dodgerblue; font-size: 28px'>O</span> indicates REMEMBER. That means, you have to remember this picture, because it will be tested later. <br><br>A <span style='color: darkorange; font-size:28px'>Ø</span> indicates FORGET. You do not have to remember this picture. <br><br> As you will have to remember a lot of pictures, it will be hard for you to remember all of them. <br>It will put you at an advantage if you instantly forget the pictures you are not asked to remember. <br> This will make it easier for you to remember the pictures that will be tested afterwards. <br><br>Press SPACE to continue.</div>","32","","","","","","","","","","","","","","","","","","","",""
"html-keyboard-response","47","281279","0.0-3.0-2.0","og2lv2cav4jgrfz","instructions","5f5fb07f3a1060048b583bdc","5f60e3c0a3b16e07647b2ff9","5f60eb79b140150109df7a6f","false","2467.0250000199303","<div align=left> Now you have the chance to practice both tasks together.<br><br>Remember: <br> <br><li>Please place your index fingers on the <strong>'S'</strong> and <strong>'L'</strong> keys <br>to respond as fast and accurately as possible.</li><li>Every picture can be classified as either mechanical or non-mechanical.</li><li>If you do not respond in time or commit an error, you will receive a corresponding feedback. <br>Please try to respond as <strong> fast </strong> and as <strong> accurately as possible </strong>.</li><li> Please remember only the to-be-remembered <span style='color: dodgerblue; font-size: 28px'>O</span> pictures. <br></li><li> Please minimize distractions and stay focused. </li><br><br>Press SPACE to START</div>","32","","","","","","","","","","","","","","","","","","","",""
"html-keyboard-response","48","281996","0.0-3.0-3.0-0.0","og2lv2cav4jgrfz","practice_cue","5f5fb07f3a1060048b583bdc","5f60e3c0a3b16e07647b2ff9","5f60eb79b140150109df7a6f","false","null","<span style=""color: black; font-size: 48px"">N + M</span>","null","","","","resp_prompt","","","","","","","","","","","","","","","",""
"categorize-image","49","282611","0.0-3.0-3.0-1.0","og2lv2cav4jgrfz","practice_cue","5f5fb07f3a1060048b583bdc","5f60e3c0a3b16e07647b2ff9","5f60eb79b140150109df7a6f","true","608.3349999971688","./Stimuli/ImagesPractice/SM35.jpg","76","","","","test","true","N + M","76","","SM","SM35.jpg","remember","old","17","2","practice_forget","right","","","",""
"html-keyboard-response","50","284615","0.0-3.0-3.0-3.0","og2lv2cav4jgrfz","practice_cue","5f5fb07f3a1060048b583bdc","5f60e3c0a3b16e07647b2ff9","5f60eb79b140150109df7a6f","false","null","<div style=""align-items: center; display: flex; color: dodgerblue; font-size: 90px""><b>o</b></div>","null","","","","forget_cue","","","","","","","","","","","","","","","",""
"html-keyboard-response","51","285325","0.0-3.0-3.0-0.1","og2lv2cav4jgrfz","practice_cue","5f5fb07f3a1060048b583bdc","5f60e3c0a3b16e07647b2ff9","5f60eb79b140150109df7a6f","false","null","<span style=""color: black; font-size: 48px"">N + M</span>","null","","","","resp_prompt","","","","","","","","","","","","","","","",""
"categorize-image","52","285943","0.0-3.0-3.0-1.1","og2lv2cav4jgrfz","practice_cue","5f5fb07f3a1060048b583bdc","5f60e3c0a3b16e07647b2ff9","5f60eb79b140150109df7a6f","true","611.4899999811314","./Stimuli/ImagesPractice/SN75.jpg","83","","","","test","true","N + M","83","","SN","SN75.jpg","remember","old","18","2","practice_forget","left","","","",""
"html-keyboard-response","53","287955","0.0-3.0-3.0-3.1","og2lv2cav4jgrfz","practice_cue","5f5fb07f3a1060048b583bdc","5f60e3c0a3b16e07647b2ff9","5f60eb79b140150109df7a6f","false","null","<div style=""align-items: center; display: flex; color: dodgerblue; font-size: 90px""><b>o</b></div>","null","","","","forget_cue","","","","","","","","","","","","","","","",""
"html-keyboard-response","54","288657","0.0-3.0-3.0-0.2","og2lv2cav4jgrfz","practice_cue","5f5fb07f3a1060048b583bdc","5f60e3c0a3b16e07647b2ff9","5f60eb79b140150109df7a6f","false","null","<span style=""color: black; font-size: 48px"">N + M</span>","null","","","","resp_prompt","","","","","","","","","","","","","","","",""
"categorize-image","55","289317","0.0-3.0-3.0-1.2","og2lv2cav4jgrfz","practice_cue","5f5fb07f3a1060048b583bdc","5f60e3c0a3b16e07647b2ff9","5f60eb79b140150109df7a6f","true","653.7900000112131","./Stimuli/ImagesPractice/LM143.jpg","76","","","","test","true","N + M","76","","LM","LM143.jpg","forget","old","19","2","practice_forget","right","","","",""
"html-keyboard-response","56","291321","0.0-3.0-3.0-3.2","og2lv2cav4jgrfz","practice_cue","5f5fb07f3a1060048b583bdc","5f60e3c0a3b16e07647b2ff9","5f60eb79b140150109df7a6f","false","null","<div style=""align-items: center; display: flex; color: darkorange; font-size: 90px""><b>ø</b></div>","null","","","","forget_cue","","","","","","","","","","","","","","","",""
"html-keyboard-response","57","292036","0.0-3.0-3.0-0.3","og2lv2cav4jgrfz","practice_cue","5f5fb07f3a1060048b583bdc","5f60e3c0a3b16e07647b2ff9","5f60eb79b140150109df7a6f","false","null","<span style=""color: black; font-size: 48px"">N + M</span>","null","","","","resp_prompt","","","","","","","","","","","","","","","",""
"categorize-image","58","292815","0.0-3.0-3.0-1.3","og2lv2cav4jgrfz","practice_cue","5f5fb07f3a1060048b583bdc","5f60e3c0a3b16e07647b2ff9","5f60eb79b140150109df7a6f","true","774.280000012368","./Stimuli/ImagesPractice/LM147.jpg","76","","","","test","true","N + M","76","","LM","LM147.jpg","remember","old","20","2","practice_forget","right","","","",""
"html-keyboard-response","59","294817","0.0-3.0-3.0-3.3","og2lv2cav4jgrfz","practice_cue","5f5fb07f3a1060048b583bdc","5f60e3c0a3b16e07647b2ff9","5f60eb79b140150109df7a6f","false","null","<div style=""align-items: center; display: flex; color: dodgerblue; font-size: 90px""><b>o</b></div>","null","","","","forget_cue","","","","","","","","","","","","","","","",""
"html-keyboard-response","60","295534","0.0-3.0-3.0-0.4","og2lv2cav4jgrfz","practice_cue","5f5fb07f3a1060048b583bdc","5f60e3c0a3b16e07647b2ff9","5f60eb79b140150109df7a6f","false","null","<span style=""color: black; font-size: 48px"">M + N</span>","null","","","","resp_prompt","","","","","","","","","","","","","","","",""
"categorize-image","61","296086","0.0-3.0-3.0-1.4","og2lv2cav4jgrfz","practice_cue","5f5fb07f3a1060048b583bdc","5f60e3c0a3b16e07647b2ff9","5f60eb79b140150109df7a6f","true","546.3699999963865","./Stimuli/ImagesPractice/SM37.jpg","83","","","","test","true","M + N","83","","SM","SM37.jpg","forget","old","21","2","practice_forget","left","","","",""
"html-keyboard-response","62","298101","0.0-3.0-3.0-3.4","og2lv2cav4jgrfz","practice_cue","5f5fb07f3a1060048b583bdc","5f60e3c0a3b16e07647b2ff9","5f60eb79b140150109df7a6f","false","null","<div style=""align-items: center; display: flex; color: darkorange; font-size: 90px""><b>ø</b></div>","null","","","","forget_cue","","","","","","","","","","","","","","","",""
"html-keyboard-response","63","298814","0.0-3.0-3.0-0.5","og2lv2cav4jgrfz","practice_cue","5f5fb07f3a1060048b583bdc","5f60e3c0a3b16e07647b2ff9","5f60eb79b140150109df7a6f","false","null","<span style=""color: black; font-size: 48px"">M + N</span>","null","","","","resp_prompt","","","","","","","","","","","","","","","",""
"categorize-image","64","299378","0.0-3.0-3.0-1.5","og2lv2cav4jgrfz","practice_cue","5f5fb07f3a1060048b583bdc","5f60e3c0a3b16e07647b2ff9","5f60eb79b140150109df7a6f","true","558.7550000054762","./Stimuli/ImagesPractice/SN221.jpg","76","","","","test","true","M + N","76","","SN","SN221.jpg","remember","old","22","2","practice_forget","right","","","",""
"html-keyboard-response","65","301394","0.0-3.0-3.0-3.5","og2lv2cav4jgrfz","practice_cue","5f5fb07f3a1060048b583bdc","5f60e3c0a3b16e07647b2ff9","5f60eb79b140150109df7a6f","false","null","<div style=""align-items: center; display: flex; color: dodgerblue; font-size: 90px""><b>o</b></div>","null","","","","forget_cue","","","","","","","","","","","","","","","",""
"html-keyboard-response","66","302096","0.0-3.0-3.0-0.6","og2lv2cav4jgrfz","practice_cue","5f5fb07f3a1060048b583bdc","5f60e3c0a3b16e07647b2ff9","5f60eb79b140150109df7a6f","false","null","<span style=""color: black; font-size: 48px"">M + N</span>","null","","","","resp_prompt","","","","","","","","","","","","","","","",""
"categorize-image","67","302696","0.0-3.0-3.0-1.6","og2lv2cav4jgrfz","practice_cue","5f5fb07f3a1060048b583bdc","5f60e3c0a3b16e07647b2ff9","5f60eb79b140150109df7a6f","true","595.1350000104867","./Stimuli/ImagesPractice/LM224.jpg","83","","","","test","true","M + N","83","","LM","LM224.jpg","forget","old","23","2","practice_forget","left","","","",""
"html-keyboard-response","68","304707","0.0-3.0-3.0-3.6","og2lv2cav4jgrfz","practice_cue","5f5fb07f3a1060048b583bdc","5f60e3c0a3b16e07647b2ff9","5f60eb79b140150109df7a6f","false","null","<div style=""align-items: center; display: flex; color: darkorange; font-size: 90px""><b>ø</b></div>","null","","","","forget_cue","","","","","","","","","","","","","","","",""
"html-keyboard-response","69","305425","0.0-3.0-3.0-0.7","og2lv2cav4jgrfz","practice_cue","5f5fb07f3a1060048b583bdc","5f60e3c0a3b16e07647b2ff9","5f60eb79b140150109df7a6f","false","null","<span style=""color: black; font-size: 48px"">M + N</span>","null","","","","resp_prompt","","","","","","","","","","","","","","","",""
"categorize-image","70","306096","0.0-3.0-3.0-1.7","og2lv2cav4jgrfz","practice_cue","5f5fb07f3a1060048b583bdc","5f60e3c0a3b16e07647b2ff9","5f60eb79b140150109df7a6f","true","665.0950000039302","./Stimuli/ImagesPractice/LN4.jpg","76","","","","test","true","M + N","76","","LN","LN4.jpg","forget","old","24","2","practice_forget","right","","","",""
"html-keyboard-response","71","308105","0.0-3.0-3.0-3.7","og2lv2cav4jgrfz","practice_cue","5f5fb07f3a1060048b583bdc","5f60e3c0a3b16e07647b2ff9","5f60eb79b140150109df7a6f","false","null","<div style=""align-items: center; display: flex; color: darkorange; font-size: 90px""><b>ø</b></div>","null","","","","forget_cue","","","","","","","","","","","","","","","",""
"html-keyboard-response","72","308821","0.0-3.0-3.0-0.8","og2lv2cav4jgrfz","practice_cue","5f5fb07f3a1060048b583bdc","5f60e3c0a3b16e07647b2ff9","5f60eb79b140150109df7a6f","false","null","<span style=""color: black; font-size: 48px"">M + N</span>","null","","","","resp_prompt","","","","","","","","","","","","","","","",""
"categorize-image","73","309383","0.0-3.0-3.0-1.8","og2lv2cav4jgrfz","practice_cue","5f5fb07f3a1060048b583bdc","5f60e3c0a3b16e07647b2ff9","5f60eb79b140150109df7a6f","true","558.0400000326335","./Stimuli/ImagesPractice/SM98.jpg","83","","","","test","true","M + N","83","","SM","SM98.jpg","remember","old","25","2","practice_forget","left","","","",""
"html-keyboard-response","74","311388","0.0-3.0-3.0-3.8","og2lv2cav4jgrfz","practice_cue","5f5fb07f3a1060048b583bdc","5f60e3c0a3b16e07647b2ff9","5f60eb79b140150109df7a6f","false","null","<div style=""align-items: center; display: flex; color: dodgerblue; font-size: 90px""><b>o</b></div>","null","","","","forget_cue","","","","","","","","","","","","","","","",""
"html-keyboard-response","75","312102","0.0-3.0-3.0-0.9","og2lv2cav4jgrfz","practice_cue","5f5fb07f3a1060048b583bdc","5f60e3c0a3b16e07647b2ff9","5f60eb79b140150109df7a6f","false","null","<span style=""color: black; font-size: 48px"">N + M</span>","null","","","","resp_prompt","","","","","","","","","","","","","","","",""
"categorize-image","76","312692","0.0-3.0-3.0-1.9","og2lv2cav4jgrfz","practice_cue","5f5fb07f3a1060048b583bdc","5f60e3c0a3b16e07647b2ff9","5f60eb79b140150109df7a6f","true","583.8249999796972","./Stimuli/ImagesPractice/SM62.jpg","76","","","","test","true","N + M","76","","SM","SM62.jpg","forget","old","26","2","practice_forget","right","","","",""
"html-keyboard-response","77","314702","0.0-3.0-3.0-3.9","og2lv2cav4jgrfz","practice_cue","5f5fb07f3a1060048b583bdc","5f60e3c0a3b16e07647b2ff9","5f60eb79b140150109df7a6f","false","null","<div style=""align-items: center; display: flex; color: darkorange; font-size: 90px""><b>ø</b></div>","null","","","","forget_cue","","","","","","","","","","","","","","","",""
"html-keyboard-response","78","315416","0.0-3.0-3.0-0.10","og2lv2cav4jgrfz","practice_cue","5f5fb07f3a1060048b583bdc","5f60e3c0a3b16e07647b2ff9","5f60eb79b140150109df7a6f","false","null","<span style=""color: black; font-size: 48px"">N + M</span>","null","","","","resp_prompt","","","","","","","","","","","","","","","",""
"categorize-image","79","316059","0.0-3.0-3.0-1.10","og2lv2cav4jgrfz","practice_cue","5f5fb07f3a1060048b583bdc","5f60e3c0a3b16e07647b2ff9","5f60eb79b140150109df7a6f","true","636.2499999813735","./Stimuli/ImagesPractice/LM55.jpg","76","","","","test","true","N + M","76","","LM","LM55.jpg","forget","old","27","2","practice_forget","right","","","",""
"html-keyboard-response","80","318063","0.0-3.0-3.0-3.10","og2lv2cav4jgrfz","practice_cue","5f5fb07f3a1060048b583bdc","5f60e3c0a3b16e07647b2ff9","5f60eb79b140150109df7a6f","false","null","<div style=""align-items: center; display: flex; color: darkorange; font-size: 90px""><b>ø</b></div>","null","","","","forget_cue","","","","","","","","","","","","","","","",""
"html-keyboard-response","81","318780","0.0-3.0-3.0-0.11","og2lv2cav4jgrfz","practice_cue","5f5fb07f3a1060048b583bdc","5f60e3c0a3b16e07647b2ff9","5f60eb79b140150109df7a6f","false","null","<span style=""color: black; font-size: 48px"">N + M</span>","null","","","","resp_prompt","","","","","","","","","","","","","","","",""
"categorize-image","82","319324","0.0-3.0-3.0-1.11","og2lv2cav4jgrfz","practice_cue","5f5fb07f3a1060048b583bdc","5f60e3c0a3b16e07647b2ff9","5f60eb79b140150109df7a6f","true","538.0850000074133","./Stimuli/ImagesPractice/SM61.jpg","83","","","","test","false","N + M","76","","SM","SM61.jpg","remember","old","28","2","practice_forget","left","","","",""
"html-keyboard-response","83","319827","0.0-3.0-3.0-2.11-0.11","og2lv2cav4jgrfz","practice_cue","5f5fb07f3a1060048b583bdc","5f60e3c0a3b16e07647b2ff9","5f60eb79b140150109df7a6f","false","null","<span style=""color: red; font-size: 48px"">Error!</span>","null","","","","feedback","","","","","","","","","","","","","","","",""
"html-keyboard-response","84","321842","0.0-3.0-3.0-3.11","og2lv2cav4jgrfz","practice_cue","5f5fb07f3a1060048b583bdc","5f60e3c0a3b16e07647b2ff9","5f60eb79b140150109df7a6f","false","null","<div style=""align-items: center; display: flex; color: dodgerblue; font-size: 90px""><b>o</b></div>","null","","","","forget_cue","","","","","","","","","","","","","","","",""
"html-keyboard-response","85","322559","0.0-3.0-3.0-0.12","og2lv2cav4jgrfz","practice_cue","5f5fb07f3a1060048b583bdc","5f60e3c0a3b16e07647b2ff9","5f60eb79b140150109df7a6f","false","null","<span style=""color: black; font-size: 48px"">M + N</span>","null","","","","resp_prompt","","","","","","","","","","","","","","","",""
"categorize-image","86","323813","0.0-3.0-3.0-1.12","og2lv2cav4jgrfz","practice_cue","5f5fb07f3a1060048b583bdc","5f60e3c0a3b16e07647b2ff9","5f60eb79b140150109df7a6f","true","1248.9699999568984","./Stimuli/ImagesPractice/LM239.jpg","83","","","","test","true","M + N","83","","LM","LM239.jpg","remember","old","29","2","practice_forget","left","","","",""
"html-keyboard-response","87","325820","0.0-3.0-3.0-3.12","og2lv2cav4jgrfz","practice_cue","5f5fb07f3a1060048b583bdc","5f60e3c0a3b16e07647b2ff9","5f60eb79b140150109df7a6f","false","null","<div style=""align-items: center; display: flex; color: dodgerblue; font-size: 90px""><b>o</b></div>","null","","","","forget_cue","","","","","","","","","","","","","","","",""
"html-keyboard-response","88","326523","0.0-3.0-3.0-0.13","og2lv2cav4jgrfz","practice_cue","5f5fb07f3a1060048b583bdc","5f60e3c0a3b16e07647b2ff9","5f60eb79b140150109df7a6f","false","null","<span style=""color: black; font-size: 48px"">M + N</span>","null","","","","resp_prompt","","","","","","","","","","","","","","","",""
"categorize-image","89","327146","0.0-3.0-3.0-1.13","og2lv2cav4jgrfz","practice_cue","5f5fb07f3a1060048b583bdc","5f60e3c0a3b16e07647b2ff9","5f60eb79b140150109df7a6f","true","617.774999991525","./Stimuli/ImagesPractice/SN222.jpg","76","","","","test","true","M + N","76","","SN","SN222.jpg","remember","old","30","2","practice_forget","right","","","",""
"html-keyboard-response","90","329152","0.0-3.0-3.0-3.13","og2lv2cav4jgrfz","practice_cue","5f5fb07f3a1060048b583bdc","5f60e3c0a3b16e07647b2ff9","5f60eb79b140150109df7a6f","false","null","<div style=""align-items: center; display: flex; color: dodgerblue; font-size: 90px""><b>o</b></div>","null","","","","forget_cue","","","","","","","","","","","","","","","",""
"html-keyboard-response","91","329869","0.0-3.0-3.0-0.14","og2lv2cav4jgrfz","practice_cue","5f5fb07f3a1060048b583bdc","5f60e3c0a3b16e07647b2ff9","5f60eb79b140150109df7a6f","false","null","<span style=""color: black; font-size: 48px"">M + N</span>","null","","","","resp_prompt","","","","","","","","","","","","","","","",""
"categorize-image","92","330490","0.0-3.0-3.0-1.14","og2lv2cav4jgrfz","practice_cue","5f5fb07f3a1060048b583bdc","5f60e3c0a3b16e07647b2ff9","5f60eb79b140150109df7a6f","true","614.9500000174157","./Stimuli/ImagesPractice/LN17.jpg","76","","","","test","true","M + N","76","","LN","LN17.jpg","forget","old","31","2","practice_forget","right","","","",""
"html-keyboard-response","93","332498","0.0-3.0-3.0-3.14","og2lv2cav4jgrfz","practice_cue","5f5fb07f3a1060048b583bdc","5f60e3c0a3b16e07647b2ff9","5f60eb79b140150109df7a6f","false","null","<div style=""align-items: center; display: flex; color: darkorange; font-size: 90px""><b>ø</b></div>","null","","","","forget_cue","","","","","","","","","","","","","","","",""
"html-keyboard-response","94","333215","0.0-3.0-3.0-0.15","og2lv2cav4jgrfz","practice_cue","5f5fb07f3a1060048b583bdc","5f60e3c0a3b16e07647b2ff9","5f60eb79b140150109df7a6f","false","null","<span style=""color: black; font-size: 48px"">N + M</span>","null","","","","resp_prompt","","","","","","","","","","","","","","","",""
"categorize-image","95","333944","0.0-3.0-3.0-1.15","og2lv2cav4jgrfz","practice_cue","5f5fb07f3a1060048b583bdc","5f60e3c0a3b16e07647b2ff9","5f60eb79b140150109df7a6f","true","722.5849999813363","./Stimuli/ImagesPractice/SN220.jpg","83","","","","test","true","N + M","83","","SN","SN220.jpg","forget","old","32","2","practice_forget","left","","","",""
"html-keyboard-response","96","335946","0.0-3.0-3.0-3.15","og2lv2cav4jgrfz","practice_cue","5f5fb07f3a1060048b583bdc","5f60e3c0a3b16e07647b2ff9","5f60eb79b140150109df7a6f","false","null","<div style=""align-items: center; display: flex; color: darkorange; font-size: 90px""><b>ø</b></div>","null","","","","forget_cue","","","","","","","","","","","","","","","",""
"html-keyboard-response","97","338331","0.0-3.0-4.0","og2lv2cav4jgrfz","break","5f5fb07f3a1060048b583bdc","5f60e3c0a3b16e07647b2ff9","5f60eb79b140150109df7a6f","false","2380.814999982249","<p style='font-size: 32px;'>Break</><br><br><br><br><br><p style='font-size: 24px;'>In the last block, you committed 1 errors and did not respond in time on 0 trials.
</p><p style='font-size: 24px;'>Try to respond as fast and accurately as possible in the next block as well! </p><p style='font-size: 24px;'>Press SPACE to continue.</p>","32","","","","","","","","","","","","","","","","","","","",""
"html-keyboard-response","98","350083","0.0-3.0-5.0","og2lv2cav4jgrfz","instructions","5f5fb07f3a1060048b583bdc","5f60e3c0a3b16e07647b2ff9","5f60eb79b140150109df7a6f","false","11749.490000016522","<div align=left> Now, to practice, we kindly ask you to remember as many of the to-be-remembered pictures<br>of the previous learning phase as possible.<br><br>The pictures you were instructed to remember were the pictures followed by a <span style='color: dodgerblue; font-size: 28px'>O</span>.<br><br>In this memory test phase, you will also see some new pictures.<br>It is your task to remember whether you were presented with this specific picture in this study so far or not.<br>If you recognize an object (you have already seen it in this study), it is an OLD object. <br>If you do not recognize an object (you have NOT seen it in this study), it is a NEW object. <br><strong> Attention</strong>: As already mentioned, <span style='color: darkorange; font-size:28px'>Ø</span>-pictures will <strong>never</strong> appear in this memory test (neither as new objects). <br><br>Press SPACE to continue. </div>","32","","","","","","","","","","","","","","","","","","","",""
"html-keyboard-response","99","371199","0.0-3.0-6.0","og2lv2cav4jgrfz","instructions","5f5fb07f3a1060048b583bdc","5f60e3c0a3b16e07647b2ff9","5f60eb79b140150109df7a6f","false","21113.344999961555","<div align=left> M and N no longer will appear on the left/right of the fixation cross. <br>Instead there will be a note at the bottom of the left or right side  <br>indicating which key you should press for an old or new object:  <br> <br>Press the <strong>right</strong> key to classify an object as <strong>old</strong> and press the <strong>left</strong>, to classify an object as <strong>new</strong>.<br>Please classify the objects as new/old by again placing your index finger on the 'S' and 'L' keys <br>and press them accordingly.<br><br><strong>Old:</strong> This object has been presented before. <br><strong>New:</strong> This object has <strong>not</strong> been presented.<br><br>Now please put your right and left index fingers on the 'S' and 'L' keys of your keyboard. <br>Please respond as fast and as accurately as possible!<br><br>Press SPACE to continue. </div>","32","","","","","","","","","","","","","","","","","","","",""
"categorize-image","100","372827","0.0-3.0-7.0-0.0","og2lv2cav4jgrfz","practice_recog","5f5fb07f3a1060048b583bdc","5f60e3c0a3b16e07647b2ff9","5f60eb79b140150109df7a6f","true","1119.284999964293","./Stimuli/ImagesPractice/SM97.jpg","76","","","","test","false","","83","","SM","SM97.jpg","","new","33","3","practice_recog","right","","","",""
"categorize-image","101","375074","0.0-3.0-7.0-0.1","og2lv2cav4jgrfz","practice_recog","5f5fb07f3a1060048b583bdc","5f60e3c0a3b16e07647b2ff9","5f60eb79b140150109df7a6f","true","1735.5850000167266","./Stimuli/ImagesPractice/LN15.jpg","76","","","","test","false","","83","","LN","LN15.jpg","","new","34","3","practice_recog","right","","","",""
"categorize-image","102","376706","0.0-3.0-7.0-0.2","og2lv2cav4jgrfz","practice_recog","5f5fb07f3a1060048b583bdc","5f60e3c0a3b16e07647b2ff9","5f60eb79b140150109df7a6f","true","1117.9099999717437","./Stimuli/ImagesPractice/LN109.jpg","83","","","","test","true","","83","","LN","LN109.jpg","","new","35","3","practice_recog","left","","","",""
"categorize-image","103","378006","0.0-3.0-7.0-0.3","og2lv2cav4jgrfz","practice_recog","5f5fb07f3a1060048b583bdc","5f60e3c0a3b16e07647b2ff9","5f60eb79b140150109df7a6f","true","789.4349999842234","./Stimuli/ImagesPractice/SN221.jpg","76","","","","test","true","","76","","SN","SN221.jpg","","old","36","3","practice_recog","right","","","",""
"categorize-image","104","379305","0.0-3.0-7.0-0.4","og2lv2cav4jgrfz","practice_recog","5f5fb07f3a1060048b583bdc","5f60e3c0a3b16e07647b2ff9","5f60eb79b140150109df7a6f","true","784.0500000165775","./Stimuli/ImagesPractice/SM35.jpg","76","","","","test","true","","76","","SM","SM35.jpg","","old","37","3","practice_recog","right","","","",""
"categorize-image","105","380471","0.0-3.0-7.0-0.5","og2lv2cav4jgrfz","practice_recog","5f5fb07f3a1060048b583bdc","5f60e3c0a3b16e07647b2ff9","5f60eb79b140150109df7a6f","true","661.5599999786355","./Stimuli/ImagesPractice/SM98.jpg","76","","","","test","true","","76","","SM","SM98.jpg","","old","38","3","practice_recog","right","","","",""
"categorize-image","106","381552","0.0-3.0-7.0-0.6","og2lv2cav4jgrfz","practice_recog","5f5fb07f3a1060048b583bdc","5f60e3c0a3b16e07647b2ff9","5f60eb79b140150109df7a6f","true","572.3799999686889","./Stimuli/ImagesPractice/SM61.jpg","76","","","","test","true","","76","","SM","SM61.jpg","","old","39","3","practice_recog","right","","","",""
"categorize-image","107","382618","0.0-3.0-7.0-0.7","og2lv2cav4jgrfz","practice_recog","5f5fb07f3a1060048b583bdc","5f60e3c0a3b16e07647b2ff9","5f60eb79b140150109df7a6f","true","549.7149999719113","./Stimuli/ImagesPractice/SN222.jpg","76","","","","test","true","","76","","SN","SN222.jpg","","old","40","3","practice_recog","right","","","",""
"categorize-image","108","383752","0.0-3.0-7.0-0.8","og2lv2cav4jgrfz","practice_recog","5f5fb07f3a1060048b583bdc","5f60e3c0a3b16e07647b2ff9","5f60eb79b140150109df7a6f","true","620.5399999744259","./Stimuli/ImagesPractice/SN205.jpg","83","","","","test","true","","83","","SN","SN205.jpg","","new","41","3","practice_recog","left","","","",""
"categorize-image","109","384866","0.0-3.0-7.0-0.9","og2lv2cav4jgrfz","practice_recog","5f5fb07f3a1060048b583bdc","5f60e3c0a3b16e07647b2ff9","5f60eb79b140150109df7a6f","true","605.1600000355393","./Stimuli/ImagesPractice/LM239.jpg","76","","","","test","true","","76","","LM","LM239.jpg","","old","42","3","practice_recog","right","","","",""
"categorize-image","110","386133","0.0-3.0-7.0-0.10","og2lv2cav4jgrfz","practice_recog","5f5fb07f3a1060048b583bdc","5f60e3c0a3b16e07647b2ff9","5f60eb79b140150109df7a6f","true","755.1150000072084","./Stimuli/ImagesPractice/SN76.jpg","83","","","","test","true","","83","","SN","SN76.jpg","","new","43","3","practice_recog","left","","","",""
"categorize-image","111","387815","0.0-3.0-7.0-0.11","og2lv2cav4jgrfz","practice_recog","5f5fb07f3a1060048b583bdc","5f60e3c0a3b16e07647b2ff9","5f60eb79b140150109df7a6f","true","1175.6550000282004","./Stimuli/ImagesPractice/SN75.jpg","76","","","","test","true","","76","","SN","SN75.jpg","","old","44","3","practice_recog","right","","","",""
"categorize-image","112","389016","0.0-3.0-7.0-0.12","og2lv2cav4jgrfz","practice_recog","5f5fb07f3a1060048b583bdc","5f60e3c0a3b16e07647b2ff9","5f60eb79b140150109df7a6f","true","691.2850000080653","./Stimuli/ImagesPractice/LM147.jpg","76","","","","test","true","","76","","LM","LM147.jpg","","old","45","3","practice_recog","right","","","",""
"categorize-image","113","390447","0.0-3.0-7.0-0.13","og2lv2cav4jgrfz","practice_recog","5f5fb07f3a1060048b583bdc","5f60e3c0a3b16e07647b2ff9","5f60eb79b140150109df7a6f","true","920.1649999595247","./Stimuli/ImagesPractice/LM230.jpg","83","","","","test","true","","83","","LM","LM230.jpg","","new","46","3","practice_recog","left","","","",""
"categorize-image","114","392494","0.0-3.0-7.0-0.14","og2lv2cav4jgrfz","practice_recog","5f5fb07f3a1060048b583bdc","5f60e3c0a3b16e07647b2ff9","5f60eb79b140150109df7a6f","true","1530.9899999992922","./Stimuli/ImagesPractice/LN72.jpg","76","","","","test","false","","83","","LN","LN72.jpg","","new","47","3","practice_recog","right","","","",""
"categorize-image","115","394075","0.0-3.0-7.0-0.15","og2lv2cav4jgrfz","practice_recog","5f5fb07f3a1060048b583bdc","5f60e3c0a3b16e07647b2ff9","5f60eb79b140150109df7a6f","true","1066.4749999996275","./Stimuli/ImagesPractice/LN2.jpg","83","","","","test","true","","83","","LN","LN2.jpg","","new","48","3","practice_recog","left","","","",""
"html-keyboard-response","116","410152","0.0-3.0-8.0","og2lv2cav4jgrfz","instructions","5f5fb07f3a1060048b583bdc","5f60e3c0a3b16e07647b2ff9","5f60eb79b140150109df7a6f","false","16074.580000014976","<div align=left> Great!<br><br>Are you ready to continue?<br>If you want to reread the instructions and redo the practice trials, please <br>press „Z“.<br><br>You can proceed when you are ready.<br><br>After the presentation of each object, you will receive an instruction whether to <br>remember or to forget the object.<br>We will test your memory of the following pictures only at the very end of <br>the experiment after all learning blocks are completed. <br><br>Press SPACE to CONTINUE when you are ready. </div>","32","","","","","","","","","","","","","","","","","","","",""
"html-keyboard-response","117","421126","0.0-4.0-0.0","og2lv2cav4jgrfz","instructions","5f5fb07f3a1060048b583bdc","5f60e3c0a3b16e07647b2ff9","5f60eb79b140150109df7a6f","false","10971.244999964256","<div align=left> The actual experiment is about to start.<br>The practice trials are over!<br><br>Please always respond both fast and accurately!<br><br>Remember: <br> <br><li> Please place your index fingers on the <strong>'S'</strong> and <strong>'L'</strong> keys <br>to respond as fast and accurately as possible.</li><li> Every picture can be classified as either mechanical or non-mechanical.</li><li> If you do not respond in time or commit an error, you will receive a corresponding feedback.<br> Please try to respond as <strong> fast </strong> and as <strong> accurately as possible </strong>.</li><li> Remember the <span style='color: dodgerblue; font-size: 28px'>O</span> pictures. <br></li><li> Please minimize distractions and stay focused. </li><br><br>Press SPACE to START.</div>","32","","","","","","","","","","","","","","","","","","","",""
"html-keyboard-response","118","421837","0.0-4.0-1.0-0.0","og2lv2cav4jgrfz","prime","5f5fb07f3a1060048b583bdc","5f60e3c0a3b16e07647b2ff9","5f60eb79b140150109df7a6f","false","null","<span style=""color: black; font-size: 48px"">N + M</span>","null","","","","resp_prompt","","","","","","","","","","","","","","","",""
"categorize-image","119","422813","0.0-4.0-1.0-1.0","og2lv2cav4jgrfz","prime","5f5fb07f3a1060048b583bdc","5f60e3c0a3b16e07647b2ff9","5f60eb79b140150109df7a6f","true","968.8850000384264","./Stimuli/SelectedImages/SN/SN27.bmp","83","","","","test","true","N + M","83","repetition","SN","SN27.bmp","remember","","49","3","prime1","left","","","",""
"html-keyboard-response","120","424819","0.0-4.0-1.0-3.0","og2lv2cav4jgrfz","prime","5f5fb07f3a1060048b583bdc","5f60e3c0a3b16e07647b2ff9","5f60eb79b140150109df7a6f","false","null","<div style=""align-items: center; display: flex; color: dodgerblue; font-size: 90px""><b>o</b></div>","null","","","","forget_cue","","","","","","","","","","","","","","","",""
"html-keyboard-response","121","425534","0.0-4.0-1.0-0.1","og2lv2cav4jgrfz","prime","5f5fb07f3a1060048b583bdc","5f60e3c0a3b16e07647b2ff9","5f60eb79b140150109df7a6f","false","null","<span style=""color: black; font-size: 48px"">N + M</span>","null","","","","resp_prompt","","","","","","","","","","","","","","","",""
"categorize-image","122","426285","0.0-4.0-1.0-1.1","og2lv2cav4jgrfz","prime","5f5fb07f3a1060048b583bdc","5f60e3c0a3b16e07647b2ff9","5f60eb79b140150109df7a6f","true","746.3449999922886","./Stimuli/SelectedImages/LN/LN149.bmp","83","","","","test","true","N + M","83","repetition","LN","LN149.bmp","forget","","50","3","prime1","left","","","",""
"html-keyboard-response","123","428298","0.0-4.0-1.0-3.1","og2lv2cav4jgrfz","prime","5f5fb07f3a1060048b583bdc","5f60e3c0a3b16e07647b2ff9","5f60eb79b140150109df7a6f","false","null","<div style=""align-items: center; display: flex; color: darkorange; font-size: 90px""><b>ø</b></div>","null","","","","forget_cue","","","","","","","","","","","","","","","",""
"html-keyboard-response","124","429015","0.0-4.0-1.0-0.2","og2lv2cav4jgrfz","prime","5f5fb07f3a1060048b583bdc","5f60e3c0a3b16e07647b2ff9","5f60eb79b140150109df7a6f","false","null","<span style=""color: black; font-size: 48px"">M + N</span>","null","","","","resp_prompt","","","","","","","","","","","","","","","",""
"categorize-image","125","429491","0.0-4.0-1.0-1.2","og2lv2cav4jgrfz","prime","5f5fb07f3a1060048b583bdc","5f60e3c0a3b16e07647b2ff9","5f60eb79b140150109df7a6f","true","470.560000045225","./Stimuli/SelectedImages/SN/SN179.bmp","76","","","","test","true","M + N","76","switch","SN","SN179.bmp","forget","","51","3","prime1","right","","","",""
"html-keyboard-response","126","431495","0.0-4.0-1.0-3.2","og2lv2cav4jgrfz","prime","5f5fb07f3a1060048b583bdc","5f60e3c0a3b16e07647b2ff9","5f60eb79b140150109df7a6f","false","null","<div style=""align-items: center; display: flex; color: darkorange; font-size: 90px""><b>ø</b></div>","null","","","","forget_cue","","","","","","","","","","","","","","","",""
"html-keyboard-response","127","432212","0.0-4.0-1.0-0.3","og2lv2cav4jgrfz","prime","5f5fb07f3a1060048b583bdc","5f60e3c0a3b16e07647b2ff9","5f60eb79b140150109df7a6f","false","null","<span style=""color: black; font-size: 48px"">M + N</span>","null","","","","resp_prompt","","","","","","","","","","","","","","","",""
"categorize-image","128","432723","0.0-4.0-1.0-1.3","og2lv2cav4jgrfz","prime","5f5fb07f3a1060048b583bdc","5f60e3c0a3b16e07647b2ff9","5f60eb79b140150109df7a6f","true","506.24499999685213","./Stimuli/SelectedImages/LM/LM235.bmp","83","","","","test","true","M + N","83","repetition","LM","LM235.bmp","forget","","52","3","prime1","left","","","",""
"html-keyboard-response","129","434732","0.0-4.0-1.0-3.3","og2lv2cav4jgrfz","prime","5f5fb07f3a1060048b583bdc","5f60e3c0a3b16e07647b2ff9","5f60eb79b140150109df7a6f","false","null","<div style=""align-items: center; display: flex; color: darkorange; font-size: 90px""><b>ø</b></div>","null","","","","forget_cue","","","","","","","","","","","","","","","",""
"html-keyboard-response","130","435444","0.0-4.0-1.0-0.4","og2lv2cav4jgrfz","prime","5f5fb07f3a1060048b583bdc","5f60e3c0a3b16e07647b2ff9","5f60eb79b140150109df7a6f","false","null","<span style=""color: black; font-size: 48px"">N + M</span>","null","","","","resp_prompt","","","","","","","","","","","","","","","",""
"categorize-image","131","436004","0.0-4.0-1.0-1.4","og2lv2cav4jgrfz","prime","5f5fb07f3a1060048b583bdc","5f60e3c0a3b16e07647b2ff9","5f60eb79b140150109df7a6f","true","554.1400000220165","./Stimuli/SelectedImages/SM/SM205.bmp","76","","","","test","true","N + M","76","switch","SM","SM205.bmp","remember","","53","3","prime1","right","","","",""
"html-keyboard-response","132","438007","0.0-4.0-1.0-3.4","og2lv2cav4jgrfz","prime","5f5fb07f3a1060048b583bdc","5f60e3c0a3b16e07647b2ff9","5f60eb79b140150109df7a6f","false","null","<div style=""align-items: center; display: flex; color: dodgerblue; font-size: 90px""><b>o</b></div>","null","","","","forget_cue","","","","","","","","","","","","","","","",""
"html-keyboard-response","133","438723","0.0-4.0-1.0-0.5","og2lv2cav4jgrfz","prime","5f5fb07f3a1060048b583bdc","5f60e3c0a3b16e07647b2ff9","5f60eb79b140150109df7a6f","false","null","<span style=""color: black; font-size: 48px"">M + N</span>","null","","","","resp_prompt","","","","","","","","","","","","","","","",""
"categorize-image","134","439495","0.0-4.0-1.0-1.5","og2lv2cav4jgrfz","prime","5f5fb07f3a1060048b583bdc","5f60e3c0a3b16e07647b2ff9","5f60eb79b140150109df7a6f","true","766.5399999823421","./Stimuli/SelectedImages/SN/SN187.bmp","76","","","","test","true","M + N","76","switch","SN","SN187.bmp","remember","","54","3","prime1","right","","","",""
"html-keyboard-response","135","441503","0.0-4.0-1.0-3.5","og2lv2cav4jgrfz","prime","5f5fb07f3a1060048b583bdc","5f60e3c0a3b16e07647b2ff9","5f60eb79b140150109df7a6f","false","null","<div style=""align-items: center; display: flex; color: dodgerblue; font-size: 90px""><b>o</b></div>","null","","","","forget_cue","","","","","","","","","","","","","","","",""
"html-keyboard-response","136","442219","0.0-4.0-1.0-0.6","og2lv2cav4jgrfz","prime","5f5fb07f3a1060048b583bdc","5f60e3c0a3b16e07647b2ff9","5f60eb79b140150109df7a6f","false","null","<span style=""color: black; font-size: 48px"">M + N</span>","null","","","","resp_prompt","","","","","","","","","","","","","","","",""
"categorize-image","137","442929","0.0-4.0-1.0-1.6","og2lv2cav4jgrfz","prime","5f5fb07f3a1060048b583bdc","5f60e3c0a3b16e07647b2ff9","5f60eb79b140150109df7a6f","true","704.1450000251643","./Stimuli/SelectedImages/LM/LM100.bmp","83","","","","test","true","M + N","83","repetition","LM","LM100.bmp","remember","","55","3","prime1","left","","","",""
"html-keyboard-response","138","444934","0.0-4.0-1.0-3.6","og2lv2cav4jgrfz","prime","5f5fb07f3a1060048b583bdc","5f60e3c0a3b16e07647b2ff9","5f60eb79b140150109df7a6f","false","null","<div style=""align-items: center; display: flex; color: dodgerblue; font-size: 90px""><b>o</b></div>","null","","","","forget_cue","","","","","","","","","","","","","","","",""
"html-keyboard-response","139","445651","0.0-4.0-1.0-0.7","og2lv2cav4jgrfz","prime","5f5fb07f3a1060048b583bdc","5f60e3c0a3b16e07647b2ff9","5f60eb79b140150109df7a6f","false","null","<span style=""color: black; font-size: 48px"">N + M</span>","null","","","","resp_prompt","","","","","","","","","","","","","","","",""
"categorize-image","140","446386","0.0-4.0-1.0-1.7","og2lv2cav4jgrfz","prime","5f5fb07f3a1060048b583bdc","5f60e3c0a3b16e07647b2ff9","5f60eb79b140150109df7a6f","true","729.7400000388734","./Stimuli/SelectedImages/LN/LN42.bmp","83","","","","test","true","N + M","83","switch","LN","LN42.bmp","forget","","56","3","prime1","left","","","",""
"html-keyboard-response","141","448395","0.0-4.0-1.0-3.7","og2lv2cav4jgrfz","prime","5f5fb07f3a1060048b583bdc","5f60e3c0a3b16e07647b2ff9","5f60eb79b140150109df7a6f","false","null","<div style=""align-items: center; display: flex; color: darkorange; font-size: 90px""><b>ø</b></div>","null","","","","forget_cue","","","","","","","","","","","","","","","",""
"html-keyboard-response","142","449098","0.0-4.0-1.0-0.8","og2lv2cav4jgrfz","prime","5f5fb07f3a1060048b583bdc","5f60e3c0a3b16e07647b2ff9","5f60eb79b140150109df7a6f","false","null","<span style=""color: black; font-size: 48px"">N + M</span>","null","","","","resp_prompt","","","","","","","","","","","","","","","",""
"categorize-image","143","449717","0.0-4.0-1.0-1.8","og2lv2cav4jgrfz","prime","5f5fb07f3a1060048b583bdc","5f60e3c0a3b16e07647b2ff9","5f60eb79b140150109df7a6f","true","613.4699999820441","./Stimuli/SelectedImages/LM/LM216.bmp","76","","","","test","true","N + M","76","switch","LM","LM216.bmp","forget","","57","3","prime1","right","","","",""
"html-keyboard-response","144","451727","0.0-4.0-1.0-3.8","og2lv2cav4jgrfz","prime","5f5fb07f3a1060048b583bdc","5f60e3c0a3b16e07647b2ff9","5f60eb79b140150109df7a6f","false","null","<div style=""align-items: center; display: flex; color: darkorange; font-size: 90px""><b>ø</b></div>","null","","","","forget_cue","","","","","","","","","","","","","","","",""
"html-keyboard-response","145","452445","0.0-4.0-1.0-0.9","og2lv2cav4jgrfz","prime","5f5fb07f3a1060048b583bdc","5f60e3c0a3b16e07647b2ff9","5f60eb79b140150109df7a6f","false","null","<span style=""color: black; font-size: 48px"">N + M</span>","null","","","","resp_prompt","","","","","","","","","","","","","","","",""
"categorize-image","146","453079","0.0-4.0-1.0-1.9","og2lv2cav4jgrfz","prime","5f5fb07f3a1060048b583bdc","5f60e3c0a3b16e07647b2ff9","5f60eb79b140150109df7a6f","true","628.1900000176392","./Stimuli/SelectedImages/LM/LM59.bmp","76","","","","test","true","N + M","76","repetition","LM","LM59.bmp","forget","","58","3","prime1","right","","","",""
"html-keyboard-response","147","455090","0.0-4.0-1.0-3.9","og2lv2cav4jgrfz","prime","5f5fb07f3a1060048b583bdc","5f60e3c0a3b16e07647b2ff9","5f60eb79b140150109df7a6f","false","null","<div style=""align-items: center; display: flex; color: darkorange; font-size: 90px""><b>ø</b></div>","null","","","","forget_cue","","","","","","","","","","","","","","","",""
"html-keyboard-response","148","455792","0.0-4.0-1.0-0.10","og2lv2cav4jgrfz","prime","5f5fb07f3a1060048b583bdc","5f60e3c0a3b16e07647b2ff9","5f60eb79b140150109df7a6f","false","null","<span style=""color: black; font-size: 48px"">M + N</span>","null","","","","resp_prompt","","","","","","","","","","","","","","","",""
"categorize-image","149","456452","0.0-4.0-1.0-1.10","og2lv2cav4jgrfz","prime","5f5fb07f3a1060048b583bdc","5f60e3c0a3b16e07647b2ff9","5f60eb79b140150109df7a6f","true","655.3200000198558","./Stimuli/SelectedImages/LN/LN28.bmp","76","","","","test","true","M + N","76","switch","LN","LN28.bmp","remember","","59","3","prime1","right","","","",""
"html-keyboard-response","150","458456","0.0-4.0-1.0-3.10","og2lv2cav4jgrfz","prime","5f5fb07f3a1060048b583bdc","5f60e3c0a3b16e07647b2ff9","5f60eb79b140150109df7a6f","false","null","<div style=""align-items: center; display: flex; color: dodgerblue; font-size: 90px""><b>o</b></div>","null","","","","forget_cue","","","","","","","","","","","","","","","",""
"html-keyboard-response","151","459171","0.0-4.0-1.0-0.11","og2lv2cav4jgrfz","prime","5f5fb07f3a1060048b583bdc","5f60e3c0a3b16e07647b2ff9","5f60eb79b140150109df7a6f","false","null","<span style=""color: black; font-size: 48px"">N + M</span>","null","","","","resp_prompt","","","","","","","","","","","","","","","",""
"categorize-image","152","460258","0.0-4.0-1.0-1.11","og2lv2cav4jgrfz","prime","5f5fb07f3a1060048b583bdc","5f60e3c0a3b16e07647b2ff9","5f60eb79b140150109df7a6f","true","1081.140000023879","./Stimuli/SelectedImages/LM/LM209.bmp","76","","","","test","true","N + M","76","switch","LM","LM209.bmp","remember","","60","3","prime1","right","","","",""
"html-keyboard-response","153","462267","0.0-4.0-1.0-3.11","og2lv2cav4jgrfz","prime","5f5fb07f3a1060048b583bdc","5f60e3c0a3b16e07647b2ff9","5f60eb79b140150109df7a6f","false","null","<div style=""align-items: center; display: flex; color: dodgerblue; font-size: 90px""><b>o</b></div>","null","","","","forget_cue","","","","","","","","","","","","","","","",""
"html-keyboard-response","154","462985","0.0-4.0-1.0-0.12","og2lv2cav4jgrfz","prime","5f5fb07f3a1060048b583bdc","5f60e3c0a3b16e07647b2ff9","5f60eb79b140150109df7a6f","false","null","<span style=""color: black; font-size: 48px"">M + N</span>","null","","","","resp_prompt","","","","","","","","","","","","","","","",""
"categorize-image","155","463640","0.0-4.0-1.0-1.12","og2lv2cav4jgrfz","prime","5f5fb07f3a1060048b583bdc","5f60e3c0a3b16e07647b2ff9","5f60eb79b140150109df7a6f","true","649.1399999940768","./Stimuli/SelectedImages/LM/LM129.bmp","83","","","","test","true","M + N","83","switch","LM","LM129.bmp","forget","","61","3","prime1","left","","","",""
"html-keyboard-response","156","465648","0.0-4.0-1.0-3.12","og2lv2cav4jgrfz","prime","5f5fb07f3a1060048b583bdc","5f60e3c0a3b16e07647b2ff9","5f60eb79b140150109df7a6f","false","null","<div style=""align-items: center; display: flex; color: darkorange; font-size: 90px""><b>ø</b></div>","null","","","","forget_cue","","","","","","","","","","","","","","","",""
"html-keyboard-response","157","466366","0.0-4.0-1.0-0.13","og2lv2cav4jgrfz","prime","5f5fb07f3a1060048b583bdc","5f60e3c0a3b16e07647b2ff9","5f60eb79b140150109df7a6f","false","null","<span style=""color: black; font-size: 48px"">M + N</span>","null","","","","resp_prompt","","","","","","","","","","","","","","","",""
"categorize-image","158","466998","0.0-4.0-1.0-1.13","og2lv2cav4jgrfz","prime","5f5fb07f3a1060048b583bdc","5f60e3c0a3b16e07647b2ff9","5f60eb79b140150109df7a6f","true","625.6600000197068","./Stimuli/SelectedImages/SN/SN128.bmp","76","","","","test","true","M + N","76","switch","SN","SN128.bmp","remember","","62","3","prime1","right","","","",""
"html-keyboard-response","159","469012","0.0-4.0-1.0-3.13","og2lv2cav4jgrfz","prime","5f5fb07f3a1060048b583bdc","5f60e3c0a3b16e07647b2ff9","5f60eb79b140150109df7a6f","false","null","<div style=""align-items: center; display: flex; color: dodgerblue; font-size: 90px""><b>o</b></div>","null","","","","forget_cue","","","","","","","","","","","","","","","",""
"html-keyboard-response","160","469729","0.0-4.0-1.0-0.14","og2lv2cav4jgrfz","prime","5f5fb07f3a1060048b583bdc","5f60e3c0a3b16e07647b2ff9","5f60eb79b140150109df7a6f","false","null","<span style=""color: black; font-size: 48px"">N + M</span>","null","","","","resp_prompt","","","","","","","","","","","","","","","",""
"categorize-image","161","470440","0.0-4.0-1.0-1.14","og2lv2cav4jgrfz","prime","5f5fb07f3a1060048b583bdc","5f60e3c0a3b16e07647b2ff9","5f60eb79b140150109df7a6f","true","704.970000020694","./Stimuli/SelectedImages/SM/SM106.bmp","76","","","","test","true","N + M","76","repetition","SM","SM106.bmp","forget","","63","3","prime1","right","","","",""
"html-keyboard-response","162","472444","0.0-4.0-1.0-3.14","og2lv2cav4jgrfz","prime","5f5fb07f3a1060048b583bdc","5f60e3c0a3b16e07647b2ff9","5f60eb79b140150109df7a6f","false","null","<div style=""align-items: center; display: flex; color: darkorange; font-size: 90px""><b>ø</b></div>","null","","","","forget_cue","","","","","","","","","","","","","","","",""
"html-keyboard-response","163","473160","0.0-4.0-1.0-0.15","og2lv2cav4jgrfz","prime","5f5fb07f3a1060048b583bdc","5f60e3c0a3b16e07647b2ff9","5f60eb79b140150109df7a6f","false","null","<span style=""color: black; font-size: 48px"">N + M</span>","null","","","","resp_prompt","","","","","","","","","","","","","","","",""
"categorize-image","164","473716","0.0-4.0-1.0-1.15","og2lv2cav4jgrfz","prime","5f5fb07f3a1060048b583bdc","5f60e3c0a3b16e07647b2ff9","5f60eb79b140150109df7a6f","true","548.5599999665283","./Stimuli/SelectedImages/SN/SN155.bmp","83","","","","test","true","N + M","83","repetition","SN","SN155.bmp","forget","","64","3","prime1","left","","","",""
"html-keyboard-response","165","475722","0.0-4.0-1.0-3.15","og2lv2cav4jgrfz","prime","5f5fb07f3a1060048b583bdc","5f60e3c0a3b16e07647b2ff9","5f60eb79b140150109df7a6f","false","null","<div style=""align-items: center; display: flex; color: darkorange; font-size: 90px""><b>ø</b></div>","null","","","","forget_cue","","","","","","","","","","","","","","","",""
"html-keyboard-response","166","476439","0.0-4.0-1.0-0.16","og2lv2cav4jgrfz","prime","5f5fb07f3a1060048b583bdc","5f60e3c0a3b16e07647b2ff9","5f60eb79b140150109df7a6f","false","null","<span style=""color: black; font-size: 48px"">N + M</span>","null","","","","resp_prompt","","","","","","","","","","","","","","","",""
"categorize-image","167","477113","0.0-4.0-1.0-1.16","og2lv2cav4jgrfz","prime","5f5fb07f3a1060048b583bdc","5f60e3c0a3b16e07647b2ff9","5f60eb79b140150109df7a6f","true","667.249999998603","./Stimuli/SelectedImages/SM/SM73.bmp","76","","","","test","true","N + M","76","switch","SM","SM73.bmp","forget","","65","3","prime1","right","","","",""
"html-keyboard-response","168","479117","0.0-4.0-1.0-3.16","og2lv2cav4jgrfz","prime","5f5fb07f3a1060048b583bdc","5f60e3c0a3b16e07647b2ff9","5f60eb79b140150109df7a6f","false","null","<div style=""align-items: center; display: flex; color: darkorange; font-size: 90px""><b>ø</b></div>","null","","","","forget_cue","","","","","","","","","","","","","","","",""
"html-keyboard-response","169","479821","0.0-4.0-1.0-0.17","og2lv2cav4jgrfz","prime","5f5fb07f3a1060048b583bdc","5f60e3c0a3b16e07647b2ff9","5f60eb79b140150109df7a6f","false","null","<span style=""color: black; font-size: 48px"">M + N</span>","null","","","","resp_prompt","","","","","","","","","","","","","","","",""
"categorize-image","170","480948","0.0-4.0-1.0-1.17","og2lv2cav4jgrfz","prime","5f5fb07f3a1060048b583bdc","5f60e3c0a3b16e07647b2ff9","5f60eb79b140150109df7a6f","true","1121.0699999937788","./Stimuli/SelectedImages/LM/LM103.bmp","83","","","","test","true","M + N","83","switch","LM","LM103.bmp","remember","","66","3","prime1","left","","","",""
"html-keyboard-response","171","482951","0.0-4.0-1.0-3.17","og2lv2cav4jgrfz","prime","5f5fb07f3a1060048b583bdc","5f60e3c0a3b16e07647b2ff9","5f60eb79b140150109df7a6f","false","null","<div style=""align-items: center; display: flex; color: dodgerblue; font-size: 90px""><b>o</b></div>","null","","","","forget_cue","","","","","","","","","","","","","","","",""
"html-keyboard-response","172","483667","0.0-4.0-1.0-0.18","og2lv2cav4jgrfz","prime","5f5fb07f3a1060048b583bdc","5f60e3c0a3b16e07647b2ff9","5f60eb79b140150109df7a6f","false","null","<span style=""color: black; font-size: 48px"">N + M</span>","null","","","","resp_prompt","","","","","","","","","","","","","","","",""
"categorize-image","173","484492","0.0-4.0-1.0-1.18","og2lv2cav4jgrfz","prime","5f5fb07f3a1060048b583bdc","5f60e3c0a3b16e07647b2ff9","5f60eb79b140150109df7a6f","true","818.9600000041537","./Stimuli/SelectedImages/SN/SN240.bmp","83","","","","test","true","N + M","83","repetition","SN","SN240.bmp","forget","","67","3","prime1","left","","","",""
"html-keyboard-response","174","486497","0.0-4.0-1.0-3.18","og2lv2cav4jgrfz","prime","5f5fb07f3a1060048b583bdc","5f60e3c0a3b16e07647b2ff9","5f60eb79b140150109df7a6f","false","null","<div style=""align-items: center; display: flex; color: darkorange; font-size: 90px""><b>ø</b></div>","null","","","","forget_cue","","","","","","","","","","","","","","","",""
"html-keyboard-response","175","487213","0.0-4.0-1.0-0.19","og2lv2cav4jgrfz","prime","5f5fb07f3a1060048b583bdc","5f60e3c0a3b16e07647b2ff9","5f60eb79b140150109df7a6f","false","null","<span style=""color: black; font-size: 48px"">N + M</span>","null","","","","resp_prompt","","","","","","","","","","","","","","","",""
"categorize-image","176","487836","0.0-4.0-1.0-1.19","og2lv2cav4jgrfz","prime","5f5fb07f3a1060048b583bdc","5f60e3c0a3b16e07647b2ff9","5f60eb79b140150109df7a6f","true","616.5599999949336","./Stimuli/SelectedImages/SM/SM207.bmp","76","","","","test","true","N + M","76","switch","SM","SM207.bmp","forget","","68","3","prime1","right","","","",""
"html-keyboard-response","177","489843","0.0-4.0-1.0-3.19","og2lv2cav4jgrfz","prime","5f5fb07f3a1060048b583bdc","5f60e3c0a3b16e07647b2ff9","5f60eb79b140150109df7a6f","false","null","<div style=""align-items: center; display: flex; color: darkorange; font-size: 90px""><b>ø</b></div>","null","","","","forget_cue","","","","","","","","","","","","","","","",""
"html-keyboard-response","178","490561","0.0-4.0-1.0-0.20","og2lv2cav4jgrfz","prime","5f5fb07f3a1060048b583bdc","5f60e3c0a3b16e07647b2ff9","5f60eb79b140150109df7a6f","false","null","<span style=""color: black; font-size: 48px"">N + M</span>","null","","","","resp_prompt","","","","","","","","","","","","","","","",""
"categorize-image","179","491226","0.0-4.0-1.0-1.20","og2lv2cav4jgrfz","prime","5f5fb07f3a1060048b583bdc","5f60e3c0a3b16e07647b2ff9","5f60eb79b140150109df7a6f","true","659.4250000198372","./Stimuli/SelectedImages/LM/LM157.bmp","76","","","","test","true","N + M","76","repetition","LM","LM157.bmp","remember","","69","3","prime1","right","","","",""
"html-keyboard-response","180","493241","0.0-4.0-1.0-3.20","og2lv2cav4jgrfz","prime","5f5fb07f3a1060048b583bdc","5f60e3c0a3b16e07647b2ff9","5f60eb79b140150109df7a6f","false","null","<div style=""align-items: center; display: flex; color: dodgerblue; font-size: 90px""><b>o</b></div>","null","","","","forget_cue","","","","","","","","","","","","","","","",""
"html-keyboard-response","181","493956","0.0-4.0-1.0-0.21","og2lv2cav4jgrfz","prime","5f5fb07f3a1060048b583bdc","5f60e3c0a3b16e07647b2ff9","5f60eb79b140150109df7a6f","false","null","<span style=""color: black; font-size: 48px"">N + M</span>","null","","","","resp_prompt","","","","","","","","","","","","","","","",""
"categorize-image","182","494538","0.0-4.0-1.0-1.21","og2lv2cav4jgrfz","prime","5f5fb07f3a1060048b583bdc","5f60e3c0a3b16e07647b2ff9","5f60eb79b140150109df7a6f","true","576.0700000100769","./Stimuli/SelectedImages/SN/SN93.bmp","83","","","","test","true","N + M","83","switch","SN","SN93.bmp","forget","","70","3","prime1","left","","","",""
"html-keyboard-response","183","496554","0.0-4.0-1.0-3.21","og2lv2cav4jgrfz","prime","5f5fb07f3a1060048b583bdc","5f60e3c0a3b16e07647b2ff9","5f60eb79b140150109df7a6f","false","null","<div style=""align-items: center; display: flex; color: darkorange; font-size: 90px""><b>ø</b></div>","null","","","","forget_cue","","","","","","","","","","","","","","","",""
"html-keyboard-response","184","497271","0.0-4.0-1.0-0.22","og2lv2cav4jgrfz","prime","5f5fb07f3a1060048b583bdc","5f60e3c0a3b16e07647b2ff9","5f60eb79b140150109df7a6f","false","null","<span style=""color: black; font-size: 48px"">N + M</span>","null","","","","resp_prompt","","","","","","","","","","","","","","","",""
"categorize-image","185","497940","0.0-4.0-1.0-1.22","og2lv2cav4jgrfz","prime","5f5fb07f3a1060048b583bdc","5f60e3c0a3b16e07647b2ff9","5f60eb79b140150109df7a6f","true","663.7399999890476","./Stimuli/SelectedImages/LN/LN101.bmp","83","","","","test","true","N + M","83","switch","LN","LN101.bmp","forget","","71","3","prime1","left","","","",""
"html-keyboard-response","186","499950","0.0-4.0-1.0-3.22","og2lv2cav4jgrfz","prime","5f5fb07f3a1060048b583bdc","5f60e3c0a3b16e07647b2ff9","5f60eb79b140150109df7a6f","false","null","<div style=""align-items: center; display: flex; color: darkorange; font-size: 90px""><b>ø</b></div>","null","","","","forget_cue","","","","","","","","","","","","","","","",""
"html-keyboard-response","187","500654","0.0-4.0-1.0-0.23","og2lv2cav4jgrfz","prime","5f5fb07f3a1060048b583bdc","5f60e3c0a3b16e07647b2ff9","5f60eb79b140150109df7a6f","false","null","<span style=""color: black; font-size: 48px"">N + M</span>","null","","","","resp_prompt","","","","","","","","","","","","","","","",""
"categorize-image","188","501991","0.0-4.0-1.0-1.23","og2lv2cav4jgrfz","prime","5f5fb07f3a1060048b583bdc","5f60e3c0a3b16e07647b2ff9","5f60eb79b140150109df7a6f","true","1331.8200000212528","./Stimuli/SelectedImages/SM/SM195.bmp","76","","","","test","true","N + M","76","switch","SM","SM195.bmp","remember","","72","3","prime1","right","","","",""
"html-keyboard-response","189","503998","0.0-4.0-1.0-3.23","og2lv2cav4jgrfz","prime","5f5fb07f3a1060048b583bdc","5f60e3c0a3b16e07647b2ff9","5f60eb79b140150109df7a6f","false","null","<div style=""align-items: center; display: flex; color: dodgerblue; font-size: 90px""><b>o</b></div>","null","","","","forget_cue","","","","","","","","","","","","","","","",""
"html-keyboard-response","190","504700","0.0-4.0-1.0-0.24","og2lv2cav4jgrfz","prime","5f5fb07f3a1060048b583bdc","5f60e3c0a3b16e07647b2ff9","5f60eb79b140150109df7a6f","false","null","<span style=""color: black; font-size: 48px"">N + M</span>","null","","","","resp_prompt","","","","","","","","","","","","","","","",""
"categorize-image","191","505372","0.0-4.0-1.0-1.24","og2lv2cav4jgrfz","prime","5f5fb07f3a1060048b583bdc","5f60e3c0a3b16e07647b2ff9","5f60eb79b140150109df7a6f","true","665.9199999994598","./Stimuli/SelectedImages/LM/LM57.bmp","76","","","","test","true","N + M","76","repetition","LM","LM57.bmp","remember","","73","3","prime1","right","","","",""
"html-keyboard-response","192","507379","0.0-4.0-1.0-3.24","og2lv2cav4jgrfz","prime","5f5fb07f3a1060048b583bdc","5f60e3c0a3b16e07647b2ff9","5f60eb79b140150109df7a6f","false","null","<div style=""align-items: center; display: flex; color: dodgerblue; font-size: 90px""><b>o</b></div>","null","","","","forget_cue","","","","","","","","","","","","","","","",""
"html-keyboard-response","193","508081","0.0-4.0-1.0-0.25","og2lv2cav4jgrfz","prime","5f5fb07f3a1060048b583bdc","5f60e3c0a3b16e07647b2ff9","5f60eb79b140150109df7a6f","false","null","<span style=""color: black; font-size: 48px"">N + M</span>","null","","","","resp_prompt","","","","","","","","","","","","","","","",""
"categorize-image","194","508805","0.0-4.0-1.0-1.25","og2lv2cav4jgrfz","prime","5f5fb07f3a1060048b583bdc","5f60e3c0a3b16e07647b2ff9","5f60eb79b140150109df7a6f","true","718.3749999967404","./Stimuli/SelectedImages/LM/LM167.bmp","76","","","","test","true","N + M","76","switch","LM","LM167.bmp","forget","","74","3","prime1","right","","","",""
"html-keyboard-response","195","510811","0.0-4.0-1.0-3.25","og2lv2cav4jgrfz","prime","5f5fb07f3a1060048b583bdc","5f60e3c0a3b16e07647b2ff9","5f60eb79b140150109df7a6f","false","null","<div style=""align-items: center; display: flex; color: darkorange; font-size: 90px""><b>ø</b></div>","null","","","","forget_cue","","","","","","","","","","","","","","","",""
"html-keyboard-response","196","511527","0.0-4.0-1.0-0.26","og2lv2cav4jgrfz","prime","5f5fb07f3a1060048b583bdc","5f60e3c0a3b16e07647b2ff9","5f60eb79b140150109df7a6f","false","null","<span style=""color: black; font-size: 48px"">N + M</span>","null","","","","resp_prompt","","","","","","","","","","","","","","","",""
"categorize-image","197","512053","0.0-4.0-1.0-1.26","og2lv2cav4jgrfz","prime","5f5fb07f3a1060048b583bdc","5f60e3c0a3b16e07647b2ff9","5f60eb79b140150109df7a6f","true","519.3599999765866","./Stimuli/SelectedImages/LM/LM58.bmp","76","","","","test","true","N + M","76","repetition","LM","LM58.bmp","forget","","75","3","prime1","right","","","",""
"html-keyboard-response","198","514057","0.0-4.0-1.0-3.26","og2lv2cav4jgrfz","prime","5f5fb07f3a1060048b583bdc","5f60e3c0a3b16e07647b2ff9","5f60eb79b140150109df7a6f","false","null","<div style=""align-items: center; display: flex; color: darkorange; font-size: 90px""><b>ø</b></div>","null","","","","forget_cue","","","","","","","","","","","","","","","",""
"html-keyboard-response","199","514774","0.0-4.0-1.0-0.27","og2lv2cav4jgrfz","prime","5f5fb07f3a1060048b583bdc","5f60e3c0a3b16e07647b2ff9","5f60eb79b140150109df7a6f","false","null","<span style=""color: black; font-size: 48px"">M + N</span>","null","","","","resp_prompt","","","","","","","","","","","","","","","",""
"categorize-image","200","515377","0.0-4.0-1.0-1.27","og2lv2cav4jgrfz","prime","5f5fb07f3a1060048b583bdc","5f60e3c0a3b16e07647b2ff9","5f60eb79b140150109df7a6f","true","597.5900000194088","./Stimuli/SelectedImages/SN/SN181.bmp","76","","","","test","true","M + N","76","repetition","SN","SN181.bmp","forget","","76","3","prime1","right","","","",""
"html-keyboard-response","201","517386","0.0-4.0-1.0-3.27","og2lv2cav4jgrfz","prime","5f5fb07f3a1060048b583bdc","5f60e3c0a3b16e07647b2ff9","5f60eb79b140150109df7a6f","false","null","<div style=""align-items: center; display: flex; color: darkorange; font-size: 90px""><b>ø</b></div>","null","","","","forget_cue","","","","","","","","","","","","","","","",""
"html-keyboard-response","202","518103","0.0-4.0-1.0-0.28","og2lv2cav4jgrfz","prime","5f5fb07f3a1060048b583bdc","5f60e3c0a3b16e07647b2ff9","5f60eb79b140150109df7a6f","false","null","<span style=""color: black; font-size: 48px"">M + N</span>","null","","","","resp_prompt","","","","","","","","","","","","","","","",""
"categorize-image","203","518731","0.0-4.0-1.0-1.28","og2lv2cav4jgrfz","prime","5f5fb07f3a1060048b583bdc","5f60e3c0a3b16e07647b2ff9","5f60eb79b140150109df7a6f","true","622.9049999965355","./Stimuli/SelectedImages/SM/SM128.bmp","83","","","","test","true","M + N","83","repetition","SM","SM128.bmp","forget","","77","3","prime1","left","","","",""
"html-keyboard-response","204","520736","0.0-4.0-1.0-3.28","og2lv2cav4jgrfz","prime","5f5fb07f3a1060048b583bdc","5f60e3c0a3b16e07647b2ff9","5f60eb79b140150109df7a6f","false","null","<div style=""align-items: center; display: flex; color: darkorange; font-size: 90px""><b>ø</b></div>","null","","","","forget_cue","","","","","","","","","","","","","","","",""
"html-keyboard-response","205","521450","0.0-4.0-1.0-0.29","og2lv2cav4jgrfz","prime","5f5fb07f3a1060048b583bdc","5f60e3c0a3b16e07647b2ff9","5f60eb79b140150109df7a6f","false","null","<span style=""color: black; font-size: 48px"">M + N</span>","null","","","","resp_prompt","","","","","","","","","","","","","","","",""
"categorize-image","206","523292","0.0-4.0-1.0-1.29","og2lv2cav4jgrfz","prime","5f5fb07f3a1060048b583bdc","5f60e3c0a3b16e07647b2ff9","5f60eb79b140150109df7a6f","true","1835.9700000146404","./Stimuli/SelectedImages/SM/SM200.bmp","83","","","","test","true","M + N","83","repetition","SM","SM200.bmp","remember","","78","3","prime1","left","","","",""
"html-keyboard-response","207","525298","0.0-4.0-1.0-3.29","og2lv2cav4jgrfz","prime","5f5fb07f3a1060048b583bdc","5f60e3c0a3b16e07647b2ff9","5f60eb79b140150109df7a6f","false","null","<div style=""align-items: center; display: flex; color: dodgerblue; font-size: 90px""><b>o</b></div>","null","","","","forget_cue","","","","","","","","","","","","","","","",""
"html-keyboard-response","208","526013","0.0-4.0-1.0-0.30","og2lv2cav4jgrfz","prime","5f5fb07f3a1060048b583bdc","5f60e3c0a3b16e07647b2ff9","5f60eb79b140150109df7a6f","false","null","<span style=""color: black; font-size: 48px"">M + N</span>","null","","","","resp_prompt","","","","","","","","","","","","","","","",""
"categorize-image","209","527152","0.0-4.0-1.0-1.30","og2lv2cav4jgrfz","prime","5f5fb07f3a1060048b583bdc","5f60e3c0a3b16e07647b2ff9","5f60eb79b140150109df7a6f","true","1134.5950000104494","./Stimuli/SelectedImages/LN/LN166.bmp","76","","","","test","true","M + N","76","repetition","LN","LN166.bmp","remember","","79","3","prime1","right","","","",""
"html-keyboard-response","210","529160","0.0-4.0-1.0-3.30","og2lv2cav4jgrfz","prime","5f5fb07f3a1060048b583bdc","5f60e3c0a3b16e07647b2ff9","5f60eb79b140150109df7a6f","false","null","<div style=""align-items: center; display: flex; color: dodgerblue; font-size: 90px""><b>o</b></div>","null","","","","forget_cue","","","","","","","","","","","","","","","",""
"html-keyboard-response","211","529875","0.0-4.0-1.0-0.31","og2lv2cav4jgrfz","prime","5f5fb07f3a1060048b583bdc","5f60e3c0a3b16e07647b2ff9","5f60eb79b140150109df7a6f","false","null","<span style=""color: black; font-size: 48px"">N + M</span>","null","","","","resp_prompt","","","","","","","","","","","","","","","",""
"categorize-image","212","530681","0.0-4.0-1.0-1.31","og2lv2cav4jgrfz","prime","5f5fb07f3a1060048b583bdc","5f60e3c0a3b16e07647b2ff9","5f60eb79b140150109df7a6f","true","799.5300000184216","./Stimuli/SelectedImages/LM/LM179.bmp","76","","","","test","true","N + M","76","switch","LM","LM179.bmp","remember","","80","3","prime1","right","","","",""
"html-keyboard-response","213","532691","0.0-4.0-1.0-3.31","og2lv2cav4jgrfz","prime","5f5fb07f3a1060048b583bdc","5f60e3c0a3b16e07647b2ff9","5f60eb79b140150109df7a6f","false","null","<div style=""align-items: center; display: flex; color: dodgerblue; font-size: 90px""><b>o</b></div>","null","","","","forget_cue","","","","","","","","","","","","","","","",""
"html-keyboard-response","214","533407","0.0-4.0-1.0-0.32","og2lv2cav4jgrfz","prime","5f5fb07f3a1060048b583bdc","5f60e3c0a3b16e07647b2ff9","5f60eb79b140150109df7a6f","false","null","<span style=""color: black; font-size: 48px"">M + N</span>","null","","","","resp_prompt","","","","","","","","","","","","","","","",""
"categorize-image","215","534840","0.0-4.0-1.0-1.32","og2lv2cav4jgrfz","prime","5f5fb07f3a1060048b583bdc","5f60e3c0a3b16e07647b2ff9","5f60eb79b140150109df7a6f","true","1427.2199999541044","./Stimuli/SelectedImages/LN/LN9.bmp","76","","","","test","true","M + N","76","repetition","LN","LN9.bmp","remember","","81","3","prime1","right","","","",""
"html-keyboard-response","216","536852","0.0-4.0-1.0-3.32","og2lv2cav4jgrfz","prime","5f5fb07f3a1060048b583bdc","5f60e3c0a3b16e07647b2ff9","5f60eb79b140150109df7a6f","false","null","<div style=""align-items: center; display: flex; color: dodgerblue; font-size: 90px""><b>o</b></div>","null","","","","forget_cue","","","","","","","","","","","","","","","",""
"html-keyboard-response","217","537570","0.0-4.0-1.0-0.33","og2lv2cav4jgrfz","prime","5f5fb07f3a1060048b583bdc","5f60e3c0a3b16e07647b2ff9","5f60eb79b140150109df7a6f","false","null","<span style=""color: black; font-size: 48px"">M + N</span>","null","","","","resp_prompt","","","","","","","","","","","","","","","",""
"categorize-image","218","538311","0.0-4.0-1.0-1.33","og2lv2cav4jgrfz","prime","5f5fb07f3a1060048b583bdc","5f60e3c0a3b16e07647b2ff9","5f60eb79b140150109df7a6f","true","734.6050000051036","./Stimuli/SelectedImages/SN/SN60.bmp","76","","","","test","true","M + N","76","repetition","SN","SN60.bmp","remember","","82","3","prime1","right","","","",""
"html-keyboard-response","219","540327","0.0-4.0-1.0-3.33","og2lv2cav4jgrfz","prime","5f5fb07f3a1060048b583bdc","5f60e3c0a3b16e07647b2ff9","5f60eb79b140150109df7a6f","false","null","<div style=""align-items: center; display: flex; color: dodgerblue; font-size: 90px""><b>o</b></div>","null","","","","forget_cue","","","","","","","","","","","","","","","",""
"html-keyboard-response","220","541035","0.0-4.0-1.0-0.34","og2lv2cav4jgrfz","prime","5f5fb07f3a1060048b583bdc","5f60e3c0a3b16e07647b2ff9","5f60eb79b140150109df7a6f","false","null","<span style=""color: black; font-size: 48px"">N + M</span>","null","","","","resp_prompt","","","","","","","","","","","","","","","",""
"categorize-image","221","541591","0.0-4.0-1.0-1.34","og2lv2cav4jgrfz","prime","5f5fb07f3a1060048b583bdc","5f60e3c0a3b16e07647b2ff9","5f60eb79b140150109df7a6f","true","549.9950000084937","./Stimuli/SelectedImages/SN/SN49.bmp","83","","","","test","true","N + M","83","switch","SN","SN49.bmp","remember","","83","3","prime1","left","","","",""
"html-keyboard-response","222","543596","0.0-4.0-1.0-3.34","og2lv2cav4jgrfz","prime","5f5fb07f3a1060048b583bdc","5f60e3c0a3b16e07647b2ff9","5f60eb79b140150109df7a6f","false","null","<div style=""align-items: center; display: flex; color: dodgerblue; font-size: 90px""><b>o</b></div>","null","","","","forget_cue","","","","","","","","","","","","","","","",""
"html-keyboard-response","223","544314","0.0-4.0-1.0-0.35","og2lv2cav4jgrfz","prime","5f5fb07f3a1060048b583bdc","5f60e3c0a3b16e07647b2ff9","5f60eb79b140150109df7a6f","false","null","<span style=""color: black; font-size: 48px"">N + M</span>","null","","","","resp_prompt","","","","","","","","","","","","","","","",""
"categorize-image","224","545047","0.0-4.0-1.0-1.35","og2lv2cav4jgrfz","prime","5f5fb07f3a1060048b583bdc","5f60e3c0a3b16e07647b2ff9","5f60eb79b140150109df7a6f","true","725.5400000140071","./Stimuli/SelectedImages/LN/LN12.bmp","83","","","","test","true","N + M","83","repetition","LN","LN12.bmp","remember","","84","3","prime1","left","","","",""
"html-keyboard-response","225","547059","0.0-4.0-1.0-3.35","og2lv2cav4jgrfz","prime","5f5fb07f3a1060048b583bdc","5f60e3c0a3b16e07647b2ff9","5f60eb79b140150109df7a6f","false","null","<div style=""align-items: center; display: flex; color: dodgerblue; font-size: 90px""><b>o</b></div>","null","","","","forget_cue","","","","","","","","","","","","","","","",""
"html-keyboard-response","226","547762","0.0-4.0-1.0-0.36","og2lv2cav4jgrfz","prime","5f5fb07f3a1060048b583bdc","5f60e3c0a3b16e07647b2ff9","5f60eb79b140150109df7a6f","false","null","<span style=""color: black; font-size: 48px"">N + M</span>","null","","","","resp_prompt","","","","","","","","","","","","","","","",""
"categorize-image","227","548513","0.0-4.0-1.0-1.36","og2lv2cav4jgrfz","prime","5f5fb07f3a1060048b583bdc","5f60e3c0a3b16e07647b2ff9","5f60eb79b140150109df7a6f","true","744.864999956917","./Stimuli/SelectedImages/LN/LN128.bmp","83","","","","test","true","N + M","83","repetition","LN","LN128.bmp","remember","","85","3","prime1","left","","","",""
"html-keyboard-response","228","550525","0.0-4.0-1.0-3.36","og2lv2cav4jgrfz","prime","5f5fb07f3a1060048b583bdc","5f60e3c0a3b16e07647b2ff9","5f60eb79b140150109df7a6f","false","null","<div style=""align-items: center; display: flex; color: dodgerblue; font-size: 90px""><b>o</b></div>","null","","","","forget_cue","","","","","","","","","","","","","","","",""
"html-keyboard-response","229","551242","0.0-4.0-1.0-0.37","og2lv2cav4jgrfz","prime","5f5fb07f3a1060048b583bdc","5f60e3c0a3b16e07647b2ff9","5f60eb79b140150109df7a6f","false","null","<span style=""color: black; font-size: 48px"">M + N</span>","null","","","","resp_prompt","","","","","","","","","","","","","","","",""
"categorize-image","230","552002","0.0-4.0-1.0-1.37","og2lv2cav4jgrfz","prime","5f5fb07f3a1060048b583bdc","5f60e3c0a3b16e07647b2ff9","5f60eb79b140150109df7a6f","true","754.190000006929","./Stimuli/SelectedImages/SM/SM24.bmp","76","","","","test","false","M + N","83","repetition","SM","SM24.bmp","forget","","86","3","prime1","right","","","",""
"html-keyboard-response","231","552506","0.0-4.0-1.0-2.37-0.37","og2lv2cav4jgrfz","prime","5f5fb07f3a1060048b583bdc","5f60e3c0a3b16e07647b2ff9","5f60eb79b140150109df7a6f","false","null","<span style=""color: red; font-size: 48px"">Error!</span>","null","","","","feedback","","","","","","","","","","","","","","","",""
"html-keyboard-response","232","554519","0.0-4.0-1.0-3.37","og2lv2cav4jgrfz","prime","5f5fb07f3a1060048b583bdc","5f60e3c0a3b16e07647b2ff9","5f60eb79b140150109df7a6f","false","null","<div style=""align-items: center; display: flex; color: darkorange; font-size: 90px""><b>ø</b></div>","null","","","","forget_cue","","","","","","","","","","","","","","","",""
"html-keyboard-response","233","555221","0.0-4.0-1.0-0.38","og2lv2cav4jgrfz","prime","5f5fb07f3a1060048b583bdc","5f60e3c0a3b16e07647b2ff9","5f60eb79b140150109df7a6f","false","null","<span style=""color: black; font-size: 48px"">M + N</span>","null","","","","resp_prompt","","","","","","","","","","","","","","","",""
"categorize-image","234","556025","0.0-4.0-1.0-1.38","og2lv2cav4jgrfz","prime","5f5fb07f3a1060048b583bdc","5f60e3c0a3b16e07647b2ff9","5f60eb79b140150109df7a6f","true","799.3600000045262","./Stimuli/SelectedImages/LN/LN177.bmp","76","","","","test","true","M + N","76","switch","LN","LN177.bmp","forget","","87","3","prime1","right","","","",""
"html-keyboard-response","235","558034","0.0-4.0-1.0-3.38","og2lv2cav4jgrfz","prime","5f5fb07f3a1060048b583bdc","5f60e3c0a3b16e07647b2ff9","5f60eb79b140150109df7a6f","false","null","<div style=""align-items: center; display: flex; color: darkorange; font-size: 90px""><b>ø</b></div>","null","","","","forget_cue","","","","","","","","","","","","","","","",""
"html-keyboard-response","236","558752","0.0-4.0-1.0-0.39","og2lv2cav4jgrfz","prime","5f5fb07f3a1060048b583bdc","5f60e3c0a3b16e07647b2ff9","5f60eb79b140150109df7a6f","false","null","<span style=""color: black; font-size: 48px"">M + N</span>","null","","","","resp_prompt","","","","","","","","","","","","","","","",""
"categorize-image","237","560001","0.0-4.0-1.0-1.39","og2lv2cav4jgrfz","prime","5f5fb07f3a1060048b583bdc","5f60e3c0a3b16e07647b2ff9","5f60eb79b140150109df7a6f","true","1241.3199999718927","./Stimuli/SelectedImages/LM/LM75.bmp","83","","","","test","true","M + N","83","repetition","LM","LM75.bmp","remember","","88","3","prime1","left","","","",""
"html-keyboard-response","238","562015","0.0-4.0-1.0-3.39","og2lv2cav4jgrfz","prime","5f5fb07f3a1060048b583bdc","5f60e3c0a3b16e07647b2ff9","5f60eb79b140150109df7a6f","false","null","<div style=""align-items: center; display: flex; color: dodgerblue; font-size: 90px""><b>o</b></div>","null","","","","forget_cue","","","","","","","","","","","","","","","",""
"html-keyboard-response","239","562730","0.0-4.0-1.0-0.40","og2lv2cav4jgrfz","prime","5f5fb07f3a1060048b583bdc","5f60e3c0a3b16e07647b2ff9","5f60eb79b140150109df7a6f","false","null","<span style=""color: black; font-size: 48px"">M + N</span>","null","","","","resp_prompt","","","","","","","","","","","","","","","",""
"categorize-image","240","564080","0.0-4.0-1.0-1.40","og2lv2cav4jgrfz","prime","5f5fb07f3a1060048b583bdc","5f60e3c0a3b16e07647b2ff9","5f60eb79b140150109df7a6f","true","1344.5550000178628","./Stimuli/SelectedImages/SN/SN111.bmp","76","","","","test","true","M + N","76","repetition","SN","SN111.bmp","remember","","89","3","prime1","right","","","",""
"html-keyboard-response","241","566094","0.0-4.0-1.0-3.40","og2lv2cav4jgrfz","prime","5f5fb07f3a1060048b583bdc","5f60e3c0a3b16e07647b2ff9","5f60eb79b140150109df7a6f","false","null","<div style=""align-items: center; display: flex; color: dodgerblue; font-size: 90px""><b>o</b></div>","null","","","","forget_cue","","","","","","","","","","","","","","","",""
"html-keyboard-response","242","566811","0.0-4.0-1.0-0.41","og2lv2cav4jgrfz","prime","5f5fb07f3a1060048b583bdc","5f60e3c0a3b16e07647b2ff9","5f60eb79b140150109df7a6f","false","null","<span style=""color: black; font-size: 48px"">M + N</span>","null","","","","resp_prompt","","","","","","","","","","","","","","","",""
"categorize-image","243","567662","0.0-4.0-1.0-1.41","og2lv2cav4jgrfz","prime","5f5fb07f3a1060048b583bdc","5f60e3c0a3b16e07647b2ff9","5f60eb79b140150109df7a6f","true","845.1299999724142","./Stimuli/SelectedImages/LN/LN111.bmp","76","","","","test","true","M + N","76","switch","LN","LN111.bmp","forget","","90","3","prime1","right","","","",""
"html-keyboard-response","244","569678","0.0-4.0-1.0-3.41","og2lv2cav4jgrfz","prime","5f5fb07f3a1060048b583bdc","5f60e3c0a3b16e07647b2ff9","5f60eb79b140150109df7a6f","false","null","<div style=""align-items: center; display: flex; color: darkorange; font-size: 90px""><b>ø</b></div>","null","","","","forget_cue","","","","","","","","","","","","","","","",""
"html-keyboard-response","245","570390","0.0-4.0-1.0-0.42","og2lv2cav4jgrfz","prime","5f5fb07f3a1060048b583bdc","5f60e3c0a3b16e07647b2ff9","5f60eb79b140150109df7a6f","false","null","<span style=""color: black; font-size: 48px"">N + M</span>","null","","","","resp_prompt","","","","","","","","","","","","","","","",""
"categorize-image","246","571523","0.0-4.0-1.0-1.42","og2lv2cav4jgrfz","prime","5f5fb07f3a1060048b583bdc","5f60e3c0a3b16e07647b2ff9","5f60eb79b140150109df7a6f","true","1126.4899999951012","./Stimuli/SelectedImages/SM/SM148.bmp","76","","","","test","true","N + M","76","repetition","SM","SM148.bmp","forget","","91","3","prime1","right","","","",""
"html-keyboard-response","247","573537","0.0-4.0-1.0-3.42","og2lv2cav4jgrfz","prime","5f5fb07f3a1060048b583bdc","5f60e3c0a3b16e07647b2ff9","5f60eb79b140150109df7a6f","false","null","<div style=""align-items: center; display: flex; color: darkorange; font-size: 90px""><b>ø</b></div>","null","","","","forget_cue","","","","","","","","","","","","","","","",""
"html-keyboard-response","248","574239","0.0-4.0-1.0-0.43","og2lv2cav4jgrfz","prime","5f5fb07f3a1060048b583bdc","5f60e3c0a3b16e07647b2ff9","5f60eb79b140150109df7a6f","false","null","<span style=""color: black; font-size: 48px"">M + N</span>","null","","","","resp_prompt","","","","","","","","","","","","","","","",""
"categorize-image","249","575206","0.0-4.0-1.0-1.43","og2lv2cav4jgrfz","prime","5f5fb07f3a1060048b583bdc","5f60e3c0a3b16e07647b2ff9","5f60eb79b140150109df7a6f","true","961.490000016056","./Stimuli/SelectedImages/LN/LN150.bmp","76","","","","test","true","M + N","76","switch","LN","LN150.bmp","remember","","92","3","prime1","right","","","",""
"html-keyboard-response","250","577218","0.0-4.0-1.0-3.43","og2lv2cav4jgrfz","prime","5f5fb07f3a1060048b583bdc","5f60e3c0a3b16e07647b2ff9","5f60eb79b140150109df7a6f","false","null","<div style=""align-items: center; display: flex; color: dodgerblue; font-size: 90px""><b>o</b></div>","null","","","","forget_cue","","","","","","","","","","","","","","","",""
"html-keyboard-response","251","577933","0.0-4.0-1.0-0.44","og2lv2cav4jgrfz","prime","5f5fb07f3a1060048b583bdc","5f60e3c0a3b16e07647b2ff9","5f60eb79b140150109df7a6f","false","null","<span style=""color: black; font-size: 48px"">M + N</span>","null","","","","resp_prompt","","","","","","","","","","","","","","","",""
"categorize-image","252","578598","0.0-4.0-1.0-1.44","og2lv2cav4jgrfz","prime","5f5fb07f3a1060048b583bdc","5f60e3c0a3b16e07647b2ff9","5f60eb79b140150109df7a6f","true","658.835000009276","./Stimuli/SelectedImages/SN/SN18.bmp","76","","","","test","true","M + N","76","switch","SN","SN18.bmp","forget","","93","3","prime1","right","","","",""
