"trial_type","trial_index","time_elapsed","internal_node_id","subject","exp_part","prolific_PID","study_ID","session_ID","use","rt","stimulus","key_press","button_pressed","responses","question_order","trial_part","correct","resp_map","correct_resp","probe_condition","category","image","forget_condition","list","trial_num","block_num","block","response","test_part","n_span","sequence","num_spaces"
"pavlovia","0","5","0.0-0.0","q0w9p4xtd82kg96","","5ee0f94d12ce930c1ab1d574","5f60e3c0a3b16e07647b2ff9","5f60eec8609af401bac75e0b","false","","","","","","","","","","","","","","","","","","","","","","",""
"html-keyboard-response","1","11505","0.0-1.0-0.0-0.0","q0w9p4xtd82kg96","welcome","5ee0f94d12ce930c1ab1d574","5f60e3c0a3b16e07647b2ff9","5f60eec8609af401bac75e0b","false","11497.40000005113","<div align=left>Dear participant, <br> thank you for participating in an online study of the Cognition, Action, and Sustainability Unit of the University of Freiburg! <br> <br>The aim of this study is to examine our ability to remember previously learned information. <br>Our goal is to find out, whether our memory improves, when we only remember information that is relevant to us. <br>The experiment will take about 35 minutes to complete. <br> <br>Please, note that you can only participate in this study if you are using a device with a keyboard (PC, Laptop etc.) <br>and not if you are using a mobile device such as a tablet or smartphone.<br> <br>Press 'SPACE' to proceed to the experiment. </div>","32","","","","","","","","","","","","","","","","","","","",""
"html-keyboard-response","2","36724","0.0-1.0-0.0-1.0","q0w9p4xtd82kg96","welcome","5ee0f94d12ce930c1ab1d574","5f60e3c0a3b16e07647b2ff9","5f60eec8609af401bac75e0b","false","25214.53500003554","<div align=left><strong> Time Course of this experiment: </strong> <br><br> <strong> 1.</strong>  First, please fill in some information regarding your demographic data. <br><br> <strong> 2.</strong>  Next, your task will be to classify everyday objects. <br>In addition, you will be asked to remember certain objects and recall them later. <br>Working on these tasks requires your undivided attention and concentration.<br>It is therefore essential that you eliminate any sources of distraction in your  <br>environment and ensure that you will not be disturbed. <br><br><strong> 3.</strong>  At the end of the experiment, you will be asked to answer a few additional questions. <br> <br><strong> Important:</strong> After finishing the experiment, only close the browser window <br> by clicking on the 'end the experiment'-button when you are asked to do so. <br>Closing the browser window prematurely will make the allocation of your participation credit impossible. <br><br> Press 'SPACE' to start the experiment. </div>","32","","","","","","","","","","","","","","","","","","","",""
"html-button-response","3","42753","0.0-1.0-0.0-2.0","q0w9p4xtd82kg96","welcome","5ee0f94d12ce930c1ab1d574","5f60e3c0a3b16e07647b2ff9","5f60eec8609af401bac75e0b","true","6024.974999949336","<div align=left><strong> Informed consent </strong>  <br>The aim of our research is to better understand human behavior and mental processes. <br>In the following study your behavior (e.g. choices, reaction times) will be studied. <br> <br><strong> Voluntariness and Anonymity </strong> <br>Your participation in this study is  <strong> voluntary</strong>.<br>You may withdraw your consent to participate at any time without providing a reason for doing so and without fear of prejudice. <br><br>As no personal data will be collected, <strong>your data and your person cannot be connected after data collection</strong> – the data-set is anonymous. <br>Respectively, deletion of your data will not be possible after data collection has been completed, as we cannot retrace your data-set.<br>The results and anonymized data collected in this study will be published as a scientific publication. <br>This will happen in an <strong>anonymized format</strong>, so that no data can be traced back to a specific person. <br> <br>The anonymized data of this study will be made available to other researchers and/or in a data archive on the Internet as a means of transparency and to enable subsequent re-use. By doing so, this study follows the recommendations of the Deutsche Forschungsgemeinschaft (DFG, German Research Foundation) and Deutsche Gesellschaft für Psychologie (DGPS, German Psychological Society) regarding quality assurance in research.<br>If you have any questions now or after the experiment, please contact our team (experiments@cs.uni-freiburg.de).<br><br><br>I hereby declare, that I understand the above described conditions of participation and I agree to participate under these conditions. <br><br> </div>","","0","","","","","","","","","","","","","","","","","","",""
"html-keyboard-response","4","51179","0.0-1.0-0.0-3.0","q0w9p4xtd82kg96","welcome","5ee0f94d12ce930c1ab1d574","5f60e3c0a3b16e07647b2ff9","5f60eec8609af401bac75e0b","false","8423.59000002034","<div align=left><strong> General information concerning the experiment </strong>  <br> <br>Please follow the instructions:<ol> <li><strong> Do not leave this tab (your browser window) during the experiment and do not reload this tab! </strong>  <br>If you do switch tabs/windows during the experiment (to check your mail or visit another website, for example), <br>the experiment will end automatically and you will <strong>not receive credit</strong> for your participation. <br>Repeated participation or resumption of the experiment is impossible.</li> <br><li>Please close all other programs for the duration of your participation. </li> <br><li>Please mute or turn off your phone and put it out of your reach. </li> <br><li>Please also take off any disturbing accessories (such as wristwatches, bracelets, etc.). </li> <br><li>If you have music playing in the background, please turn it off now. </li> <br></ol>Thank you! <br>Press 'SPACE' to continue. </div>","32","","","","","","","","","","","","","","","","","","","",""
"survey-text","5","56145","0.0-1.0-1.0-0.0","q0w9p4xtd82kg96","demographics","5ee0f94d12ce930c1ab1d574","5f60e3c0a3b16e07647b2ff9","5f60eec8609af401bac75e0b","true","4955.469999986235","","","","{""age"":""31""}","","","","","","","","","","","","","","","","","",""
"survey-multi-choice","6","89461","0.0-1.0-1.0-1.0","q0w9p4xtd82kg96","demographics","5ee0f94d12ce930c1ab1d574","5f60e3c0a3b16e07647b2ff9","5f60eec8609af401bac75e0b","true","33312.45999998646","","","","{""gender"":""female"",""school"":""others"",""education"":""High school graduate, diploma or equivalent""}","[0,1,2]","","","","","","","","","","","","","","","","",""
"html-keyboard-response","7","117771","0.0-1.0-2.0","q0w9p4xtd82kg96","instructions","5ee0f94d12ce930c1ab1d574","5f60e3c0a3b16e07647b2ff9","5f60eec8609af401bac75e0b","false","28307.809999969322","<div align=left> The experiment is now about to start: <br> <br>In the following part, you will be presented pictures of everyday objects. <br>Your first task is to <strong>classify these objects. </strong> <br> <br> You will classify them either as mechanical or non-mechanical objects. <br> <br>Objects that include any kind of technical mechanism (for example, wheels, switches, levers, <br> electronic components) fall under the category of <strong>mechanical</strong> objects. <br>Only objects without any kind of technical mechanism should be classified as <strong>non-mechanical</strong>. <br><br>Press 'SPACE' to continue. </div>","32","","","","","","","","","","","","","","","","","","","",""
"html-keyboard-response","8","150067","0.0-2.0-0.0","q0w9p4xtd82kg96","instructions","5ee0f94d12ce930c1ab1d574","5f60e3c0a3b16e07647b2ff9","5f60eec8609af401bac75e0b","false","32292.32999996748","<div align=justify>You will classify the objects using the <strong>'S'</strong> and the <strong>'L'</strong> keys on your keyboard.<br>For doing so, please place your <strong>left index finger</strong> on the <strong>'S'</strong> key and place your <strong>right index finger</strong> on the <strong>'L'</strong> key. <br><br> Each trial starts with an instruction, indicating which key ('S'/'L') you need to press to classify <br>the object as mechanical (letter M) or non-mechanical (letter N).<br>The instruction <strong>M + N</strong> indicates that, in the current trial, by pressing the left key ('S') you classify the displayed object as mechanical (M) <br> and by pressing the right key ('L') you classify the object as non-mechanical (N). <br>The instruction <strong>N + M</strong> on the other hand indicates that by pressing the left key ('S') you classify the displayed object as non-mechanical (N) <br> and by pressing the right key ('L') you classify the object as mechanical (M). <br><br>Please press the key corresponding to the correct classification as fast as possible as soon as the object is displayed and try to avoid making mistakes.<br>If you do not respond within a 2 second window, a corresponding feedback will be displayed and the next trial will start.<br> The experiment is divided into multiple blocks to give you the opportunity to take a break after each block. <br>First, you can now practice this task. <br><br>Please place your <strong>LEFT INDEX FINGER</strong> on the 'S' key and your <strong>RIGHT INDEX FINGER</strong> on the 'L' key now. <br><br>Press SPACE to continue.</div>","32","","","","","","","","","","","","","","","","","","","",""
"html-keyboard-response","9","157280","0.0-2.0-1.0","q0w9p4xtd82kg96","instructions","5ee0f94d12ce930c1ab1d574","5f60e3c0a3b16e07647b2ff9","5f60eec8609af401bac75e0b","false","7208.920000004582","<div align=left> You will now have time to practice this task.<br><br>Remember: <br> <br><li>Please place your index fingers on the <strong>'S'</strong> and <strong>'L'</strong> keys <br>to respond as fast and accurately as possible.</li><li>Every picture can be classified as either mechanical or non-mechanical.</li><li>If you do not respond in time or commit an error, you will receive a corresponding feedback. </li><li> Please try to respond as <strong> fast </strong> and as <strong> accurately as possible </strong> .<br><li>To ensure optimal results, please minimize distractions and stay focused. </li><br><br>Press SPACE to continue.</div>","32","","","","","","","","","","","","","","","","","","","",""
"html-keyboard-response","10","158000","0.0-2.0-2.0-0.0","q0w9p4xtd82kg96","practice_no_cue","5ee0f94d12ce930c1ab1d574","5f60e3c0a3b16e07647b2ff9","5f60eec8609af401bac75e0b","false","null","<span style=""color: black; font-size: 48px"">M + N</span>","null","","","","resp_prompt","","","","","","","","","","","","","","","",""
"categorize-image","11","160521","0.0-2.0-2.0-1.0","q0w9p4xtd82kg96","practice_no_cue","5ee0f94d12ce930c1ab1d574","5f60e3c0a3b16e07647b2ff9","5f60eec8609af401bac75e0b","true","null","./Stimuli/ImagesPractice/LM55.jpg","null","","","","test","false","M + N","83","","LM","LM55.jpg","remember","old","1","1","start","too_slow","","","",""
"html-keyboard-response","12","161237","0.0-2.0-2.0-0.1","q0w9p4xtd82kg96","practice_no_cue","5ee0f94d12ce930c1ab1d574","5f60e3c0a3b16e07647b2ff9","5f60eec8609af401bac75e0b","false","null","<span style=""color: black; font-size: 48px"">M + N</span>","null","","","","resp_prompt","","","","","","","","","","","","","","","",""
"categorize-image","13","162687","0.0-2.0-2.0-1.1","q0w9p4xtd82kg96","practice_no_cue","5ee0f94d12ce930c1ab1d574","5f60e3c0a3b16e07647b2ff9","5f60eec8609af401bac75e0b","true","944.7899999795482","./Stimuli/ImagesPractice/LM224.jpg","83","","","","test","true","M + N","83","","LM","LM224.jpg","remember","old","2","1","start","left","","","",""
"html-keyboard-response","14","163395","0.0-2.0-2.0-0.2","q0w9p4xtd82kg96","practice_no_cue","5ee0f94d12ce930c1ab1d574","5f60e3c0a3b16e07647b2ff9","5f60eec8609af401bac75e0b","false","null","<span style=""color: black; font-size: 48px"">N + M</span>","null","","","","resp_prompt","","","","","","","","","","","","","","","",""
"categorize-image","15","164571","0.0-2.0-2.0-1.2","q0w9p4xtd82kg96","practice_no_cue","5ee0f94d12ce930c1ab1d574","5f60e3c0a3b16e07647b2ff9","5f60eec8609af401bac75e0b","true","665.3949999599718","./Stimuli/ImagesPractice/SM37.jpg","83","","","","test","false","N + M","76","","SM","SM37.jpg","remember","old","3","1","start","left","","","",""
"html-keyboard-response","16","165287","0.0-2.0-2.0-0.3","q0w9p4xtd82kg96","practice_no_cue","5ee0f94d12ce930c1ab1d574","5f60e3c0a3b16e07647b2ff9","5f60eec8609af401bac75e0b","false","null","<span style=""color: black; font-size: 48px"">M + N</span>","null","","","","resp_prompt","","","","","","","","","","","","","","","",""
"categorize-image","17","166991","0.0-2.0-2.0-1.3","q0w9p4xtd82kg96","practice_no_cue","5ee0f94d12ce930c1ab1d574","5f60e3c0a3b16e07647b2ff9","5f60eec8609af401bac75e0b","true","1188.4449999779463","./Stimuli/ImagesPractice/LM143.jpg","83","","","","test","true","M + N","83","","LM","LM143.jpg","forget","old","4","1","start","left","","","",""
"html-keyboard-response","18","167706","0.0-2.0-2.0-0.4","q0w9p4xtd82kg96","practice_no_cue","5ee0f94d12ce930c1ab1d574","5f60e3c0a3b16e07647b2ff9","5f60eec8609af401bac75e0b","false","null","<span style=""color: black; font-size: 48px"">N + M</span>","null","","","","resp_prompt","","","","","","","","","","","","","","","",""
"categorize-image","19","169337","0.0-2.0-2.0-1.4","q0w9p4xtd82kg96","practice_no_cue","5ee0f94d12ce930c1ab1d574","5f60e3c0a3b16e07647b2ff9","5f60eec8609af401bac75e0b","true","1126.8900000141002","./Stimuli/ImagesPractice/SM97.jpg","83","","","","test","false","N + M","76","","SM","SM97.jpg","forget","old","5","1","start","left","","","",""
"html-keyboard-response","20","170042","0.0-2.0-2.0-0.5","q0w9p4xtd82kg96","practice_no_cue","5ee0f94d12ce930c1ab1d574","5f60e3c0a3b16e07647b2ff9","5f60eec8609af401bac75e0b","false","null","<span style=""color: black; font-size: 48px"">N + M</span>","null","","","","resp_prompt","","","","","","","","","","","","","","","",""
"categorize-image","21","171403","0.0-2.0-2.0-1.5","q0w9p4xtd82kg96","practice_no_cue","5ee0f94d12ce930c1ab1d574","5f60e3c0a3b16e07647b2ff9","5f60eec8609af401bac75e0b","true","852.5549999903888","./Stimuli/ImagesPractice/SN220.jpg","83","","","","test","true","N + M","83","","SN","SN220.jpg","remember","old","6","1","start","left","","","",""
"html-keyboard-response","22","172120","0.0-2.0-2.0-0.6","q0w9p4xtd82kg96","practice_no_cue","5ee0f94d12ce930c1ab1d574","5f60e3c0a3b16e07647b2ff9","5f60eec8609af401bac75e0b","false","null","<span style=""color: black; font-size: 48px"">N + M</span>","null","","","","resp_prompt","","","","","","","","","","","","","","","",""
"categorize-image","23","173199","0.0-2.0-2.0-1.6","q0w9p4xtd82kg96","practice_no_cue","5ee0f94d12ce930c1ab1d574","5f60e3c0a3b16e07647b2ff9","5f60eec8609af401bac75e0b","true","566.7350000003353","./Stimuli/ImagesPractice/SN76.jpg","83","","","","test","true","N + M","83","","SN","SN76.jpg","forget","old","7","1","start","left","","","",""
"html-keyboard-response","24","173907","0.0-2.0-2.0-0.7","q0w9p4xtd82kg96","practice_no_cue","5ee0f94d12ce930c1ab1d574","5f60e3c0a3b16e07647b2ff9","5f60eec8609af401bac75e0b","false","null","<span style=""color: black; font-size: 48px"">N + M</span>","null","","","","resp_prompt","","","","","","","","","","","","","","","",""
"categorize-image","25","174968","0.0-2.0-2.0-1.7","q0w9p4xtd82kg96","practice_no_cue","5ee0f94d12ce930c1ab1d574","5f60e3c0a3b16e07647b2ff9","5f60eec8609af401bac75e0b","true","545.4950000275858","./Stimuli/ImagesPractice/LM230.jpg","76","","","","test","true","N + M","76","","LM","LM230.jpg","remember","old","8","1","start","right","","","",""
"html-keyboard-response","26","175674","0.0-2.0-2.0-0.8","q0w9p4xtd82kg96","practice_no_cue","5ee0f94d12ce930c1ab1d574","5f60e3c0a3b16e07647b2ff9","5f60eec8609af401bac75e0b","false","null","<span style=""color: black; font-size: 48px"">M + N</span>","null","","","","resp_prompt","","","","","","","","","","","","","","","",""
"categorize-image","27","177093","0.0-2.0-2.0-1.8","q0w9p4xtd82kg96","practice_no_cue","5ee0f94d12ce930c1ab1d574","5f60e3c0a3b16e07647b2ff9","5f60eec8609af401bac75e0b","true","912.990000040736","./Stimuli/ImagesPractice/LN17.jpg","83","","","","test","false","M + N","76","","LN","LN17.jpg","forget","old","9","1","start","left","","","",""
"html-keyboard-response","28","177805","0.0-2.0-2.0-0.9","q0w9p4xtd82kg96","practice_no_cue","5ee0f94d12ce930c1ab1d574","5f60e3c0a3b16e07647b2ff9","5f60eec8609af401bac75e0b","false","null","<span style=""color: black; font-size: 48px"">N + M</span>","null","","","","resp_prompt","","","","","","","","","","","","","","","",""
"categorize-image","29","179126","0.0-2.0-2.0-1.9","q0w9p4xtd82kg96","practice_no_cue","5ee0f94d12ce930c1ab1d574","5f60e3c0a3b16e07647b2ff9","5f60eec8609af401bac75e0b","true","813.2349999505095","./Stimuli/ImagesPractice/SM35.jpg","76","","","","test","true","N + M","76","","SM","SM35.jpg","forget","old","10","1","start","right","","","",""
"html-keyboard-response","30","179838","0.0-2.0-2.0-0.10","q0w9p4xtd82kg96","practice_no_cue","5ee0f94d12ce930c1ab1d574","5f60e3c0a3b16e07647b2ff9","5f60eec8609af401bac75e0b","false","null","<span style=""color: black; font-size: 48px"">N + M</span>","null","","","","resp_prompt","","","","","","","","","","","","","","","",""
"categorize-image","31","181003","0.0-2.0-2.0-1.10","q0w9p4xtd82kg96","practice_no_cue","5ee0f94d12ce930c1ab1d574","5f60e3c0a3b16e07647b2ff9","5f60eec8609af401bac75e0b","true","655.4899999755435","./Stimuli/ImagesPractice/LN4.jpg","83","","","","test","true","N + M","83","","LN","LN4.jpg","forget","old","11","1","start","left","","","",""
"html-keyboard-response","32","181706","0.0-2.0-2.0-0.11","q0w9p4xtd82kg96","practice_no_cue","5ee0f94d12ce930c1ab1d574","5f60e3c0a3b16e07647b2ff9","5f60eec8609af401bac75e0b","false","null","<span style=""color: black; font-size: 48px"">M + N</span>","null","","","","resp_prompt","","","","","","","","","","","","","","","",""
"categorize-image","33","183191","0.0-2.0-2.0-1.11","q0w9p4xtd82kg96","practice_no_cue","5ee0f94d12ce930c1ab1d574","5f60e3c0a3b16e07647b2ff9","5f60eec8609af401bac75e0b","true","973.1599999940954","./Stimuli/ImagesPractice/SN205.jpg","76","","","","test","true","M + N","76","","SN","SN205.jpg","forget","old","12","1","start","right","","","",""
"html-keyboard-response","34","183904","0.0-2.0-2.0-0.12","q0w9p4xtd82kg96","practice_no_cue","5ee0f94d12ce930c1ab1d574","5f60e3c0a3b16e07647b2ff9","5f60eec8609af401bac75e0b","false","null","<span style=""color: black; font-size: 48px"">M + N</span>","null","","","","resp_prompt","","","","","","","","","","","","","","","",""
"categorize-image","35","185287","0.0-2.0-2.0-1.12","q0w9p4xtd82kg96","practice_no_cue","5ee0f94d12ce930c1ab1d574","5f60e3c0a3b16e07647b2ff9","5f60eec8609af401bac75e0b","true","869.4600000162609","./Stimuli/ImagesPractice/LN15.jpg","76","","","","test","true","M + N","76","","LN","LN15.jpg","forget","old","13","1","start","right","","","",""
"html-keyboard-response","36","185989","0.0-2.0-2.0-0.13","q0w9p4xtd82kg96","practice_no_cue","5ee0f94d12ce930c1ab1d574","5f60e3c0a3b16e07647b2ff9","5f60eec8609af401bac75e0b","false","null","<span style=""color: black; font-size: 48px"">N + M</span>","null","","","","resp_prompt","","","","","","","","","","","","","","","",""
"categorize-image","37","187461","0.0-2.0-2.0-1.13","q0w9p4xtd82kg96","practice_no_cue","5ee0f94d12ce930c1ab1d574","5f60e3c0a3b16e07647b2ff9","5f60eec8609af401bac75e0b","true","958.3249999559484","./Stimuli/ImagesPractice/SM98.jpg","76","","","","test","true","N + M","76","","SM","SM98.jpg","remember","old","14","1","start","right","","","",""
"html-keyboard-response","38","188171","0.0-2.0-2.0-0.14","q0w9p4xtd82kg96","practice_no_cue","5ee0f94d12ce930c1ab1d574","5f60e3c0a3b16e07647b2ff9","5f60eec8609af401bac75e0b","false","null","<span style=""color: black; font-size: 48px"">M + N</span>","null","","","","resp_prompt","","","","","","","","","","","","","","","",""
"categorize-image","39","189525","0.0-2.0-2.0-1.14","q0w9p4xtd82kg96","practice_no_cue","5ee0f94d12ce930c1ab1d574","5f60e3c0a3b16e07647b2ff9","5f60eec8609af401bac75e0b","true","846.6799999587238","./Stimuli/ImagesPractice/LN2.jpg","76","","","","test","true","M + N","76","","LN","LN2.jpg","remember","old","15","1","start","right","","","",""
"html-keyboard-response","40","190229","0.0-2.0-2.0-0.15","q0w9p4xtd82kg96","practice_no_cue","5ee0f94d12ce930c1ab1d574","5f60e3c0a3b16e07647b2ff9","5f60eec8609af401bac75e0b","false","null","<span style=""color: black; font-size: 48px"">M + N</span>","null","","","","resp_prompt","","","","","","","","","","","","","","","",""
"categorize-image","41","191717","0.0-2.0-2.0-1.15","q0w9p4xtd82kg96","practice_no_cue","5ee0f94d12ce930c1ab1d574","5f60e3c0a3b16e07647b2ff9","5f60eec8609af401bac75e0b","true","969.9000000255182","./Stimuli/ImagesPractice/LN72.jpg","76","","","","test","true","M + N","76","","LN","LN72.jpg","remember","old","16","1","start","right","","","",""
"html-keyboard-response","42","194995","0.0-2.0-3.0","q0w9p4xtd82kg96","break","5ee0f94d12ce930c1ab1d574","5f60e3c0a3b16e07647b2ff9","5f60eec8609af401bac75e0b","false","3273.6799999838695","<p style='font-size: 32px;'>Break</><br><br><br><br><br><p style='font-size: 24px;'>In the last block, you committed 3 errors and did not respond in time on 1 trials.
</p><p style='font-size: 24px;'>Try to respond as fast and accurately as possible in the next block as well! </p><p style='font-size: 24px;'>Press SPACE to continue.</p>","32","","","","","","","","","","","","","","","","","","","",""
"html-keyboard-response","43","197313","0.0-2.0-4.0","q0w9p4xtd82kg96","instructions","5ee0f94d12ce930c1ab1d574","5f60e3c0a3b16e07647b2ff9","5f60eec8609af401bac75e0b","false","2314.6149999811314","<div align=left> Great!<br><br>Are you ready to continue?<br><br>If you want to reread the instructions and redo the practice trials, <br>please press „Z“. <br><br>Press SPACE to CONTINUE with the experiment when you are ready. </div>","32","","","","","","","","","","","","","","","","","","","",""
"html-keyboard-response","44","200063","0.0-3.0-0.0","q0w9p4xtd82kg96","instructions","5ee0f94d12ce930c1ab1d574","5f60e3c0a3b16e07647b2ff9","5f60eec8609af401bac75e0b","false","2746.8799999915063","<div align=left>Great!<br> <strong>Attention</strong>! You will now receive a second, additional task! <br><br>To this point it was you <strong>first task</strong> to correctly <strong>classify objects</strong>. <br><br>As mentioned in the beginning, we aim to examine how well humans can remember previously learned information.<br>We would like to find out whether our memory improves if we only remember information that is relevant to us. <br><br>Therefore, your <strong>second task</strong> will be to <strong>remember</strong> the pictures you are to categorize. <br> After the learning phase, there will be a memory test phase, in which you will be asked to indicate whether you have seen a picture before or not. <br>Some, but not all pictures shown in the learning phase will appear in the memory test phase.<br>After classifying a picture, you will be told whether you should remember it for the memory test phase or not. <br>Thus, some pictures can be forgotten, whereas others have to be remembered. <br><br>Note: From now on, feedback will only be displayed if you responded incorrectly or not in time.<br><br>Press SPACE to continue.</div>","32","","","","","","","","","","","","","","","","","","","",""
"html-keyboard-response","45","205541","0.0-3.0-1.0","q0w9p4xtd82kg96","instructions","5ee0f94d12ce930c1ab1d574","5f60e3c0a3b16e07647b2ff9","5f60eec8609af401bac75e0b","false","5475.999999966007","<div align=left>In the following part, you will thus have to remember only some pictures. <br>Immediately after seeing and classifying the picture, a symbol will be displayed, indicating whether you should remember or forget the previous picture. <br><br>A <span style='color: dodgerblue; font-size: 28px'>O</span> indicates REMEMBER. That means, you have to remember this picture, because it will be tested later. <br><br>A <span style='color: darkorange; font-size:28px'>Ø</span> indicates FORGET. You do not have to remember this picture. <br><br> As you will have to remember a lot of pictures, it will be hard for you to remember all of them. <br>It will put you at an advantage if you instantly forget the pictures you are not asked to remember. <br> This will make it easier for you to remember the pictures that will be tested afterwards. <br><br>Press SPACE to continue.</div>","32","","","","","","","","","","","","","","","","","","","",""
"html-keyboard-response","46","207274","0.0-3.0-2.0","q0w9p4xtd82kg96","instructions","5ee0f94d12ce930c1ab1d574","5f60e3c0a3b16e07647b2ff9","5f60eec8609af401bac75e0b","false","1730.6300000054762","<div align=left> Now you have the chance to practice both tasks together.<br><br>Remember: <br> <br><li>Please place your index fingers on the <strong>'S'</strong> and <strong>'L'</strong> keys <br>to respond as fast and accurately as possible.</li><li>Every picture can be classified as either mechanical or non-mechanical.</li><li>If you do not respond in time or commit an error, you will receive a corresponding feedback. <br>Please try to respond as <strong> fast </strong> and as <strong> accurately as possible </strong>.</li><li> Please remember only the to-be-remembered <span style='color: dodgerblue; font-size: 28px'>O</span> pictures. <br></li><li> Please minimize distractions and stay focused. </li><br><br>Press SPACE to START</div>","32","","","","","","","","","","","","","","","","","","","",""
"html-keyboard-response","47","207987","0.0-3.0-3.0-0.0","q0w9p4xtd82kg96","practice_cue","5ee0f94d12ce930c1ab1d574","5f60e3c0a3b16e07647b2ff9","5f60eec8609af401bac75e0b","false","null","<span style=""color: black; font-size: 48px"">N + M</span>","null","","","","resp_prompt","","","","","","","","","","","","","","","",""
"categorize-image","48","208872","0.0-3.0-3.0-1.0","q0w9p4xtd82kg96","practice_cue","5ee0f94d12ce930c1ab1d574","5f60e3c0a3b16e07647b2ff9","5f60eec8609af401bac75e0b","true","877.89000000339","./Stimuli/ImagesPractice/SM37.jpg","83","","","","test","false","N + M","76","","SM","SM37.jpg","remember","old","17","2","practice_forget","left","","","",""
"html-keyboard-response","49","209382","0.0-3.0-3.0-2.0-0.0","q0w9p4xtd82kg96","practice_cue","5ee0f94d12ce930c1ab1d574","5f60e3c0a3b16e07647b2ff9","5f60eec8609af401bac75e0b","false","null","<span style=""color: red; font-size: 48px"">Error!</span>","null","","","","feedback","","","","","","","","","","","","","","","",""
"html-keyboard-response","50","211384","0.0-3.0-3.0-3.0","q0w9p4xtd82kg96","practice_cue","5ee0f94d12ce930c1ab1d574","5f60e3c0a3b16e07647b2ff9","5f60eec8609af401bac75e0b","false","null","<div style=""align-items: center; display: flex; color: dodgerblue; font-size: 90px""><b>o</b></div>","null","","","","forget_cue","","","","","","","","","","","","","","","",""
"html-keyboard-response","51","212088","0.0-3.0-3.0-0.1","q0w9p4xtd82kg96","practice_cue","5ee0f94d12ce930c1ab1d574","5f60e3c0a3b16e07647b2ff9","5f60eec8609af401bac75e0b","false","null","<span style=""color: black; font-size: 48px"">N + M</span>","null","","","","resp_prompt","","","","","","","","","","","","","","","",""
"categorize-image","52","212879","0.0-3.0-3.0-1.1","q0w9p4xtd82kg96","practice_cue","5ee0f94d12ce930c1ab1d574","5f60e3c0a3b16e07647b2ff9","5f60eec8609af401bac75e0b","true","783.7150000268593","./Stimuli/ImagesPractice/SN76.jpg","83","","","","test","true","N + M","83","","SN","SN76.jpg","forget","old","18","2","practice_forget","left","","","",""
"html-keyboard-response","53","214888","0.0-3.0-3.0-3.1","q0w9p4xtd82kg96","practice_cue","5ee0f94d12ce930c1ab1d574","5f60e3c0a3b16e07647b2ff9","5f60eec8609af401bac75e0b","false","null","<div style=""align-items: center; display: flex; color: darkorange; font-size: 90px""><b>ø</b></div>","null","","","","forget_cue","","","","","","","","","","","","","","","",""
"html-keyboard-response","54","215591","0.0-3.0-3.0-0.2","q0w9p4xtd82kg96","practice_cue","5ee0f94d12ce930c1ab1d574","5f60e3c0a3b16e07647b2ff9","5f60eec8609af401bac75e0b","false","null","<span style=""color: black; font-size: 48px"">N + M</span>","null","","","","resp_prompt","","","","","","","","","","","","","","","",""
"categorize-image","55","216112","0.0-3.0-3.0-1.2","q0w9p4xtd82kg96","practice_cue","5ee0f94d12ce930c1ab1d574","5f60e3c0a3b16e07647b2ff9","5f60eec8609af401bac75e0b","true","513.1199999595992","./Stimuli/ImagesPractice/SM98.jpg","76","","","","test","true","N + M","76","","SM","SM98.jpg","remember","old","19","2","practice_forget","right","","","",""
"html-keyboard-response","56","218124","0.0-3.0-3.0-3.2","q0w9p4xtd82kg96","practice_cue","5ee0f94d12ce930c1ab1d574","5f60e3c0a3b16e07647b2ff9","5f60eec8609af401bac75e0b","false","null","<div style=""align-items: center; display: flex; color: dodgerblue; font-size: 90px""><b>o</b></div>","null","","","","forget_cue","","","","","","","","","","","","","","","",""
"html-keyboard-response","57","218829","0.0-3.0-3.0-0.3","q0w9p4xtd82kg96","practice_cue","5ee0f94d12ce930c1ab1d574","5f60e3c0a3b16e07647b2ff9","5f60eec8609af401bac75e0b","false","null","<span style=""color: black; font-size: 48px"">M + N</span>","null","","","","resp_prompt","","","","","","","","","","","","","","","",""
"categorize-image","58","219789","0.0-3.0-3.0-1.3","q0w9p4xtd82kg96","practice_cue","5ee0f94d12ce930c1ab1d574","5f60e3c0a3b16e07647b2ff9","5f60eec8609af401bac75e0b","true","953.9199999999255","./Stimuli/ImagesPractice/LN72.jpg","76","","","","test","true","M + N","76","","LN","LN72.jpg","remember","old","20","2","practice_forget","right","","","",""
"html-keyboard-response","59","221800","0.0-3.0-3.0-3.3","q0w9p4xtd82kg96","practice_cue","5ee0f94d12ce930c1ab1d574","5f60e3c0a3b16e07647b2ff9","5f60eec8609af401bac75e0b","false","null","<div style=""align-items: center; display: flex; color: dodgerblue; font-size: 90px""><b>o</b></div>","null","","","","forget_cue","","","","","","","","","","","","","","","",""
"html-keyboard-response","60","222502","0.0-3.0-3.0-0.4","q0w9p4xtd82kg96","practice_cue","5ee0f94d12ce930c1ab1d574","5f60e3c0a3b16e07647b2ff9","5f60eec8609af401bac75e0b","false","null","<span style=""color: black; font-size: 48px"">N + M</span>","null","","","","resp_prompt","","","","","","","","","","","","","","","",""
"categorize-image","61","223400","0.0-3.0-3.0-1.4","q0w9p4xtd82kg96","practice_cue","5ee0f94d12ce930c1ab1d574","5f60e3c0a3b16e07647b2ff9","5f60eec8609af401bac75e0b","true","892.4250000272878","./Stimuli/ImagesPractice/SN220.jpg","83","","","","test","true","N + M","83","","SN","SN220.jpg","remember","old","21","2","practice_forget","left","","","",""
"html-keyboard-response","62","225412","0.0-3.0-3.0-3.4","q0w9p4xtd82kg96","practice_cue","5ee0f94d12ce930c1ab1d574","5f60e3c0a3b16e07647b2ff9","5f60eec8609af401bac75e0b","false","null","<div style=""align-items: center; display: flex; color: dodgerblue; font-size: 90px""><b>o</b></div>","null","","","","forget_cue","","","","","","","","","","","","","","","",""
"html-keyboard-response","63","226115","0.0-3.0-3.0-0.5","q0w9p4xtd82kg96","practice_cue","5ee0f94d12ce930c1ab1d574","5f60e3c0a3b16e07647b2ff9","5f60eec8609af401bac75e0b","false","null","<span style=""color: black; font-size: 48px"">N + M</span>","null","","","","resp_prompt","","","","","","","","","","","","","","","",""
"categorize-image","64","226704","0.0-3.0-3.0-1.5","q0w9p4xtd82kg96","practice_cue","5ee0f94d12ce930c1ab1d574","5f60e3c0a3b16e07647b2ff9","5f60eec8609af401bac75e0b","true","582.5999999651685","./Stimuli/ImagesPractice/LM230.jpg","76","","","","test","true","N + M","76","","LM","LM230.jpg","remember","old","22","2","practice_forget","right","","","",""
"html-keyboard-response","65","228709","0.0-3.0-3.0-3.5","q0w9p4xtd82kg96","practice_cue","5ee0f94d12ce930c1ab1d574","5f60e3c0a3b16e07647b2ff9","5f60eec8609af401bac75e0b","false","null","<div style=""align-items: center; display: flex; color: dodgerblue; font-size: 90px""><b>o</b></div>","null","","","","forget_cue","","","","","","","","","","","","","","","",""
"html-keyboard-response","66","229416","0.0-3.0-3.0-0.6","q0w9p4xtd82kg96","practice_cue","5ee0f94d12ce930c1ab1d574","5f60e3c0a3b16e07647b2ff9","5f60eec8609af401bac75e0b","false","null","<span style=""color: black; font-size: 48px"">M + N</span>","null","","","","resp_prompt","","","","","","","","","","","","","","","",""
"categorize-image","67","230373","0.0-3.0-3.0-1.6","q0w9p4xtd82kg96","practice_cue","5ee0f94d12ce930c1ab1d574","5f60e3c0a3b16e07647b2ff9","5f60eec8609af401bac75e0b","true","950.429999968037","./Stimuli/ImagesPractice/LN15.jpg","76","","","","test","true","M + N","76","","LN","LN15.jpg","forget","old","23","2","practice_forget","right","","","",""
"html-keyboard-response","68","232385","0.0-3.0-3.0-3.6","q0w9p4xtd82kg96","practice_cue","5ee0f94d12ce930c1ab1d574","5f60e3c0a3b16e07647b2ff9","5f60eec8609af401bac75e0b","false","null","<div style=""align-items: center; display: flex; color: darkorange; font-size: 90px""><b>ø</b></div>","null","","","","forget_cue","","","","","","","","","","","","","","","",""
"html-keyboard-response","69","233090","0.0-3.0-3.0-0.7","q0w9p4xtd82kg96","practice_cue","5ee0f94d12ce930c1ab1d574","5f60e3c0a3b16e07647b2ff9","5f60eec8609af401bac75e0b","false","null","<span style=""color: black; font-size: 48px"">M + N</span>","null","","","","resp_prompt","","","","","","","","","","","","","","","",""
"categorize-image","70","233729","0.0-3.0-3.0-1.7","q0w9p4xtd82kg96","practice_cue","5ee0f94d12ce930c1ab1d574","5f60e3c0a3b16e07647b2ff9","5f60eec8609af401bac75e0b","true","632.5799999758601","./Stimuli/ImagesPractice/LM55.jpg","83","","","","test","true","M + N","83","","LM","LM55.jpg","remember","old","24","2","practice_forget","left","","","",""
"html-keyboard-response","71","235747","0.0-3.0-3.0-3.7","q0w9p4xtd82kg96","practice_cue","5ee0f94d12ce930c1ab1d574","5f60e3c0a3b16e07647b2ff9","5f60eec8609af401bac75e0b","false","null","<div style=""align-items: center; display: flex; color: dodgerblue; font-size: 90px""><b>o</b></div>","null","","","","forget_cue","","","","","","","","","","","","","","","",""
"html-keyboard-response","72","236451","0.0-3.0-3.0-0.8","q0w9p4xtd82kg96","practice_cue","5ee0f94d12ce930c1ab1d574","5f60e3c0a3b16e07647b2ff9","5f60eec8609af401bac75e0b","false","null","<span style=""color: black; font-size: 48px"">M + N</span>","null","","","","resp_prompt","","","","","","","","","","","","","","","",""
"categorize-image","73","237018","0.0-3.0-3.0-1.8","q0w9p4xtd82kg96","practice_cue","5ee0f94d12ce930c1ab1d574","5f60e3c0a3b16e07647b2ff9","5f60eec8609af401bac75e0b","true","560.4849999654107","./Stimuli/ImagesPractice/LN17.jpg","76","","","","test","true","M + N","76","","LN","LN17.jpg","forget","old","25","2","practice_forget","right","","","",""
"html-keyboard-response","74","239032","0.0-3.0-3.0-3.8","q0w9p4xtd82kg96","practice_cue","5ee0f94d12ce930c1ab1d574","5f60e3c0a3b16e07647b2ff9","5f60eec8609af401bac75e0b","false","null","<div style=""align-items: center; display: flex; color: darkorange; font-size: 90px""><b>ø</b></div>","null","","","","forget_cue","","","","","","","","","","","","","","","",""
"html-keyboard-response","75","239747","0.0-3.0-3.0-0.9","q0w9p4xtd82kg96","practice_cue","5ee0f94d12ce930c1ab1d574","5f60e3c0a3b16e07647b2ff9","5f60eec8609af401bac75e0b","false","null","<span style=""color: black; font-size: 48px"">N + M</span>","null","","","","resp_prompt","","","","","","","","","","","","","","","",""
"categorize-image","76","240248","0.0-3.0-3.0-1.9","q0w9p4xtd82kg96","practice_cue","5ee0f94d12ce930c1ab1d574","5f60e3c0a3b16e07647b2ff9","5f60eec8609af401bac75e0b","true","494.8099999455735","./Stimuli/ImagesPractice/SM97.jpg","76","","","","test","true","N + M","76","","SM","SM97.jpg","forget","old","26","2","practice_forget","right","","","",""
"html-keyboard-response","77","242253","0.0-3.0-3.0-3.9","q0w9p4xtd82kg96","practice_cue","5ee0f94d12ce930c1ab1d574","5f60e3c0a3b16e07647b2ff9","5f60eec8609af401bac75e0b","false","null","<div style=""align-items: center; display: flex; color: darkorange; font-size: 90px""><b>ø</b></div>","null","","","","forget_cue","","","","","","","","","","","","","","","",""
"html-keyboard-response","78","242974","0.0-3.0-3.0-0.10","q0w9p4xtd82kg96","practice_cue","5ee0f94d12ce930c1ab1d574","5f60e3c0a3b16e07647b2ff9","5f60eec8609af401bac75e0b","false","null","<span style=""color: black; font-size: 48px"">N + M</span>","null","","","","resp_prompt","","","","","","","","","","","","","","","",""
"categorize-image","79","243555","0.0-3.0-3.0-1.10","q0w9p4xtd82kg96","practice_cue","5ee0f94d12ce930c1ab1d574","5f60e3c0a3b16e07647b2ff9","5f60eec8609af401bac75e0b","true","575.3600000170991","./Stimuli/ImagesPractice/LN4.jpg","83","","","","test","true","N + M","83","","LN","LN4.jpg","forget","old","27","2","practice_forget","left","","","",""
"html-keyboard-response","80","245569","0.0-3.0-3.0-3.10","q0w9p4xtd82kg96","practice_cue","5ee0f94d12ce930c1ab1d574","5f60e3c0a3b16e07647b2ff9","5f60eec8609af401bac75e0b","false","null","<div style=""align-items: center; display: flex; color: darkorange; font-size: 90px""><b>ø</b></div>","null","","","","forget_cue","","","","","","","","","","","","","","","",""
"html-keyboard-response","81","246272","0.0-3.0-3.0-0.11","q0w9p4xtd82kg96","practice_cue","5ee0f94d12ce930c1ab1d574","5f60e3c0a3b16e07647b2ff9","5f60eec8609af401bac75e0b","false","null","<span style=""color: black; font-size: 48px"">M + N</span>","null","","","","resp_prompt","","","","","","","","","","","","","","","",""
"categorize-image","82","247066","0.0-3.0-3.0-1.11","q0w9p4xtd82kg96","practice_cue","5ee0f94d12ce930c1ab1d574","5f60e3c0a3b16e07647b2ff9","5f60eec8609af401bac75e0b","true","788.4399999747984","./Stimuli/ImagesPractice/LM224.jpg","83","","","","test","true","M + N","83","","LM","LM224.jpg","remember","old","28","2","practice_forget","left","","","",""
"html-keyboard-response","83","249072","0.0-3.0-3.0-3.11","q0w9p4xtd82kg96","practice_cue","5ee0f94d12ce930c1ab1d574","5f60e3c0a3b16e07647b2ff9","5f60eec8609af401bac75e0b","false","null","<div style=""align-items: center; display: flex; color: dodgerblue; font-size: 90px""><b>o</b></div>","null","","","","forget_cue","","","","","","","","","","","","","","","",""
"html-keyboard-response","84","249782","0.0-3.0-3.0-0.12","q0w9p4xtd82kg96","practice_cue","5ee0f94d12ce930c1ab1d574","5f60e3c0a3b16e07647b2ff9","5f60eec8609af401bac75e0b","false","null","<span style=""color: black; font-size: 48px"">M + N</span>","null","","","","resp_prompt","","","","","","","","","","","","","","","",""
"categorize-image","85","250379","0.0-3.0-3.0-1.12","q0w9p4xtd82kg96","practice_cue","5ee0f94d12ce930c1ab1d574","5f60e3c0a3b16e07647b2ff9","5f60eec8609af401bac75e0b","true","590.41000000434","./Stimuli/ImagesPractice/LN2.jpg","76","","","","test","true","M + N","76","","LN","LN2.jpg","remember","old","29","2","practice_forget","right","","","",""
"html-keyboard-response","86","252386","0.0-3.0-3.0-3.12","q0w9p4xtd82kg96","practice_cue","5ee0f94d12ce930c1ab1d574","5f60e3c0a3b16e07647b2ff9","5f60eec8609af401bac75e0b","false","null","<div style=""align-items: center; display: flex; color: dodgerblue; font-size: 90px""><b>o</b></div>","null","","","","forget_cue","","","","","","","","","","","","","","","",""
"html-keyboard-response","87","253091","0.0-3.0-3.0-0.13","q0w9p4xtd82kg96","practice_cue","5ee0f94d12ce930c1ab1d574","5f60e3c0a3b16e07647b2ff9","5f60eec8609af401bac75e0b","false","null","<span style=""color: black; font-size: 48px"">M + N</span>","null","","","","resp_prompt","","","","","","","","","","","","","","","",""
"categorize-image","88","253657","0.0-3.0-3.0-1.13","q0w9p4xtd82kg96","practice_cue","5ee0f94d12ce930c1ab1d574","5f60e3c0a3b16e07647b2ff9","5f60eec8609af401bac75e0b","true","559.4399999827147","./Stimuli/ImagesPractice/SN205.jpg","76","","","","test","true","M + N","76","","SN","SN205.jpg","forget","old","30","2","practice_forget","right","","","",""
"html-keyboard-response","89","255671","0.0-3.0-3.0-3.13","q0w9p4xtd82kg96","practice_cue","5ee0f94d12ce930c1ab1d574","5f60e3c0a3b16e07647b2ff9","5f60eec8609af401bac75e0b","false","null","<div style=""align-items: center; display: flex; color: darkorange; font-size: 90px""><b>ø</b></div>","null","","","","forget_cue","","","","","","","","","","","","","","","",""
"html-keyboard-response","90","256374","0.0-3.0-3.0-0.14","q0w9p4xtd82kg96","practice_cue","5ee0f94d12ce930c1ab1d574","5f60e3c0a3b16e07647b2ff9","5f60eec8609af401bac75e0b","false","null","<span style=""color: black; font-size: 48px"">N + M</span>","null","","","","resp_prompt","","","","","","","","","","","","","","","",""
"categorize-image","91","257191","0.0-3.0-3.0-1.14","q0w9p4xtd82kg96","practice_cue","5ee0f94d12ce930c1ab1d574","5f60e3c0a3b16e07647b2ff9","5f60eec8609af401bac75e0b","true","810.4399999720044","./Stimuli/ImagesPractice/SM35.jpg","76","","","","test","true","N + M","76","","SM","SM35.jpg","forget","old","31","2","practice_forget","right","","","",""
"html-keyboard-response","92","259204","0.0-3.0-3.0-3.14","q0w9p4xtd82kg96","practice_cue","5ee0f94d12ce930c1ab1d574","5f60e3c0a3b16e07647b2ff9","5f60eec8609af401bac75e0b","false","null","<div style=""align-items: center; display: flex; color: darkorange; font-size: 90px""><b>ø</b></div>","null","","","","forget_cue","","","","","","","","","","","","","","","",""
"html-keyboard-response","93","259912","0.0-3.0-3.0-0.15","q0w9p4xtd82kg96","practice_cue","5ee0f94d12ce930c1ab1d574","5f60e3c0a3b16e07647b2ff9","5f60eec8609af401bac75e0b","false","null","<span style=""color: black; font-size: 48px"">M + N</span>","null","","","","resp_prompt","","","","","","","","","","","","","","","",""
"categorize-image","94","260539","0.0-3.0-3.0-1.15","q0w9p4xtd82kg96","practice_cue","5ee0f94d12ce930c1ab1d574","5f60e3c0a3b16e07647b2ff9","5f60eec8609af401bac75e0b","true","619.8500000173226","./Stimuli/ImagesPractice/LM143.jpg","76","","","","test","false","M + N","83","","LM","LM143.jpg","forget","old","32","2","practice_forget","right","","","",""
"html-keyboard-response","95","261044","0.0-3.0-3.0-2.15-0.15","q0w9p4xtd82kg96","practice_cue","5ee0f94d12ce930c1ab1d574","5f60e3c0a3b16e07647b2ff9","5f60eec8609af401bac75e0b","false","null","<span style=""color: red; font-size: 48px"">Error!</span>","null","","","","feedback","","","","","","","","","","","","","","","",""
"html-keyboard-response","96","263051","0.0-3.0-3.0-3.15","q0w9p4xtd82kg96","practice_cue","5ee0f94d12ce930c1ab1d574","5f60e3c0a3b16e07647b2ff9","5f60eec8609af401bac75e0b","false","null","<div style=""align-items: center; display: flex; color: darkorange; font-size: 90px""><b>ø</b></div>","null","","","","forget_cue","","","","","","","","","","","","","","","",""
"html-keyboard-response","97","277921","0.0-3.0-4.0","q0w9p4xtd82kg96","break","5ee0f94d12ce930c1ab1d574","5f60e3c0a3b16e07647b2ff9","5f60eec8609af401bac75e0b","false","14868.155000032857","<p style='font-size: 32px;'>Break</><br><br><br><br><br><p style='font-size: 24px;'>In the last block, you committed 2 errors and did not respond in time on 0 trials.
</p><p style='font-size: 24px;'>Try to respond as fast and accurately as possible in the next block as well! </p><p style='font-size: 24px;'>Press SPACE to continue.</p>","32","","","","","","","","","","","","","","","","","","","",""
"html-keyboard-response","98","340625","0.0-3.0-5.0","q0w9p4xtd82kg96","instructions","5ee0f94d12ce930c1ab1d574","5f60e3c0a3b16e07647b2ff9","5f60eec8609af401bac75e0b","false","62706.79999998538","<div align=left> Now, to practice, we kindly ask you to remember as many of the to-be-remembered pictures<br>of the previous learning phase as possible.<br><br>The pictures you were instructed to remember were the pictures followed by a <span style='color: dodgerblue; font-size: 28px'>O</span>.<br><br>In this memory test phase, you will also see some new pictures.<br>It is your task to remember whether you were presented with this specific picture in this study so far or not.<br>If you recognize an object (you have already seen it in this study), it is an OLD object. <br>If you do not recognize an object (you have NOT seen it in this study), it is a NEW object. <br><strong> Attention</strong>: As already mentioned, <span style='color: darkorange; font-size:28px'>Ø</span>-pictures will <strong>never</strong> appear in this memory test (neither as new objects). <br><br>Press SPACE to continue. </div>","32","","","","","","","","","","","","","","","","","","","",""
"html-keyboard-response","99","347707","0.0-3.0-6.0","q0w9p4xtd82kg96","instructions","5ee0f94d12ce930c1ab1d574","5f60e3c0a3b16e07647b2ff9","5f60eec8609af401bac75e0b","false","7078.534999978729","<div align=left> M and N no longer will appear on the left/right of the fixation cross. <br>Instead there will be a note at the bottom of the left or right side  <br>indicating which key you should press for an old or new object:  <br> <br>Press the <strong>right</strong> key to classify an object as <strong>old</strong> and press the <strong>left</strong>, to classify an object as <strong>new</strong>.<br>Please classify the objects as new/old by again placing your index finger on the 'S' and 'L' keys <br>and press them accordingly.<br><br><strong>Old:</strong> This object has been presented before. <br><strong>New:</strong> This object has <strong>not</strong> been presented.<br><br>Now please put your right and left index fingers on the 'S' and 'L' keys of your keyboard. <br>Please respond as fast and as accurately as possible!<br><br>Press SPACE to continue. </div>","32","","","","","","","","","","","","","","","","","","","",""
"categorize-image","100","349922","0.0-3.0-7.0-0.0","q0w9p4xtd82kg96","practice_recog","5ee0f94d12ce930c1ab1d574","5f60e3c0a3b16e07647b2ff9","5f60eec8609af401bac75e0b","true","1694.5950000081211","./Stimuli/ImagesPractice/LN72.jpg","76","","","","test","false","","83","","LN","LN72.jpg","","old","33","3","practice_recog","right","","","",""
"categorize-image","101","351422","0.0-3.0-7.0-0.1","q0w9p4xtd82kg96","practice_recog","5ee0f94d12ce930c1ab1d574","5f60e3c0a3b16e07647b2ff9","5f60eec8609af401bac75e0b","true","989.3499999889173","./Stimuli/ImagesPractice/LM224.jpg","83","","","","test","true","","83","","LM","LM224.jpg","","old","34","3","practice_recog","left","","","",""
"categorize-image","102","352534","0.0-3.0-7.0-0.2","q0w9p4xtd82kg96","practice_recog","5ee0f94d12ce930c1ab1d574","5f60e3c0a3b16e07647b2ff9","5f60eec8609af401bac75e0b","true","606.6500000306405","./Stimuli/ImagesPractice/SM98.jpg","83","","","","test","true","","83","","SM","SM98.jpg","","old","35","3","practice_recog","left","","","",""
"categorize-image","103","353753","0.0-3.0-7.0-0.3","q0w9p4xtd82kg96","practice_recog","5ee0f94d12ce930c1ab1d574","5f60e3c0a3b16e07647b2ff9","5f60eec8609af401bac75e0b","true","702.4600000004284","./Stimuli/ImagesPractice/LM239.jpg","76","","","","test","true","","76","","LM","LM239.jpg","","new","36","3","practice_recog","right","","","",""
"categorize-image","104","355188","0.0-3.0-7.0-0.4","q0w9p4xtd82kg96","practice_recog","5ee0f94d12ce930c1ab1d574","5f60e3c0a3b16e07647b2ff9","5f60eec8609af401bac75e0b","true","922.5999999907799","./Stimuli/ImagesPractice/SM62.jpg","76","","","","test","true","","76","","SM","SM62.jpg","","new","37","3","practice_recog","right","","","",""
"categorize-image","105","356677","0.0-3.0-7.0-0.5","q0w9p4xtd82kg96","practice_recog","5ee0f94d12ce930c1ab1d574","5f60e3c0a3b16e07647b2ff9","5f60eec8609af401bac75e0b","true","970.1999999815598","./Stimuli/ImagesPractice/LN2.jpg","83","","","","test","true","","83","","LN","LN2.jpg","","old","38","3","practice_recog","left","","","",""
"categorize-image","106","357865","0.0-3.0-7.0-0.6","q0w9p4xtd82kg96","practice_recog","5ee0f94d12ce930c1ab1d574","5f60e3c0a3b16e07647b2ff9","5f60eec8609af401bac75e0b","true","681.5499999793246","./Stimuli/ImagesPractice/SN221.jpg","76","","","","test","true","","76","","SN","SN221.jpg","","new","39","3","practice_recog","right","","","",""
"categorize-image","107","359087","0.0-3.0-7.0-0.7","q0w9p4xtd82kg96","practice_recog","5ee0f94d12ce930c1ab1d574","5f60e3c0a3b16e07647b2ff9","5f60eec8609af401bac75e0b","true","712.4400000320747","./Stimuli/ImagesPractice/SN220.jpg","83","","","","test","true","","83","","SN","SN220.jpg","","old","40","3","practice_recog","left","","","",""
"categorize-image","108","360634","0.0-3.0-7.0-0.8","q0w9p4xtd82kg96","practice_recog","5ee0f94d12ce930c1ab1d574","5f60e3c0a3b16e07647b2ff9","5f60eec8609af401bac75e0b","true","1015.5050000175834","./Stimuli/ImagesPractice/LM55.jpg","83","","","","test","true","","83","","LM","LM55.jpg","","old","41","3","practice_recog","left","","","",""
"categorize-image","109","361744","0.0-3.0-7.0-0.9","q0w9p4xtd82kg96","practice_recog","5ee0f94d12ce930c1ab1d574","5f60e3c0a3b16e07647b2ff9","5f60eec8609af401bac75e0b","true","595.8600000012666","./Stimuli/ImagesPractice/SM37.jpg","83","","","","test","true","","83","","SM","SM37.jpg","","old","42","3","practice_recog","left","","","",""
"categorize-image","110","362948","0.0-3.0-7.0-0.10","q0w9p4xtd82kg96","practice_recog","5ee0f94d12ce930c1ab1d574","5f60e3c0a3b16e07647b2ff9","5f60eec8609af401bac75e0b","true","685.0149999954738","./Stimuli/ImagesPractice/LN109.jpg","76","","","","test","true","","76","","LN","LN109.jpg","","new","43","3","practice_recog","right","","","",""
"categorize-image","111","364778","0.0-3.0-7.0-0.11","q0w9p4xtd82kg96","practice_recog","5ee0f94d12ce930c1ab1d574","5f60e3c0a3b16e07647b2ff9","5f60eec8609af401bac75e0b","true","1316.6499999933876","./Stimuli/ImagesPractice/LM230.jpg","83","","","","test","true","","83","","LM","LM230.jpg","","old","44","3","practice_recog","left","","","",""
"categorize-image","112","366091","0.0-3.0-7.0-0.12","q0w9p4xtd82kg96","practice_recog","5ee0f94d12ce930c1ab1d574","5f60e3c0a3b16e07647b2ff9","5f60eec8609af401bac75e0b","true","799.349999986589","./Stimuli/ImagesPractice/LM147.jpg","76","","","","test","true","","76","","LM","LM147.jpg","","new","45","3","practice_recog","right","","","",""
"categorize-image","113","367405","0.0-3.0-7.0-0.13","q0w9p4xtd82kg96","practice_recog","5ee0f94d12ce930c1ab1d574","5f60e3c0a3b16e07647b2ff9","5f60eec8609af401bac75e0b","true","803.9800000260584","./Stimuli/ImagesPractice/SM61.jpg","76","","","","test","true","","76","","SM","SM61.jpg","","new","46","3","practice_recog","right","","","",""
"categorize-image","114","368722","0.0-3.0-7.0-0.14","q0w9p4xtd82kg96","practice_recog","5ee0f94d12ce930c1ab1d574","5f60e3c0a3b16e07647b2ff9","5f60eec8609af401bac75e0b","true","806.6899999976158","./Stimuli/ImagesPractice/SN222.jpg","76","","","","test","true","","76","","SN","SN222.jpg","","new","47","3","practice_recog","right","","","",""
"categorize-image","115","369798","0.0-3.0-7.0-0.15","q0w9p4xtd82kg96","practice_recog","5ee0f94d12ce930c1ab1d574","5f60e3c0a3b16e07647b2ff9","5f60eec8609af401bac75e0b","true","568.9249999704771","./Stimuli/ImagesPractice/SN75.jpg","76","","","","test","true","","76","","SN","SN75.jpg","","new","48","3","practice_recog","right","","","",""
"html-keyboard-response","116","373071","0.0-3.0-8.0","q0w9p4xtd82kg96","instructions","5ee0f94d12ce930c1ab1d574","5f60e3c0a3b16e07647b2ff9","5f60eec8609af401bac75e0b","false","3271.550000004936","<div align=left> Great!<br><br>Are you ready to continue?<br>If you want to reread the instructions and redo the practice trials, please <br>press „Z“.<br><br>You can proceed when you are ready.<br><br>After the presentation of each object, you will receive an instruction whether to <br>remember or to forget the object.<br>We will test your memory of the following pictures only at the very end of <br>the experiment after all learning blocks are completed. <br><br>Press SPACE to CONTINUE when you are ready. </div>","32","","","","","","","","","","","","","","","","","","","",""
"html-keyboard-response","117","373685","0.0-4.0-0.0","q0w9p4xtd82kg96","instructions","5ee0f94d12ce930c1ab1d574","5f60e3c0a3b16e07647b2ff9","5f60eec8609af401bac75e0b","false","610.5700000189245","<div align=left> The actual experiment is about to start.<br>The practice trials are over!<br><br>Please always respond both fast and accurately!<br><br>Remember: <br> <br><li> Please place your index fingers on the <strong>'S'</strong> and <strong>'L'</strong> keys <br>to respond as fast and accurately as possible.</li><li> Every picture can be classified as either mechanical or non-mechanical.</li><li> If you do not respond in time or commit an error, you will receive a corresponding feedback.<br> Please try to respond as <strong> fast </strong> and as <strong> accurately as possible </strong>.</li><li> Remember the <span style='color: dodgerblue; font-size: 28px'>O</span> pictures. <br></li><li> Please minimize distractions and stay focused. </li><br><br>Press SPACE to START.</div>","32","","","","","","","","","","","","","","","","","","","",""
"html-keyboard-response","118","374393","0.0-4.0-1.0-0.0","q0w9p4xtd82kg96","prime","5ee0f94d12ce930c1ab1d574","5f60e3c0a3b16e07647b2ff9","5f60eec8609af401bac75e0b","false","null","<span style=""color: black; font-size: 48px"">M + N</span>","null","","","","resp_prompt","","","","","","","","","","","","","","","",""
"categorize-image","119","375764","0.0-4.0-1.0-1.0","q0w9p4xtd82kg96","prime","5ee0f94d12ce930c1ab1d574","5f60e3c0a3b16e07647b2ff9","5f60eec8609af401bac75e0b","true","1363.7849999940954","./Stimuli/SelectedImages/LN/LN149.bmp","76","","","","test","true","M + N","76","switch","LN","LN149.bmp","remember","","49","3","prime1","right","","","",""
"html-keyboard-response","120","377771","0.0-4.0-1.0-3.0","q0w9p4xtd82kg96","prime","5ee0f94d12ce930c1ab1d574","5f60e3c0a3b16e07647b2ff9","5f60eec8609af401bac75e0b","false","null","<div style=""align-items: center; display: flex; color: dodgerblue; font-size: 90px""><b>o</b></div>","null","","","","forget_cue","","","","","","","","","","","","","","","",""
"html-keyboard-response","121","378474","0.0-4.0-1.0-0.1","q0w9p4xtd82kg96","prime","5ee0f94d12ce930c1ab1d574","5f60e3c0a3b16e07647b2ff9","5f60eec8609af401bac75e0b","false","null","<span style=""color: black; font-size: 48px"">N + M</span>","null","","","","resp_prompt","","","","","","","","","","","","","","","",""
"categorize-image","122","379353","0.0-4.0-1.0-1.1","q0w9p4xtd82kg96","prime","5ee0f94d12ce930c1ab1d574","5f60e3c0a3b16e07647b2ff9","5f60eec8609af401bac75e0b","true","871.8400000361726","./Stimuli/SelectedImages/SM/SM195.bmp","76","","","","test","true","N + M","76","switch","SM","SM195.bmp","forget","","50","3","prime1","right","","","",""
"html-keyboard-response","123","381368","0.0-4.0-1.0-3.1","q0w9p4xtd82kg96","prime","5ee0f94d12ce930c1ab1d574","5f60e3c0a3b16e07647b2ff9","5f60eec8609af401bac75e0b","false","null","<div style=""align-items: center; display: flex; color: darkorange; font-size: 90px""><b>ø</b></div>","null","","","","forget_cue","","","","","","","","","","","","","","","",""
"html-keyboard-response","124","382071","0.0-4.0-1.0-0.2","q0w9p4xtd82kg96","prime","5ee0f94d12ce930c1ab1d574","5f60e3c0a3b16e07647b2ff9","5f60eec8609af401bac75e0b","false","null","<span style=""color: black; font-size: 48px"">N + M</span>","null","","","","resp_prompt","","","","","","","","","","","","","","","",""
"categorize-image","125","383237","0.0-4.0-1.0-1.2","q0w9p4xtd82kg96","prime","5ee0f94d12ce930c1ab1d574","5f60e3c0a3b16e07647b2ff9","5f60eec8609af401bac75e0b","true","1158.8800000026822","./Stimuli/SelectedImages/LM/LM209.bmp","83","","","","test","false","N + M","76","switch","LM","LM209.bmp","remember","","51","3","prime1","left","","","",""
"html-keyboard-response","126","383753","0.0-4.0-1.0-2.2-0.2","q0w9p4xtd82kg96","prime","5ee0f94d12ce930c1ab1d574","5f60e3c0a3b16e07647b2ff9","5f60eec8609af401bac75e0b","false","null","<span style=""color: red; font-size: 48px"">Error!</span>","null","","","","feedback","","","","","","","","","","","","","","","",""
"html-keyboard-response","127","385761","0.0-4.0-1.0-3.2","q0w9p4xtd82kg96","prime","5ee0f94d12ce930c1ab1d574","5f60e3c0a3b16e07647b2ff9","5f60eec8609af401bac75e0b","false","null","<div style=""align-items: center; display: flex; color: dodgerblue; font-size: 90px""><b>o</b></div>","null","","","","forget_cue","","","","","","","","","","","","","","","",""
"html-keyboard-response","128","386465","0.0-4.0-1.0-0.3","q0w9p4xtd82kg96","prime","5ee0f94d12ce930c1ab1d574","5f60e3c0a3b16e07647b2ff9","5f60eec8609af401bac75e0b","false","null","<span style=""color: black; font-size: 48px"">N + M</span>","null","","","","resp_prompt","","","","","","","","","","","","","","","",""
"categorize-image","129","387019","0.0-4.0-1.0-1.3","q0w9p4xtd82kg96","prime","5ee0f94d12ce930c1ab1d574","5f60e3c0a3b16e07647b2ff9","5f60eec8609af401bac75e0b","true","546.2849999894388","./Stimuli/SelectedImages/LM/LM51.bmp","76","","","","test","true","N + M","76","repetition","LM","LM51.bmp","remember","","52","3","prime1","right","","","",""
"html-keyboard-response","130","389031","0.0-4.0-1.0-3.3","q0w9p4xtd82kg96","prime","5ee0f94d12ce930c1ab1d574","5f60e3c0a3b16e07647b2ff9","5f60eec8609af401bac75e0b","false","null","<div style=""align-items: center; display: flex; color: dodgerblue; font-size: 90px""><b>o</b></div>","null","","","","forget_cue","","","","","","","","","","","","","","","",""
"html-keyboard-response","131","389741","0.0-4.0-1.0-0.4","q0w9p4xtd82kg96","prime","5ee0f94d12ce930c1ab1d574","5f60e3c0a3b16e07647b2ff9","5f60eec8609af401bac75e0b","false","null","<span style=""color: black; font-size: 48px"">M + N</span>","null","","","","resp_prompt","","","","","","","","","","","","","","","",""
"categorize-image","132","390839","0.0-4.0-1.0-1.4","q0w9p4xtd82kg96","prime","5ee0f94d12ce930c1ab1d574","5f60e3c0a3b16e07647b2ff9","5f60eec8609af401bac75e0b","true","1091.8800000217743","./Stimuli/SelectedImages/LM/LM48.bmp","76","","","","test","false","M + N","83","repetition","LM","LM48.bmp","forget","","53","3","prime1","right","","","",""
"html-keyboard-response","133","391345","0.0-4.0-1.0-2.4-0.4","q0w9p4xtd82kg96","prime","5ee0f94d12ce930c1ab1d574","5f60e3c0a3b16e07647b2ff9","5f60eec8609af401bac75e0b","false","null","<span style=""color: red; font-size: 48px"">Error!</span>","null","","","","feedback","","","","","","","","","","","","","","","",""
"html-keyboard-response","134","393362","0.0-4.0-1.0-3.4","q0w9p4xtd82kg96","prime","5ee0f94d12ce930c1ab1d574","5f60e3c0a3b16e07647b2ff9","5f60eec8609af401bac75e0b","false","null","<div style=""align-items: center; display: flex; color: darkorange; font-size: 90px""><b>ø</b></div>","null","","","","forget_cue","","","","","","","","","","","","","","","",""
"html-keyboard-response","135","394072","0.0-4.0-1.0-0.5","q0w9p4xtd82kg96","prime","5ee0f94d12ce930c1ab1d574","5f60e3c0a3b16e07647b2ff9","5f60eec8609af401bac75e0b","false","null","<span style=""color: black; font-size: 48px"">N + M</span>","null","","","","resp_prompt","","","","","","","","","","","","","","","",""
"categorize-image","136","394771","0.0-4.0-1.0-1.5","q0w9p4xtd82kg96","prime","5ee0f94d12ce930c1ab1d574","5f60e3c0a3b16e07647b2ff9","5f60eec8609af401bac75e0b","true","692.8499999921769","./Stimuli/SelectedImages/SN/SN60.bmp","83","","","","test","true","N + M","83","repetition","SN","SN60.bmp","remember","","54","3","prime1","left","","","",""
"html-keyboard-response","137","396786","0.0-4.0-1.0-3.5","q0w9p4xtd82kg96","prime","5ee0f94d12ce930c1ab1d574","5f60e3c0a3b16e07647b2ff9","5f60eec8609af401bac75e0b","false","null","<div style=""align-items: center; display: flex; color: dodgerblue; font-size: 90px""><b>o</b></div>","null","","","","forget_cue","","","","","","","","","","","","","","","",""
"html-keyboard-response","138","397491","0.0-4.0-1.0-0.6","q0w9p4xtd82kg96","prime","5ee0f94d12ce930c1ab1d574","5f60e3c0a3b16e07647b2ff9","5f60eec8609af401bac75e0b","false","null","<span style=""color: black; font-size: 48px"">M + N</span>","null","","","","resp_prompt","","","","","","","","","","","","","","","",""
"categorize-image","139","398224","0.0-4.0-1.0-1.6","q0w9p4xtd82kg96","prime","5ee0f94d12ce930c1ab1d574","5f60e3c0a3b16e07647b2ff9","5f60eec8609af401bac75e0b","true","727.7699999976903","./Stimuli/SelectedImages/SN/SN18.bmp","76","","","","test","true","M + N","76","switch","SN","SN18.bmp","forget","","55","3","prime1","right","","","",""
"html-keyboard-response","140","400243","0.0-4.0-1.0-3.6","q0w9p4xtd82kg96","prime","5ee0f94d12ce930c1ab1d574","5f60e3c0a3b16e07647b2ff9","5f60eec8609af401bac75e0b","false","null","<div style=""align-items: center; display: flex; color: darkorange; font-size: 90px""><b>ø</b></div>","null","","","","forget_cue","","","","","","","","","","","","","","","",""
"html-keyboard-response","141","400963","0.0-4.0-1.0-0.7","q0w9p4xtd82kg96","prime","5ee0f94d12ce930c1ab1d574","5f60e3c0a3b16e07647b2ff9","5f60eec8609af401bac75e0b","false","null","<span style=""color: black; font-size: 48px"">N + M</span>","null","","","","resp_prompt","","","","","","","","","","","","","","","",""
"categorize-image","142","401754","0.0-4.0-1.0-1.7","q0w9p4xtd82kg96","prime","5ee0f94d12ce930c1ab1d574","5f60e3c0a3b16e07647b2ff9","5f60eec8609af401bac75e0b","true","774.9199999962002","./Stimuli/SelectedImages/LM/LM58.bmp","76","","","","test","true","N + M","76","repetition","LM","LM58.bmp","forget","","56","3","prime1","right","","","",""
"html-keyboard-response","143","403756","0.0-4.0-1.0-3.7","q0w9p4xtd82kg96","prime","5ee0f94d12ce930c1ab1d574","5f60e3c0a3b16e07647b2ff9","5f60eec8609af401bac75e0b","false","null","<div style=""align-items: center; display: flex; color: darkorange; font-size: 90px""><b>ø</b></div>","null","","","","forget_cue","","","","","","","","","","","","","","","",""
"html-keyboard-response","144","404474","0.0-4.0-1.0-0.8","q0w9p4xtd82kg96","prime","5ee0f94d12ce930c1ab1d574","5f60e3c0a3b16e07647b2ff9","5f60eec8609af401bac75e0b","false","null","<span style=""color: black; font-size: 48px"">N + M</span>","null","","","","resp_prompt","","","","","","","","","","","","","","","",""
"categorize-image","145","405030","0.0-4.0-1.0-1.8","q0w9p4xtd82kg96","prime","5ee0f94d12ce930c1ab1d574","5f60e3c0a3b16e07647b2ff9","5f60eec8609af401bac75e0b","true","550.7349999970756","./Stimuli/SelectedImages/SM/SM106.bmp","76","","","","test","true","N + M","76","repetition","SM","SM106.bmp","remember","","57","3","prime1","right","","","",""
"html-keyboard-response","146","407038","0.0-4.0-1.0-3.8","q0w9p4xtd82kg96","prime","5ee0f94d12ce930c1ab1d574","5f60e3c0a3b16e07647b2ff9","5f60eec8609af401bac75e0b","false","null","<div style=""align-items: center; display: flex; color: dodgerblue; font-size: 90px""><b>o</b></div>","null","","","","forget_cue","","","","","","","","","","","","","","","",""
"html-keyboard-response","147","407742","0.0-4.0-1.0-0.9","q0w9p4xtd82kg96","prime","5ee0f94d12ce930c1ab1d574","5f60e3c0a3b16e07647b2ff9","5f60eec8609af401bac75e0b","false","null","<span style=""color: black; font-size: 48px"">N + M</span>","null","","","","resp_prompt","","","","","","","","","","","","","","","",""
"categorize-image","148","408267","0.0-4.0-1.0-1.9","q0w9p4xtd82kg96","prime","5ee0f94d12ce930c1ab1d574","5f60e3c0a3b16e07647b2ff9","5f60eec8609af401bac75e0b","true","518.8799999887124","./Stimuli/SelectedImages/SM/SM128.bmp","76","","","","test","true","N + M","76","repetition","SM","SM128.bmp","forget","","58","3","prime1","right","","","",""
"html-keyboard-response","149","410276","0.0-4.0-1.0-3.9","q0w9p4xtd82kg96","prime","5ee0f94d12ce930c1ab1d574","5f60e3c0a3b16e07647b2ff9","5f60eec8609af401bac75e0b","false","null","<div style=""align-items: center; display: flex; color: darkorange; font-size: 90px""><b>ø</b></div>","null","","","","forget_cue","","","","","","","","","","","","","","","",""
"html-keyboard-response","150","410979","0.0-4.0-1.0-0.10","q0w9p4xtd82kg96","prime","5ee0f94d12ce930c1ab1d574","5f60e3c0a3b16e07647b2ff9","5f60eec8609af401bac75e0b","false","null","<span style=""color: black; font-size: 48px"">M + N</span>","null","","","","resp_prompt","","","","","","","","","","","","","","","",""
"categorize-image","151","411569","0.0-4.0-1.0-1.10","q0w9p4xtd82kg96","prime","5ee0f94d12ce930c1ab1d574","5f60e3c0a3b16e07647b2ff9","5f60eec8609af401bac75e0b","true","583.5000000079162","./Stimuli/SelectedImages/SN/SN181.bmp","76","","","","test","true","M + N","76","repetition","SN","SN181.bmp","remember","","59","3","prime1","right","","","",""
"html-keyboard-response","152","413576","0.0-4.0-1.0-3.10","q0w9p4xtd82kg96","prime","5ee0f94d12ce930c1ab1d574","5f60e3c0a3b16e07647b2ff9","5f60eec8609af401bac75e0b","false","null","<div style=""align-items: center; display: flex; color: dodgerblue; font-size: 90px""><b>o</b></div>","null","","","","forget_cue","","","","","","","","","","","","","","","",""
"html-keyboard-response","153","414277","0.0-4.0-1.0-0.11","q0w9p4xtd82kg96","prime","5ee0f94d12ce930c1ab1d574","5f60e3c0a3b16e07647b2ff9","5f60eec8609af401bac75e0b","false","null","<span style=""color: black; font-size: 48px"">N + M</span>","null","","","","resp_prompt","","","","","","","","","","","","","","","",""
"categorize-image","154","415019","0.0-4.0-1.0-1.11","q0w9p4xtd82kg96","prime","5ee0f94d12ce930c1ab1d574","5f60e3c0a3b16e07647b2ff9","5f60eec8609af401bac75e0b","true","735.854999977164","./Stimuli/SelectedImages/LN/LN150.bmp","83","","","","test","true","N + M","83","switch","LN","LN150.bmp","forget","","60","3","prime1","left","","","",""
"html-keyboard-response","155","417031","0.0-4.0-1.0-3.11","q0w9p4xtd82kg96","prime","5ee0f94d12ce930c1ab1d574","5f60e3c0a3b16e07647b2ff9","5f60eec8609af401bac75e0b","false","null","<div style=""align-items: center; display: flex; color: darkorange; font-size: 90px""><b>ø</b></div>","null","","","","forget_cue","","","","","","","","","","","","","","","",""
"html-keyboard-response","156","417736","0.0-4.0-1.0-0.12","q0w9p4xtd82kg96","prime","5ee0f94d12ce930c1ab1d574","5f60e3c0a3b16e07647b2ff9","5f60eec8609af401bac75e0b","false","null","<span style=""color: black; font-size: 48px"">N + M</span>","null","","","","resp_prompt","","","","","","","","","","","","","","","",""
"categorize-image","157","418462","0.0-4.0-1.0-1.12","q0w9p4xtd82kg96","prime","5ee0f94d12ce930c1ab1d574","5f60e3c0a3b16e07647b2ff9","5f60eec8609af401bac75e0b","true","714.3250000081025","./Stimuli/SelectedImages/SN/SN187.bmp","83","","","","test","true","N + M","83","repetition","SN","SN187.bmp","forget","","61","3","prime1","left","","","",""
"html-keyboard-response","158","420471","0.0-4.0-1.0-3.12","q0w9p4xtd82kg96","prime","5ee0f94d12ce930c1ab1d574","5f60e3c0a3b16e07647b2ff9","5f60eec8609af401bac75e0b","false","null","<div style=""align-items: center; display: flex; color: darkorange; font-size: 90px""><b>ø</b></div>","null","","","","forget_cue","","","","","","","","","","","","","","","",""
"html-keyboard-response","159","421177","0.0-4.0-1.0-0.13","q0w9p4xtd82kg96","prime","5ee0f94d12ce930c1ab1d574","5f60e3c0a3b16e07647b2ff9","5f60eec8609af401bac75e0b","false","null","<span style=""color: black; font-size: 48px"">M + N</span>","null","","","","resp_prompt","","","","","","","","","","","","","","","",""
"categorize-image","160","421877","0.0-4.0-1.0-1.13","q0w9p4xtd82kg96","prime","5ee0f94d12ce930c1ab1d574","5f60e3c0a3b16e07647b2ff9","5f60eec8609af401bac75e0b","true","693.0000000284053","./Stimuli/SelectedImages/SM/SM213.bmp","83","","","","test","true","M + N","83","switch","SM","SM213.bmp","forget","","62","3","prime1","left","","","",""
"html-keyboard-response","161","423880","0.0-4.0-1.0-3.13","q0w9p4xtd82kg96","prime","5ee0f94d12ce930c1ab1d574","5f60e3c0a3b16e07647b2ff9","5f60eec8609af401bac75e0b","false","null","<div style=""align-items: center; display: flex; color: darkorange; font-size: 90px""><b>ø</b></div>","null","","","","forget_cue","","","","","","","","","","","","","","","",""
"html-keyboard-response","162","424585","0.0-4.0-1.0-0.14","q0w9p4xtd82kg96","prime","5ee0f94d12ce930c1ab1d574","5f60e3c0a3b16e07647b2ff9","5f60eec8609af401bac75e0b","false","null","<span style=""color: black; font-size: 48px"">N + M</span>","null","","","","resp_prompt","","","","","","","","","","","","","","","",""
"categorize-image","163","425298","0.0-4.0-1.0-1.14","q0w9p4xtd82kg96","prime","5ee0f94d12ce930c1ab1d574","5f60e3c0a3b16e07647b2ff9","5f60eec8609af401bac75e0b","true","706.9800000172108","./Stimuli/SelectedImages/LN/LN13.bmp","83","","","","test","true","N + M","83","repetition","LN","LN13.bmp","remember","","63","3","prime1","left","","","",""
"html-keyboard-response","164","427305","0.0-4.0-1.0-3.14","q0w9p4xtd82kg96","prime","5ee0f94d12ce930c1ab1d574","5f60e3c0a3b16e07647b2ff9","5f60eec8609af401bac75e0b","false","null","<div style=""align-items: center; display: flex; color: dodgerblue; font-size: 90px""><b>o</b></div>","null","","","","forget_cue","","","","","","","","","","","","","","","",""
"html-keyboard-response","165","428009","0.0-4.0-1.0-0.15","q0w9p4xtd82kg96","prime","5ee0f94d12ce930c1ab1d574","5f60e3c0a3b16e07647b2ff9","5f60eec8609af401bac75e0b","false","null","<span style=""color: black; font-size: 48px"">M + N</span>","null","","","","resp_prompt","","","","","","","","","","","","","","","",""
"categorize-image","166","428571","0.0-4.0-1.0-1.15","q0w9p4xtd82kg96","prime","5ee0f94d12ce930c1ab1d574","5f60e3c0a3b16e07647b2ff9","5f60eec8609af401bac75e0b","true","552.060000016354","./Stimuli/SelectedImages/SN/SN182.bmp","76","","","","test","true","M + N","76","repetition","SN","SN182.bmp","remember","","64","3","prime1","right","","","",""
"html-keyboard-response","167","430574","0.0-4.0-1.0-3.15","q0w9p4xtd82kg96","prime","5ee0f94d12ce930c1ab1d574","5f60e3c0a3b16e07647b2ff9","5f60eec8609af401bac75e0b","false","null","<div style=""align-items: center; display: flex; color: dodgerblue; font-size: 90px""><b>o</b></div>","null","","","","forget_cue","","","","","","","","","","","","","","","",""
"html-keyboard-response","168","431277","0.0-4.0-1.0-0.16","q0w9p4xtd82kg96","prime","5ee0f94d12ce930c1ab1d574","5f60e3c0a3b16e07647b2ff9","5f60eec8609af401bac75e0b","false","null","<span style=""color: black; font-size: 48px"">M + N</span>","null","","","","resp_prompt","","","","","","","","","","","","","","","",""
"categorize-image","169","431820","0.0-4.0-1.0-1.16","q0w9p4xtd82kg96","prime","5ee0f94d12ce930c1ab1d574","5f60e3c0a3b16e07647b2ff9","5f60eec8609af401bac75e0b","true","535.6449999962933","./Stimuli/SelectedImages/LM/LM150.bmp","83","","","","test","true","M + N","83","switch","LM","LM150.bmp","forget","","65","3","prime1","left","","","",""
"html-keyboard-response","170","433827","0.0-4.0-1.0-3.16","q0w9p4xtd82kg96","prime","5ee0f94d12ce930c1ab1d574","5f60e3c0a3b16e07647b2ff9","5f60eec8609af401bac75e0b","false","null","<div style=""align-items: center; display: flex; color: darkorange; font-size: 90px""><b>ø</b></div>","null","","","","forget_cue","","","","","","","","","","","","","","","",""
"html-keyboard-response","171","434542","0.0-4.0-1.0-0.17","q0w9p4xtd82kg96","prime","5ee0f94d12ce930c1ab1d574","5f60e3c0a3b16e07647b2ff9","5f60eec8609af401bac75e0b","false","null","<span style=""color: black; font-size: 48px"">N + M</span>","null","","","","resp_prompt","","","","","","","","","","","","","","","",""
"categorize-image","172","435183","0.0-4.0-1.0-1.17","q0w9p4xtd82kg96","prime","5ee0f94d12ce930c1ab1d574","5f60e3c0a3b16e07647b2ff9","5f60eec8609af401bac75e0b","true","634.6050000283867","./Stimuli/SelectedImages/SN/SN140.bmp","83","","","","test","true","N + M","83","repetition","SN","SN140.bmp","forget","","66","3","prime1","left","","","",""
"html-keyboard-response","173","437189","0.0-4.0-1.0-3.17","q0w9p4xtd82kg96","prime","5ee0f94d12ce930c1ab1d574","5f60e3c0a3b16e07647b2ff9","5f60eec8609af401bac75e0b","false","null","<div style=""align-items: center; display: flex; color: darkorange; font-size: 90px""><b>ø</b></div>","null","","","","forget_cue","","","","","","","","","","","","","","","",""
"html-keyboard-response","174","437894","0.0-4.0-1.0-0.18","q0w9p4xtd82kg96","prime","5ee0f94d12ce930c1ab1d574","5f60e3c0a3b16e07647b2ff9","5f60eec8609af401bac75e0b","false","null","<span style=""color: black; font-size: 48px"">N + M</span>","null","","","","resp_prompt","","","","","","","","","","","","","","","",""
"categorize-image","175","438540","0.0-4.0-1.0-1.18","q0w9p4xtd82kg96","prime","5ee0f94d12ce930c1ab1d574","5f60e3c0a3b16e07647b2ff9","5f60eec8609af401bac75e0b","true","639.5100000081584","./Stimuli/SelectedImages/SN/SN111.bmp","83","","","","test","true","N + M","83","switch","SN","SN111.bmp","forget","","67","3","prime1","left","","","",""
"html-keyboard-response","176","440552","0.0-4.0-1.0-3.18","q0w9p4xtd82kg96","prime","5ee0f94d12ce930c1ab1d574","5f60e3c0a3b16e07647b2ff9","5f60eec8609af401bac75e0b","false","null","<div style=""align-items: center; display: flex; color: darkorange; font-size: 90px""><b>ø</b></div>","null","","","","forget_cue","","","","","","","","","","","","","","","",""
"html-keyboard-response","177","441256","0.0-4.0-1.0-0.19","q0w9p4xtd82kg96","prime","5ee0f94d12ce930c1ab1d574","5f60e3c0a3b16e07647b2ff9","5f60eec8609af401bac75e0b","false","null","<span style=""color: black; font-size: 48px"">N + M</span>","null","","","","resp_prompt","","","","","","","","","","","","","","","",""
"categorize-image","178","441969","0.0-4.0-1.0-1.19","q0w9p4xtd82kg96","prime","5ee0f94d12ce930c1ab1d574","5f60e3c0a3b16e07647b2ff9","5f60eec8609af401bac75e0b","true","706.9550000014715","./Stimuli/SelectedImages/LN/LN92.bmp","83","","","","test","true","N + M","83","repetition","LN","LN92.bmp","forget","","68","3","prime1","left","","","",""
"html-keyboard-response","179","443977","0.0-4.0-1.0-3.19","q0w9p4xtd82kg96","prime","5ee0f94d12ce930c1ab1d574","5f60e3c0a3b16e07647b2ff9","5f60eec8609af401bac75e0b","false","null","<div style=""align-items: center; display: flex; color: darkorange; font-size: 90px""><b>ø</b></div>","null","","","","forget_cue","","","","","","","","","","","","","","","",""
"html-keyboard-response","180","444690","0.0-4.0-1.0-0.20","q0w9p4xtd82kg96","prime","5ee0f94d12ce930c1ab1d574","5f60e3c0a3b16e07647b2ff9","5f60eec8609af401bac75e0b","false","null","<span style=""color: black; font-size: 48px"">N + M</span>","null","","","","resp_prompt","","","","","","","","","","","","","","","",""
"categorize-image","181","445191","0.0-4.0-1.0-1.20","q0w9p4xtd82kg96","prime","5ee0f94d12ce930c1ab1d574","5f60e3c0a3b16e07647b2ff9","5f60eec8609af401bac75e0b","true","495.5600000103004","./Stimuli/SelectedImages/LM/LM103.bmp","76","","","","test","true","N + M","76","switch","LM","LM103.bmp","forget","","69","3","prime1","right","","","",""
"html-keyboard-response","182","447199","0.0-4.0-1.0-3.20","q0w9p4xtd82kg96","prime","5ee0f94d12ce930c1ab1d574","5f60e3c0a3b16e07647b2ff9","5f60eec8609af401bac75e0b","false","null","<div style=""align-items: center; display: flex; color: darkorange; font-size: 90px""><b>ø</b></div>","null","","","","forget_cue","","","","","","","","","","","","","","","",""
"html-keyboard-response","183","447910","0.0-4.0-1.0-0.21","q0w9p4xtd82kg96","prime","5ee0f94d12ce930c1ab1d574","5f60e3c0a3b16e07647b2ff9","5f60eec8609af401bac75e0b","false","null","<span style=""color: black; font-size: 48px"">N + M</span>","null","","","","resp_prompt","","","","","","","","","","","","","","","",""
"categorize-image","184","448552","0.0-4.0-1.0-1.21","q0w9p4xtd82kg96","prime","5ee0f94d12ce930c1ab1d574","5f60e3c0a3b16e07647b2ff9","5f60eec8609af401bac75e0b","true","635.3749999543652","./Stimuli/SelectedImages/SN/SN64.bmp","83","","","","test","true","N + M","83","switch","SN","SN64.bmp","remember","","70","3","prime1","left","","","",""
"html-keyboard-response","185","450561","0.0-4.0-1.0-3.21","q0w9p4xtd82kg96","prime","5ee0f94d12ce930c1ab1d574","5f60e3c0a3b16e07647b2ff9","5f60eec8609af401bac75e0b","false","null","<div style=""align-items: center; display: flex; color: dodgerblue; font-size: 90px""><b>o</b></div>","null","","","","forget_cue","","","","","","","","","","","","","","","",""
"html-keyboard-response","186","451265","0.0-4.0-1.0-0.22","q0w9p4xtd82kg96","prime","5ee0f94d12ce930c1ab1d574","5f60e3c0a3b16e07647b2ff9","5f60eec8609af401bac75e0b","false","null","<span style=""color: black; font-size: 48px"">M + N</span>","null","","","","resp_prompt","","","","","","","","","","","","","","","",""
"categorize-image","187","452063","0.0-4.0-1.0-1.22","q0w9p4xtd82kg96","prime","5ee0f94d12ce930c1ab1d574","5f60e3c0a3b16e07647b2ff9","5f60eec8609af401bac75e0b","true","791.9650000403635","./Stimuli/SelectedImages/LM/LM216.bmp","83","","","","test","true","M + N","83","repetition","LM","LM216.bmp","remember","","71","3","prime1","left","","","",""
"html-keyboard-response","188","454080","0.0-4.0-1.0-3.22","q0w9p4xtd82kg96","prime","5ee0f94d12ce930c1ab1d574","5f60e3c0a3b16e07647b2ff9","5f60eec8609af401bac75e0b","false","null","<div style=""align-items: center; display: flex; color: dodgerblue; font-size: 90px""><b>o</b></div>","null","","","","forget_cue","","","","","","","","","","","","","","","",""
"html-keyboard-response","189","454790","0.0-4.0-1.0-0.23","q0w9p4xtd82kg96","prime","5ee0f94d12ce930c1ab1d574","5f60e3c0a3b16e07647b2ff9","5f60eec8609af401bac75e0b","false","null","<span style=""color: black; font-size: 48px"">M + N</span>","null","","","","resp_prompt","","","","","","","","","","","","","","","",""
"categorize-image","190","455358","0.0-4.0-1.0-1.23","q0w9p4xtd82kg96","prime","5ee0f94d12ce930c1ab1d574","5f60e3c0a3b16e07647b2ff9","5f60eec8609af401bac75e0b","true","562.6300000003539","./Stimuli/SelectedImages/SN/SN155.bmp","76","","","","test","true","M + N","76","repetition","SN","SN155.bmp","forget","","72","3","prime1","right","","","",""
"html-keyboard-response","191","457364","0.0-4.0-1.0-3.23","q0w9p4xtd82kg96","prime","5ee0f94d12ce930c1ab1d574","5f60e3c0a3b16e07647b2ff9","5f60eec8609af401bac75e0b","false","null","<div style=""align-items: center; display: flex; color: darkorange; font-size: 90px""><b>ø</b></div>","null","","","","forget_cue","","","","","","","","","","","","","","","",""
"html-keyboard-response","192","458075","0.0-4.0-1.0-0.24","q0w9p4xtd82kg96","prime","5ee0f94d12ce930c1ab1d574","5f60e3c0a3b16e07647b2ff9","5f60eec8609af401bac75e0b","false","null","<span style=""color: black; font-size: 48px"">N + M</span>","null","","","","resp_prompt","","","","","","","","","","","","","","","",""
"categorize-image","193","458719","0.0-4.0-1.0-1.24","q0w9p4xtd82kg96","prime","5ee0f94d12ce930c1ab1d574","5f60e3c0a3b16e07647b2ff9","5f60eec8609af401bac75e0b","true","637.4849999556318","./Stimuli/SelectedImages/LN/LN42.bmp","83","","","","test","true","N + M","83","repetition","LN","LN42.bmp","remember","","73","3","prime1","left","","","",""
"html-keyboard-response","194","460727","0.0-4.0-1.0-3.24","q0w9p4xtd82kg96","prime","5ee0f94d12ce930c1ab1d574","5f60e3c0a3b16e07647b2ff9","5f60eec8609af401bac75e0b","false","null","<div style=""align-items: center; display: flex; color: dodgerblue; font-size: 90px""><b>o</b></div>","null","","","","forget_cue","","","","","","","","","","","","","","","",""
"html-keyboard-response","195","461430","0.0-4.0-1.0-0.25","q0w9p4xtd82kg96","prime","5ee0f94d12ce930c1ab1d574","5f60e3c0a3b16e07647b2ff9","5f60eec8609af401bac75e0b","false","null","<span style=""color: black; font-size: 48px"">M + N</span>","null","","","","resp_prompt","","","","","","","","","","","","","","","",""
"categorize-image","196","462069","0.0-4.0-1.0-1.25","q0w9p4xtd82kg96","prime","5ee0f94d12ce930c1ab1d574","5f60e3c0a3b16e07647b2ff9","5f60eec8609af401bac75e0b","true","632.0950000081211","./Stimuli/SelectedImages/SM/SM73.bmp","83","","","","test","true","M + N","83","repetition","SM","SM73.bmp","forget","","74","3","prime1","left","","","",""
"html-keyboard-response","197","464073","0.0-4.0-1.0-3.25","q0w9p4xtd82kg96","prime","5ee0f94d12ce930c1ab1d574","5f60e3c0a3b16e07647b2ff9","5f60eec8609af401bac75e0b","false","null","<div style=""align-items: center; display: flex; color: darkorange; font-size: 90px""><b>ø</b></div>","null","","","","forget_cue","","","","","","","","","","","","","","","",""
"html-keyboard-response","198","464781","0.0-4.0-1.0-0.26","q0w9p4xtd82kg96","prime","5ee0f94d12ce930c1ab1d574","5f60e3c0a3b16e07647b2ff9","5f60eec8609af401bac75e0b","false","null","<span style=""color: black; font-size: 48px"">N + M</span>","null","","","","resp_prompt","","","","","","","","","","","","","","","",""
"categorize-image","199","465437","0.0-4.0-1.0-1.26","q0w9p4xtd82kg96","prime","5ee0f94d12ce930c1ab1d574","5f60e3c0a3b16e07647b2ff9","5f60eec8609af401bac75e0b","true","649.6100000222214","./Stimuli/SelectedImages/SM/SM24.bmp","76","","","","test","true","N + M","76","switch","SM","SM24.bmp","remember","","75","3","prime1","right","","","",""
"html-keyboard-response","200","467451","0.0-4.0-1.0-3.26","q0w9p4xtd82kg96","prime","5ee0f94d12ce930c1ab1d574","5f60e3c0a3b16e07647b2ff9","5f60eec8609af401bac75e0b","false","null","<div style=""align-items: center; display: flex; color: dodgerblue; font-size: 90px""><b>o</b></div>","null","","","","forget_cue","","","","","","","","","","","","","","","",""
"html-keyboard-response","201","468155","0.0-4.0-1.0-0.27","q0w9p4xtd82kg96","prime","5ee0f94d12ce930c1ab1d574","5f60e3c0a3b16e07647b2ff9","5f60eec8609af401bac75e0b","false","null","<span style=""color: black; font-size: 48px"">N + M</span>","null","","","","resp_prompt","","","","","","","","","","","","","","","",""
"categorize-image","202","469153","0.0-4.0-1.0-1.27","q0w9p4xtd82kg96","prime","5ee0f94d12ce930c1ab1d574","5f60e3c0a3b16e07647b2ff9","5f60eec8609af401bac75e0b","true","991.1100000026636","./Stimuli/SelectedImages/LM/LM57.bmp","76","","","","test","true","N + M","76","switch","LM","LM57.bmp","remember","","76","3","prime1","right","","","",""
"html-keyboard-response","203","471157","0.0-4.0-1.0-3.27","q0w9p4xtd82kg96","prime","5ee0f94d12ce930c1ab1d574","5f60e3c0a3b16e07647b2ff9","5f60eec8609af401bac75e0b","false","null","<div style=""align-items: center; display: flex; color: dodgerblue; font-size: 90px""><b>o</b></div>","null","","","","forget_cue","","","","","","","","","","","","","","","",""
"html-keyboard-response","204","471862","0.0-4.0-1.0-0.28","q0w9p4xtd82kg96","prime","5ee0f94d12ce930c1ab1d574","5f60e3c0a3b16e07647b2ff9","5f60eec8609af401bac75e0b","false","null","<span style=""color: black; font-size: 48px"">M + N</span>","null","","","","resp_prompt","","","","","","","","","","","","","","","",""
"categorize-image","205","472422","0.0-4.0-1.0-1.28","q0w9p4xtd82kg96","prime","5ee0f94d12ce930c1ab1d574","5f60e3c0a3b16e07647b2ff9","5f60eec8609af401bac75e0b","true","553.6750000319444","./Stimuli/SelectedImages/LN/LN101.bmp","76","","","","test","true","M + N","76","switch","LN","LN101.bmp","remember","","77","3","prime1","right","","","",""
"html-keyboard-response","206","474426","0.0-4.0-1.0-3.28","q0w9p4xtd82kg96","prime","5ee0f94d12ce930c1ab1d574","5f60e3c0a3b16e07647b2ff9","5f60eec8609af401bac75e0b","false","null","<div style=""align-items: center; display: flex; color: dodgerblue; font-size: 90px""><b>o</b></div>","null","","","","forget_cue","","","","","","","","","","","","","","","",""
"html-keyboard-response","207","475136","0.0-4.0-1.0-0.29","q0w9p4xtd82kg96","prime","5ee0f94d12ce930c1ab1d574","5f60e3c0a3b16e07647b2ff9","5f60eec8609af401bac75e0b","false","null","<span style=""color: black; font-size: 48px"">N + M</span>","null","","","","resp_prompt","","","","","","","","","","","","","","","",""
"categorize-image","208","475811","0.0-4.0-1.0-1.29","q0w9p4xtd82kg96","prime","5ee0f94d12ce930c1ab1d574","5f60e3c0a3b16e07647b2ff9","5f60eec8609af401bac75e0b","true","668.4900000109337","./Stimuli/SelectedImages/LM/LM179.bmp","76","","","","test","true","N + M","76","switch","LM","LM179.bmp","forget","","78","3","prime1","right","","","",""
"html-keyboard-response","209","477819","0.0-4.0-1.0-3.29","q0w9p4xtd82kg96","prime","5ee0f94d12ce930c1ab1d574","5f60e3c0a3b16e07647b2ff9","5f60eec8609af401bac75e0b","false","null","<div style=""align-items: center; display: flex; color: darkorange; font-size: 90px""><b>ø</b></div>","null","","","","forget_cue","","","","","","","","","","","","","","","",""
"html-keyboard-response","210","478524","0.0-4.0-1.0-0.30","q0w9p4xtd82kg96","prime","5ee0f94d12ce930c1ab1d574","5f60e3c0a3b16e07647b2ff9","5f60eec8609af401bac75e0b","false","null","<span style=""color: black; font-size: 48px"">M + N</span>","null","","","","resp_prompt","","","","","","","","","","","","","","","",""
"categorize-image","211","480547","0.0-4.0-1.0-1.30","q0w9p4xtd82kg96","prime","5ee0f94d12ce930c1ab1d574","5f60e3c0a3b16e07647b2ff9","5f60eec8609af401bac75e0b","true","null","./Stimuli/SelectedImages/LN/LN166.bmp","null","","","","test","false","M + N","76","switch","LN","LN166.bmp","forget","","79","3","prime1","too_slow","","","",""
"html-keyboard-response","212","481050","0.0-4.0-1.0-2.30-0.30","q0w9p4xtd82kg96","prime","5ee0f94d12ce930c1ab1d574","5f60e3c0a3b16e07647b2ff9","5f60eec8609af401bac75e0b","false","null","<span style=""color: red; font-size: 48px"">Too slow!</span>","null","","","","feedback","","","","","","","","","","","","","","","",""
"html-keyboard-response","213","483058","0.0-4.0-1.0-3.30","q0w9p4xtd82kg96","prime","5ee0f94d12ce930c1ab1d574","5f60e3c0a3b16e07647b2ff9","5f60eec8609af401bac75e0b","false","null","<div style=""align-items: center; display: flex; color: darkorange; font-size: 90px""><b>ø</b></div>","null","","","","forget_cue","","","","","","","","","","","","","","","",""
"html-keyboard-response","214","483763","0.0-4.0-1.0-0.31","q0w9p4xtd82kg96","prime","5ee0f94d12ce930c1ab1d574","5f60e3c0a3b16e07647b2ff9","5f60eec8609af401bac75e0b","false","null","<span style=""color: black; font-size: 48px"">M + N</span>","null","","","","resp_prompt","","","","","","","","","","","","","","","",""
"categorize-image","215","484480","0.0-4.0-1.0-1.31","q0w9p4xtd82kg96","prime","5ee0f94d12ce930c1ab1d574","5f60e3c0a3b16e07647b2ff9","5f60eec8609af401bac75e0b","true","710.4849999886937","./Stimuli/SelectedImages/SN/SN93.bmp","76","","","","test","true","M + N","76","repetition","SN","SN93.bmp","forget","","80","3","prime1","right","","","",""
"html-keyboard-response","216","486482","0.0-4.0-1.0-3.31","q0w9p4xtd82kg96","prime","5ee0f94d12ce930c1ab1d574","5f60e3c0a3b16e07647b2ff9","5f60eec8609af401bac75e0b","false","null","<div style=""align-items: center; display: flex; color: darkorange; font-size: 90px""><b>ø</b></div>","null","","","","forget_cue","","","","","","","","","","","","","","","",""
"html-keyboard-response","217","487187","0.0-4.0-1.0-0.32","q0w9p4xtd82kg96","prime","5ee0f94d12ce930c1ab1d574","5f60e3c0a3b16e07647b2ff9","5f60eec8609af401bac75e0b","false","null","<span style=""color: black; font-size: 48px"">N + M</span>","null","","","","resp_prompt","","","","","","","","","","","","","","","",""
"categorize-image","218","487841","0.0-4.0-1.0-1.32","q0w9p4xtd82kg96","prime","5ee0f94d12ce930c1ab1d574","5f60e3c0a3b16e07647b2ff9","5f60eec8609af401bac75e0b","true","648.1999999959953","./Stimuli/SelectedImages/SN/SN240.bmp","83","","","","test","true","N + M","83","repetition","SN","SN240.bmp","remember","","81","3","prime1","left","","","",""
"html-keyboard-response","219","489846","0.0-4.0-1.0-3.32","q0w9p4xtd82kg96","prime","5ee0f94d12ce930c1ab1d574","5f60e3c0a3b16e07647b2ff9","5f60eec8609af401bac75e0b","false","null","<div style=""align-items: center; display: flex; color: dodgerblue; font-size: 90px""><b>o</b></div>","null","","","","forget_cue","","","","","","","","","","","","","","","",""
"html-keyboard-response","220","490552","0.0-4.0-1.0-0.33","q0w9p4xtd82kg96","prime","5ee0f94d12ce930c1ab1d574","5f60e3c0a3b16e07647b2ff9","5f60eec8609af401bac75e0b","false","null","<span style=""color: black; font-size: 48px"">M + N</span>","null","","","","resp_prompt","","","","","","","","","","","","","","","",""
"categorize-image","221","491247","0.0-4.0-1.0-1.33","q0w9p4xtd82kg96","prime","5ee0f94d12ce930c1ab1d574","5f60e3c0a3b16e07647b2ff9","5f60eec8609af401bac75e0b","true","688.9099999680184","./Stimuli/SelectedImages/SM/SM200.bmp","83","","","","test","true","M + N","83","repetition","SM","SM200.bmp","forget","","82","3","prime1","left","","","",""
"html-keyboard-response","222","493254","0.0-4.0-1.0-3.33","q0w9p4xtd82kg96","prime","5ee0f94d12ce930c1ab1d574","5f60e3c0a3b16e07647b2ff9","5f60eec8609af401bac75e0b","false","null","<div style=""align-items: center; display: flex; color: darkorange; font-size: 90px""><b>ø</b></div>","null","","","","forget_cue","","","","","","","","","","","","","","","",""
"html-keyboard-response","223","493959","0.0-4.0-1.0-0.34","q0w9p4xtd82kg96","prime","5ee0f94d12ce930c1ab1d574","5f60e3c0a3b16e07647b2ff9","5f60eec8609af401bac75e0b","false","null","<span style=""color: black; font-size: 48px"">M + N</span>","null","","","","resp_prompt","","","","","","","","","","","","","","","",""
"categorize-image","224","494519","0.0-4.0-1.0-1.34","q0w9p4xtd82kg96","prime","5ee0f94d12ce930c1ab1d574","5f60e3c0a3b16e07647b2ff9","5f60eec8609af401bac75e0b","true","553.3750000176951","./Stimuli/SelectedImages/LN/LN177.bmp","76","","","","test","true","M + N","76","repetition","LN","LN177.bmp","forget","","83","3","prime1","right","","","",""
"html-keyboard-response","225","496523","0.0-4.0-1.0-3.34","q0w9p4xtd82kg96","prime","5ee0f94d12ce930c1ab1d574","5f60e3c0a3b16e07647b2ff9","5f60eec8609af401bac75e0b","false","null","<div style=""align-items: center; display: flex; color: darkorange; font-size: 90px""><b>ø</b></div>","null","","","","forget_cue","","","","","","","","","","","","","","","",""
"html-keyboard-response","226","497227","0.0-4.0-1.0-0.35","q0w9p4xtd82kg96","prime","5ee0f94d12ce930c1ab1d574","5f60e3c0a3b16e07647b2ff9","5f60eec8609af401bac75e0b","false","null","<span style=""color: black; font-size: 48px"">N + M</span>","null","","","","resp_prompt","","","","","","","","","","","","","","","",""
"categorize-image","227","497816","0.0-4.0-1.0-1.35","q0w9p4xtd82kg96","prime","5ee0f94d12ce930c1ab1d574","5f60e3c0a3b16e07647b2ff9","5f60eec8609af401bac75e0b","true","582.1900000446476","./Stimuli/SelectedImages/LN/LN28.bmp","83","","","","test","true","N + M","83","repetition","LN","LN28.bmp","forget","","84","3","prime1","left","","","",""
"html-keyboard-response","228","499824","0.0-4.0-1.0-3.35","q0w9p4xtd82kg96","prime","5ee0f94d12ce930c1ab1d574","5f60e3c0a3b16e07647b2ff9","5f60eec8609af401bac75e0b","false","null","<div style=""align-items: center; display: flex; color: darkorange; font-size: 90px""><b>ø</b></div>","null","","","","forget_cue","","","","","","","","","","","","","","","",""
"html-keyboard-response","229","500535","0.0-4.0-1.0-0.36","q0w9p4xtd82kg96","prime","5ee0f94d12ce930c1ab1d574","5f60e3c0a3b16e07647b2ff9","5f60eec8609af401bac75e0b","false","null","<span style=""color: black; font-size: 48px"">N + M</span>","null","","","","resp_prompt","","","","","","","","","","","","","","","",""
"categorize-image","230","501125","0.0-4.0-1.0-1.36","q0w9p4xtd82kg96","prime","5ee0f94d12ce930c1ab1d574","5f60e3c0a3b16e07647b2ff9","5f60eec8609af401bac75e0b","true","584.6650000312366","./Stimuli/SelectedImages/LN/LN12.bmp","83","","","","test","true","N + M","83","switch","LN","LN12.bmp","forget","","85","3","prime1","left","","","",""
"html-keyboard-response","231","503139","0.0-4.0-1.0-3.36","q0w9p4xtd82kg96","prime","5ee0f94d12ce930c1ab1d574","5f60e3c0a3b16e07647b2ff9","5f60eec8609af401bac75e0b","false","null","<div style=""align-items: center; display: flex; color: darkorange; font-size: 90px""><b>ø</b></div>","null","","","","forget_cue","","","","","","","","","","","","","","","",""
"html-keyboard-response","232","503859","0.0-4.0-1.0-0.37","q0w9p4xtd82kg96","prime","5ee0f94d12ce930c1ab1d574","5f60e3c0a3b16e07647b2ff9","5f60eec8609af401bac75e0b","false","null","<span style=""color: black; font-size: 48px"">N + M</span>","null","","","","resp_prompt","","","","","","","","","","","","","","","",""
"categorize-image","233","504653","0.0-4.0-1.0-1.37","q0w9p4xtd82kg96","prime","5ee0f94d12ce930c1ab1d574","5f60e3c0a3b16e07647b2ff9","5f60eec8609af401bac75e0b","true","787.6549999928102","./Stimuli/SelectedImages/SM/SM74.bmp","76","","","","test","true","N + M","76","switch","SM","SM74.bmp","remember","","86","3","prime1","right","","","",""
"html-keyboard-response","234","506657","0.0-4.0-1.0-3.37","q0w9p4xtd82kg96","prime","5ee0f94d12ce930c1ab1d574","5f60e3c0a3b16e07647b2ff9","5f60eec8609af401bac75e0b","false","null","<div style=""align-items: center; display: flex; color: dodgerblue; font-size: 90px""><b>o</b></div>","null","","","","forget_cue","","","","","","","","","","","","","","","",""
"html-keyboard-response","235","507361","0.0-4.0-1.0-0.38","q0w9p4xtd82kg96","prime","5ee0f94d12ce930c1ab1d574","5f60e3c0a3b16e07647b2ff9","5f60eec8609af401bac75e0b","false","null","<span style=""color: black; font-size: 48px"">M + N</span>","null","","","","resp_prompt","","","","","","","","","","","","","","","",""
"categorize-image","236","507879","0.0-4.0-1.0-1.38","q0w9p4xtd82kg96","prime","5ee0f94d12ce930c1ab1d574","5f60e3c0a3b16e07647b2ff9","5f60eec8609af401bac75e0b","true","511.1850000103004","./Stimuli/SelectedImages/SM/SM207.bmp","83","","","","test","true","M + N","83","switch","SM","SM207.bmp","remember","","87","3","prime1","left","","","",""
"html-keyboard-response","237","509895","0.0-4.0-1.0-3.38","q0w9p4xtd82kg96","prime","5ee0f94d12ce930c1ab1d574","5f60e3c0a3b16e07647b2ff9","5f60eec8609af401bac75e0b","false","null","<div style=""align-items: center; display: flex; color: dodgerblue; font-size: 90px""><b>o</b></div>","null","","","","forget_cue","","","","","","","","","","","","","","","",""
"html-keyboard-response","238","510600","0.0-4.0-1.0-0.39","q0w9p4xtd82kg96","prime","5ee0f94d12ce930c1ab1d574","5f60e3c0a3b16e07647b2ff9","5f60eec8609af401bac75e0b","false","null","<span style=""color: black; font-size: 48px"">M + N</span>","null","","","","resp_prompt","","","","","","","","","","","","","","","",""
"categorize-image","239","511119","0.0-4.0-1.0-1.39","q0w9p4xtd82kg96","prime","5ee0f94d12ce930c1ab1d574","5f60e3c0a3b16e07647b2ff9","5f60eec8609af401bac75e0b","true","513.0699999863282","./Stimuli/SelectedImages/SN/SN49.bmp","76","","","","test","true","M + N","76","switch","SN","SN49.bmp","remember","","88","3","prime1","right","","","",""
"html-keyboard-response","240","513131","0.0-4.0-1.0-3.39","q0w9p4xtd82kg96","prime","5ee0f94d12ce930c1ab1d574","5f60e3c0a3b16e07647b2ff9","5f60eec8609af401bac75e0b","false","null","<div style=""align-items: center; display: flex; color: dodgerblue; font-size: 90px""><b>o</b></div>","null","","","","forget_cue","","","","","","","","","","","","","","","",""
"html-keyboard-response","241","513849","0.0-4.0-1.0-0.40","q0w9p4xtd82kg96","prime","5ee0f94d12ce930c1ab1d574","5f60e3c0a3b16e07647b2ff9","5f60eec8609af401bac75e0b","false","null","<span style=""color: black; font-size: 48px"">M + N</span>","null","","","","resp_prompt","","","","","","","","","","","","","","","",""
"categorize-image","242","514412","0.0-4.0-1.0-1.40","q0w9p4xtd82kg96","prime","5ee0f94d12ce930c1ab1d574","5f60e3c0a3b16e07647b2ff9","5f60eec8609af401bac75e0b","true","556.4800000283867","./Stimuli/SelectedImages/LN/LN59.bmp","76","","","","test","true","M + N","76","repetition","LN","LN59.bmp","remember","","89","3","prime1","right","","","",""
"html-keyboard-response","243","516416","0.0-4.0-1.0-3.40","q0w9p4xtd82kg96","prime","5ee0f94d12ce930c1ab1d574","5f60e3c0a3b16e07647b2ff9","5f60eec8609af401bac75e0b","false","null","<div style=""align-items: center; display: flex; color: dodgerblue; font-size: 90px""><b>o</b></div>","null","","","","forget_cue","","","","","","","","","","","","","","","",""
"html-keyboard-response","244","517120","0.0-4.0-1.0-0.41","q0w9p4xtd82kg96","prime","5ee0f94d12ce930c1ab1d574","5f60e3c0a3b16e07647b2ff9","5f60eec8609af401bac75e0b","false","null","<span style=""color: black; font-size: 48px"">M + N</span>","null","","","","resp_prompt","","","","","","","","","","","","","","","",""
"categorize-image","245","517602","0.0-4.0-1.0-1.41","q0w9p4xtd82kg96","prime","5ee0f94d12ce930c1ab1d574","5f60e3c0a3b16e07647b2ff9","5f60eec8609af401bac75e0b","true","476.77499998826534","./Stimuli/SelectedImages/SN/SN27.bmp","76","","","","test","true","M + N","76","switch","SN","SN27.bmp","remember","","90","3","prime1","right","","","",""
"html-keyboard-response","246","519607","0.0-4.0-1.0-3.41","q0w9p4xtd82kg96","prime","5ee0f94d12ce930c1ab1d574","5f60e3c0a3b16e07647b2ff9","5f60eec8609af401bac75e0b","false","null","<div style=""align-items: center; display: flex; color: dodgerblue; font-size: 90px""><b>o</b></div>","null","","","","forget_cue","","","","","","","","","","","","","","","",""
"html-keyboard-response","247","520310","0.0-4.0-1.0-0.42","q0w9p4xtd82kg96","prime","5ee0f94d12ce930c1ab1d574","5f60e3c0a3b16e07647b2ff9","5f60eec8609af401bac75e0b","false","null","<span style=""color: black; font-size: 48px"">M + N</span>","null","","","","resp_prompt","","","","","","","","","","","","","","","",""
"categorize-image","248","521012","0.0-4.0-1.0-1.42","q0w9p4xtd82kg96","prime","5ee0f94d12ce930c1ab1d574","5f60e3c0a3b16e07647b2ff9","5f60eec8609af401bac75e0b","true","695.609999995213","./Stimuli/SelectedImages/LM/LM167.bmp","83","","","","test","true","M + N","83","repetition","LM","LM167.bmp","forget","","91","3","prime1","left","","","",""
"html-keyboard-response","249","523017","0.0-4.0-1.0-3.42","q0w9p4xtd82kg96","prime","5ee0f94d12ce930c1ab1d574","5f60e3c0a3b16e07647b2ff9","5f60eec8609af401bac75e0b","false","null","<div style=""align-items: center; display: flex; color: darkorange; font-size: 90px""><b>ø</b></div>","null","","","","forget_cue","","","","","","","","","","","","","","","",""
"html-keyboard-response","250","523734","0.0-4.0-1.0-0.43","q0w9p4xtd82kg96","prime","5ee0f94d12ce930c1ab1d574","5f60e3c0a3b16e07647b2ff9","5f60eec8609af401bac75e0b","false","null","<span style=""color: black; font-size: 48px"">M + N</span>","null","","","","resp_prompt","","","","","","","","","","","","","","","",""
"categorize-image","251","524249","0.0-4.0-1.0-1.43","q0w9p4xtd82kg96","prime","5ee0f94d12ce930c1ab1d574","5f60e3c0a3b16e07647b2ff9","5f60eec8609af401bac75e0b","true","508.1149999750778","./Stimuli/SelectedImages/LM/LM100.bmp","83","","","","test","true","M + N","83","switch","LM","LM100.bmp","forget","","92","3","prime1","left","","","",""
"html-keyboard-response","252","526253","0.0-4.0-1.0-3.43","q0w9p4xtd82kg96","prime","5ee0f94d12ce930c1ab1d574","5f60e3c0a3b16e07647b2ff9","5f60eec8609af401bac75e0b","false","null","<div style=""align-items: center; display: flex; color: darkorange; font-size: 90px""><b>ø</b></div>","null","","","","forget_cue","","","","","","","","","","","","","","","",""
