"trial_type","trial_index","time_elapsed","internal_node_id","subject","exp_part","prolific_PID","study_ID","session_ID","use","rt","stimulus","key_press","button_pressed","responses","question_order","trial_part","correct","resp_map","correct_resp","probe_condition","category","image","forget_condition","list","trial_num","block_num","block","response","test_part","n_span","sequence","num_spaces"
"pavlovia","0","19","0.0-0.0","9gy7x3xgtfr9srf","","5cb5d3d9bc68400001075adb","5f60e3c0a3b16e07647b2ff9","5f60ebc5da8043011a25ddce","false","","","","","","","","","","","","","","","","","","","","","","",""
"html-keyboard-response","1","8133","0.0-1.0-0.0-0.0","9gy7x3xgtfr9srf","welcome","5cb5d3d9bc68400001075adb","5f60e3c0a3b16e07647b2ff9","5f60ebc5da8043011a25ddce","false","8107.244999999239","<div align=left>Dear participant, <br> thank you for participating in an online study of the Cognition, Action, and Sustainability Unit of the University of Freiburg! <br> <br>The aim of this study is to examine our ability to remember previously learned information. <br>Our goal is to find out, whether our memory improves, when we only remember information that is relevant to us. <br>The experiment will take about 35 minutes to complete. <br> <br>Please, note that you can only participate in this study if you are using a device with a keyboard (PC, Laptop etc.) <br>and not if you are using a mobile device such as a tablet or smartphone.<br> <br>Press 'SPACE' to proceed to the experiment. </div>","32","","","","","","","","","","","","","","","","","","","",""
"html-keyboard-response","2","16283","0.0-1.0-0.0-1.0","9gy7x3xgtfr9srf","welcome","5cb5d3d9bc68400001075adb","5f60e3c0a3b16e07647b2ff9","5f60ebc5da8043011a25ddce","false","8144.175000001269","<div align=left><strong> Time Course of this experiment: </strong> <br><br> <strong> 1.</strong>  First, please fill in some information regarding your demographic data. <br><br> <strong> 2.</strong>  Next, your task will be to classify everyday objects. <br>In addition, you will be asked to remember certain objects and recall them later. <br>Working on these tasks requires your undivided attention and concentration.<br>It is therefore essential that you eliminate any sources of distraction in your  <br>environment and ensure that you will not be disturbed. <br><br><strong> 3.</strong>  At the end of the experiment, you will be asked to answer a few additional questions. <br> <br><strong> Important:</strong> After finishing the experiment, only close the browser window <br> by clicking on the 'end the experiment'-button when you are asked to do so. <br>Closing the browser window prematurely will make the allocation of your participation credit impossible. <br><br> Press 'SPACE' to start the experiment. </div>","32","","","","","","","","","","","","","","","","","","","",""
"html-button-response","3","19426","0.0-1.0-0.0-2.0","9gy7x3xgtfr9srf","welcome","5cb5d3d9bc68400001075adb","5f60e3c0a3b16e07647b2ff9","5f60ebc5da8043011a25ddce","true","3136.3749999982247","<div align=left><strong> Informed consent </strong>  <br>The aim of our research is to better understand human behavior and mental processes. <br>In the following study your behavior (e.g. choices, reaction times) will be studied. <br> <br><strong> Voluntariness and Anonymity </strong> <br>Your participation in this study is  <strong> voluntary</strong>.<br>You may withdraw your consent to participate at any time without providing a reason for doing so and without fear of prejudice. <br><br>As no personal data will be collected, <strong>your data and your person cannot be connected after data collection</strong> – the data-set is anonymous. <br>Respectively, deletion of your data will not be possible after data collection has been completed, as we cannot retrace your data-set.<br>The results and anonymized data collected in this study will be published as a scientific publication. <br>This will happen in an <strong>anonymized format</strong>, so that no data can be traced back to a specific person. <br> <br>The anonymized data of this study will be made available to other researchers and/or in a data archive on the Internet as a means of transparency and to enable subsequent re-use. By doing so, this study follows the recommendations of the Deutsche Forschungsgemeinschaft (DFG, German Research Foundation) and Deutsche Gesellschaft für Psychologie (DGPS, German Psychological Society) regarding quality assurance in research.<br>If you have any questions now or after the experiment, please contact our team (experiments@cs.uni-freiburg.de).<br><br><br>I hereby declare, that I understand the above described conditions of participation and I agree to participate under these conditions. <br><br> </div>","","0","","","","","","","","","","","","","","","","","","",""
"html-keyboard-response","4","28405","0.0-1.0-0.0-3.0","9gy7x3xgtfr9srf","welcome","5cb5d3d9bc68400001075adb","5f60e3c0a3b16e07647b2ff9","5f60ebc5da8043011a25ddce","false","8974.624999998923","<div align=left><strong> General information concerning the experiment </strong>  <br> <br>Please follow the instructions:<ol> <li><strong> Do not leave this tab (your browser window) during the experiment and do not reload this tab! </strong>  <br>If you do switch tabs/windows during the experiment (to check your mail or visit another website, for example), <br>the experiment will end automatically and you will <strong>not receive credit</strong> for your participation. <br>Repeated participation or resumption of the experiment is impossible.</li> <br><li>Please close all other programs for the duration of your participation. </li> <br><li>Please mute or turn off your phone and put it out of your reach. </li> <br><li>Please also take off any disturbing accessories (such as wristwatches, bracelets, etc.). </li> <br><li>If you have music playing in the background, please turn it off now. </li> <br></ol>Thank you! <br>Press 'SPACE' to continue. </div>","32","","","","","","","","","","","","","","","","","","","",""
"survey-text","5","32677","0.0-1.0-1.0-0.0","9gy7x3xgtfr9srf","demographics","5cb5d3d9bc68400001075adb","5f60e3c0a3b16e07647b2ff9","5f60ebc5da8043011a25ddce","true","4257.770000000164","","","","{""age"":""20 ""}","","","","","","","","","","","","","","","","","",""
"survey-multi-choice","6","44375","0.0-1.0-1.0-1.0","9gy7x3xgtfr9srf","demographics","5cb5d3d9bc68400001075adb","5f60e3c0a3b16e07647b2ff9","5f60ebc5da8043011a25ddce","true","11688.374999997905","","","","{""gender"":""female"",""school"":""high school"",""education"":""Still in training/ university""}","[0,1,2]","","","","","","","","","","","","","","","","",""
"survey-text","7","51328","0.0-1.0-1.0-2.0-0.0","9gy7x3xgtfr9srf","demographics","5cb5d3d9bc68400001075adb","5f60e3c0a3b16e07647b2ff9","5f60ebc5da8043011a25ddce","true","6911.384999999427","","","","{""education_text"":""BA American Studies""}","","","","","","","","","","","","","","","","","",""
"html-keyboard-response","8","61589","0.0-1.0-2.0","9gy7x3xgtfr9srf","instructions","5cb5d3d9bc68400001075adb","5f60e3c0a3b16e07647b2ff9","5f60ebc5da8043011a25ddce","false","10256.949999999051","<div align=left> The experiment is now about to start: <br> <br>In the following part, you will be presented pictures of everyday objects. <br>Your first task is to <strong>classify these objects. </strong> <br> <br> You will classify them either as mechanical or non-mechanical objects. <br> <br>Objects that include any kind of technical mechanism (for example, wheels, switches, levers, <br> electronic components) fall under the category of <strong>mechanical</strong> objects. <br>Only objects without any kind of technical mechanism should be classified as <strong>non-mechanical</strong>. <br><br>Press 'SPACE' to continue. </div>","32","","","","","","","","","","","","","","","","","","","",""
"html-keyboard-response","9","87482","0.0-2.0-0.0","9gy7x3xgtfr9srf","instructions","5cb5d3d9bc68400001075adb","5f60e3c0a3b16e07647b2ff9","5f60ebc5da8043011a25ddce","false","25888.920000001235","<div align=justify>You will classify the objects using the <strong>'S'</strong> and the <strong>'L'</strong> keys on your keyboard.<br>For doing so, please place your <strong>left index finger</strong> on the <strong>'S'</strong> key and place your <strong>right index finger</strong> on the <strong>'L'</strong> key. <br><br> Each trial starts with an instruction, indicating which key ('S'/'L') you need to press to classify <br>the object as mechanical (letter M) or non-mechanical (letter N).<br>The instruction <strong>M + N</strong> indicates that, in the current trial, by pressing the left key ('S') you classify the displayed object as mechanical (M) <br> and by pressing the right key ('L') you classify the object as non-mechanical (N). <br>The instruction <strong>N + M</strong> on the other hand indicates that by pressing the left key ('S') you classify the displayed object as non-mechanical (N) <br> and by pressing the right key ('L') you classify the object as mechanical (M). <br><br>Please press the key corresponding to the correct classification as fast as possible as soon as the object is displayed and try to avoid making mistakes.<br>If you do not respond within a 2 second window, a corresponding feedback will be displayed and the next trial will start.<br> The experiment is divided into multiple blocks to give you the opportunity to take a break after each block. <br>First, you can now practice this task. <br><br>Please place your <strong>LEFT INDEX FINGER</strong> on the 'S' key and your <strong>RIGHT INDEX FINGER</strong> on the 'L' key now. <br><br>Press SPACE to continue.</div>","32","","","","","","","","","","","","","","","","","","","",""
"html-keyboard-response","10","90169","0.0-2.0-1.0","9gy7x3xgtfr9srf","instructions","5cb5d3d9bc68400001075adb","5f60e3c0a3b16e07647b2ff9","5f60ebc5da8043011a25ddce","false","2683.870000000752","<div align=left> You will now have time to practice this task.<br><br>Remember: <br> <br><li>Please place your index fingers on the <strong>'S'</strong> and <strong>'L'</strong> keys <br>to respond as fast and accurately as possible.</li><li>Every picture can be classified as either mechanical or non-mechanical.</li><li>If you do not respond in time or commit an error, you will receive a corresponding feedback. </li><li> Please try to respond as <strong> fast </strong> and as <strong> accurately as possible </strong> .<br><li>To ensure optimal results, please minimize distractions and stay focused. </li><br><br>Press SPACE to continue.</div>","32","","","","","","","","","","","","","","","","","","","",""
"html-keyboard-response","11","90877","0.0-2.0-2.0-0.0","9gy7x3xgtfr9srf","practice_no_cue","5cb5d3d9bc68400001075adb","5f60e3c0a3b16e07647b2ff9","5f60ebc5da8043011a25ddce","false","null","<span style=""color: black; font-size: 48px"">N + M</span>","null","","","","resp_prompt","","","","","","","","","","","","","","","",""
"categorize-image","12","93389","0.0-2.0-2.0-1.0","9gy7x3xgtfr9srf","practice_no_cue","5cb5d3d9bc68400001075adb","5f60e3c0a3b16e07647b2ff9","5f60ebc5da8043011a25ddce","true","null","./Stimuli/ImagesPractice/LN2.jpg","null","","","","test","false","N + M","83","","LN","LN2.jpg","forget","old","1","1","start","too_slow","","","",""
"html-keyboard-response","13","94093","0.0-2.0-2.0-0.1","9gy7x3xgtfr9srf","practice_no_cue","5cb5d3d9bc68400001075adb","5f60e3c0a3b16e07647b2ff9","5f60ebc5da8043011a25ddce","false","null","<span style=""color: black; font-size: 48px"">M + N</span>","null","","","","resp_prompt","","","","","","","","","","","","","","","",""
"categorize-image","14","95915","0.0-2.0-2.0-1.1","9gy7x3xgtfr9srf","practice_no_cue","5cb5d3d9bc68400001075adb","5f60e3c0a3b16e07647b2ff9","5f60ebc5da8043011a25ddce","true","1316.7800000010175","./Stimuli/ImagesPractice/LN4.jpg","76","","","","test","true","M + N","76","","LN","LN4.jpg","remember","old","2","1","start","right","","","",""
"html-keyboard-response","15","96619","0.0-2.0-2.0-0.2","9gy7x3xgtfr9srf","practice_no_cue","5cb5d3d9bc68400001075adb","5f60e3c0a3b16e07647b2ff9","5f60ebc5da8043011a25ddce","false","null","<span style=""color: black; font-size: 48px"">M + N</span>","null","","","","resp_prompt","","","","","","","","","","","","","","","",""
"categorize-image","16","98746","0.0-2.0-2.0-1.2","9gy7x3xgtfr9srf","practice_no_cue","5cb5d3d9bc68400001075adb","5f60e3c0a3b16e07647b2ff9","5f60ebc5da8043011a25ddce","true","1622.3600000012084","./Stimuli/ImagesPractice/LM147.jpg","83","","","","test","true","M + N","83","","LM","LM147.jpg","forget","old","3","1","start","left","","","",""
"html-keyboard-response","17","99450","0.0-2.0-2.0-0.3","9gy7x3xgtfr9srf","practice_no_cue","5cb5d3d9bc68400001075adb","5f60e3c0a3b16e07647b2ff9","5f60ebc5da8043011a25ddce","false","null","<span style=""color: black; font-size: 48px"">M + N</span>","null","","","","resp_prompt","","","","","","","","","","","","","","","",""
"categorize-image","18","100550","0.0-2.0-2.0-1.3","9gy7x3xgtfr9srf","practice_no_cue","5cb5d3d9bc68400001075adb","5f60e3c0a3b16e07647b2ff9","5f60ebc5da8043011a25ddce","true","594.134999999369","./Stimuli/ImagesPractice/SN222.jpg","76","","","","test","true","M + N","76","","SN","SN222.jpg","forget","old","4","1","start","right","","","",""
"html-keyboard-response","19","101253","0.0-2.0-2.0-0.4","9gy7x3xgtfr9srf","practice_no_cue","5cb5d3d9bc68400001075adb","5f60e3c0a3b16e07647b2ff9","5f60ebc5da8043011a25ddce","false","null","<span style=""color: black; font-size: 48px"">N + M</span>","null","","","","resp_prompt","","","","","","","","","","","","","","","",""
"categorize-image","20","102498","0.0-2.0-2.0-1.4","9gy7x3xgtfr9srf","practice_no_cue","5cb5d3d9bc68400001075adb","5f60e3c0a3b16e07647b2ff9","5f60ebc5da8043011a25ddce","true","739.9199999999837","./Stimuli/ImagesPractice/LM224.jpg","76","","","","test","true","N + M","76","","LM","LM224.jpg","remember","old","5","1","start","right","","","",""
"html-keyboard-response","21","103201","0.0-2.0-2.0-0.5","9gy7x3xgtfr9srf","practice_no_cue","5cb5d3d9bc68400001075adb","5f60e3c0a3b16e07647b2ff9","5f60ebc5da8043011a25ddce","false","null","<span style=""color: black; font-size: 48px"">M + N</span>","null","","","","resp_prompt","","","","","","","","","","","","","","","",""
"categorize-image","22","104539","0.0-2.0-2.0-1.5","9gy7x3xgtfr9srf","practice_no_cue","5cb5d3d9bc68400001075adb","5f60e3c0a3b16e07647b2ff9","5f60ebc5da8043011a25ddce","true","832.1749999995518","./Stimuli/ImagesPractice/SN220.jpg","83","","","","test","false","M + N","76","","SN","SN220.jpg","remember","old","6","1","start","left","","","",""
"html-keyboard-response","23","105241","0.0-2.0-2.0-0.6","9gy7x3xgtfr9srf","practice_no_cue","5cb5d3d9bc68400001075adb","5f60e3c0a3b16e07647b2ff9","5f60ebc5da8043011a25ddce","false","null","<span style=""color: black; font-size: 48px"">N + M</span>","null","","","","resp_prompt","","","","","","","","","","","","","","","",""
"categorize-image","24","106887","0.0-2.0-2.0-1.6","9gy7x3xgtfr9srf","practice_no_cue","5cb5d3d9bc68400001075adb","5f60e3c0a3b16e07647b2ff9","5f60ebc5da8043011a25ddce","true","1140.610000002198","./Stimuli/ImagesPractice/LM230.jpg","76","","","","test","true","N + M","76","","LM","LM230.jpg","remember","old","7","1","start","right","","","",""
"html-keyboard-response","25","107591","0.0-2.0-2.0-0.7","9gy7x3xgtfr9srf","practice_no_cue","5cb5d3d9bc68400001075adb","5f60e3c0a3b16e07647b2ff9","5f60ebc5da8043011a25ddce","false","null","<span style=""color: black; font-size: 48px"">M + N</span>","null","","","","resp_prompt","","","","","","","","","","","","","","","",""
"categorize-image","26","109085","0.0-2.0-2.0-1.7","9gy7x3xgtfr9srf","practice_no_cue","5cb5d3d9bc68400001075adb","5f60e3c0a3b16e07647b2ff9","5f60ebc5da8043011a25ddce","true","987.1899999998277","./Stimuli/ImagesPractice/LN72.jpg","83","","","","test","false","M + N","76","","LN","LN72.jpg","remember","old","8","1","start","left","","","",""
"html-keyboard-response","27","109788","0.0-2.0-2.0-0.8","9gy7x3xgtfr9srf","practice_no_cue","5cb5d3d9bc68400001075adb","5f60e3c0a3b16e07647b2ff9","5f60ebc5da8043011a25ddce","false","null","<span style=""color: black; font-size: 48px"">M + N</span>","null","","","","resp_prompt","","","","","","","","","","","","","","","",""
"categorize-image","28","111449","0.0-2.0-2.0-1.8","9gy7x3xgtfr9srf","practice_no_cue","5cb5d3d9bc68400001075adb","5f60e3c0a3b16e07647b2ff9","5f60ebc5da8043011a25ddce","true","1155.9800000031828","./Stimuli/ImagesPractice/SM62.jpg","76","","","","test","false","M + N","83","","SM","SM62.jpg","forget","old","9","1","start","right","","","",""
"html-keyboard-response","29","112152","0.0-2.0-2.0-0.9","9gy7x3xgtfr9srf","practice_no_cue","5cb5d3d9bc68400001075adb","5f60e3c0a3b16e07647b2ff9","5f60ebc5da8043011a25ddce","false","null","<span style=""color: black; font-size: 48px"">N + M</span>","null","","","","resp_prompt","","","","","","","","","","","","","","","",""
"categorize-image","30","114035","0.0-2.0-2.0-1.9","9gy7x3xgtfr9srf","practice_no_cue","5cb5d3d9bc68400001075adb","5f60e3c0a3b16e07647b2ff9","5f60ebc5da8043011a25ddce","true","1376.9350000002305","./Stimuli/ImagesPractice/LN15.jpg","76","","","","test","false","N + M","83","","LN","LN15.jpg","forget","old","10","1","start","right","","","",""
"html-keyboard-response","31","114738","0.0-2.0-2.0-0.10","9gy7x3xgtfr9srf","practice_no_cue","5cb5d3d9bc68400001075adb","5f60e3c0a3b16e07647b2ff9","5f60ebc5da8043011a25ddce","false","null","<span style=""color: black; font-size: 48px"">N + M</span>","null","","","","resp_prompt","","","","","","","","","","","","","","","",""
"categorize-image","32","116439","0.0-2.0-2.0-1.10","9gy7x3xgtfr9srf","practice_no_cue","5cb5d3d9bc68400001075adb","5f60e3c0a3b16e07647b2ff9","5f60ebc5da8043011a25ddce","true","1197.1149999990303","./Stimuli/ImagesPractice/SM35.jpg","76","","","","test","true","N + M","76","","SM","SM35.jpg","remember","old","11","1","start","right","","","",""
"html-keyboard-response","33","117142","0.0-2.0-2.0-0.11","9gy7x3xgtfr9srf","practice_no_cue","5cb5d3d9bc68400001075adb","5f60e3c0a3b16e07647b2ff9","5f60ebc5da8043011a25ddce","false","null","<span style=""color: black; font-size: 48px"">M + N</span>","null","","","","resp_prompt","","","","","","","","","","","","","","","",""
"categorize-image","34","118976","0.0-2.0-2.0-1.11","9gy7x3xgtfr9srf","practice_no_cue","5cb5d3d9bc68400001075adb","5f60e3c0a3b16e07647b2ff9","5f60ebc5da8043011a25ddce","true","1326.5150000006543","./Stimuli/ImagesPractice/LN17.jpg","83","","","","test","false","M + N","76","","LN","LN17.jpg","remember","old","12","1","start","left","","","",""
"html-keyboard-response","35","119679","0.0-2.0-2.0-0.12","9gy7x3xgtfr9srf","practice_no_cue","5cb5d3d9bc68400001075adb","5f60e3c0a3b16e07647b2ff9","5f60ebc5da8043011a25ddce","false","null","<span style=""color: black; font-size: 48px"">N + M</span>","null","","","","resp_prompt","","","","","","","","","","","","","","","",""
"categorize-image","36","121710","0.0-2.0-2.0-1.12","9gy7x3xgtfr9srf","practice_no_cue","5cb5d3d9bc68400001075adb","5f60e3c0a3b16e07647b2ff9","5f60ebc5da8043011a25ddce","true","1525.5099999994854","./Stimuli/ImagesPractice/SN76.jpg","83","","","","test","true","N + M","83","","SN","SN76.jpg","forget","old","13","1","start","left","","","",""
"html-keyboard-response","37","122414","0.0-2.0-2.0-0.13","9gy7x3xgtfr9srf","practice_no_cue","5cb5d3d9bc68400001075adb","5f60e3c0a3b16e07647b2ff9","5f60ebc5da8043011a25ddce","false","null","<span style=""color: black; font-size: 48px"">N + M</span>","null","","","","resp_prompt","","","","","","","","","","","","","","","",""
"categorize-image","38","124922","0.0-2.0-2.0-1.13","9gy7x3xgtfr9srf","practice_no_cue","5cb5d3d9bc68400001075adb","5f60e3c0a3b16e07647b2ff9","5f60ebc5da8043011a25ddce","true","null","./Stimuli/ImagesPractice/SM37.jpg","null","","","","test","false","N + M","76","","SM","SM37.jpg","remember","old","14","1","start","too_slow","","","",""
"html-keyboard-response","39","125626","0.0-2.0-2.0-0.14","9gy7x3xgtfr9srf","practice_no_cue","5cb5d3d9bc68400001075adb","5f60e3c0a3b16e07647b2ff9","5f60ebc5da8043011a25ddce","false","null","<span style=""color: black; font-size: 48px"">N + M</span>","null","","","","resp_prompt","","","","","","","","","","","","","","","",""
"categorize-image","40","127551","0.0-2.0-2.0-1.14","9gy7x3xgtfr9srf","practice_no_cue","5cb5d3d9bc68400001075adb","5f60e3c0a3b16e07647b2ff9","5f60ebc5da8043011a25ddce","true","1419.0400000006775","./Stimuli/ImagesPractice/LM55.jpg","76","","","","test","true","N + M","76","","LM","LM55.jpg","forget","old","15","1","start","right","","","",""
"html-keyboard-response","41","128255","0.0-2.0-2.0-0.15","9gy7x3xgtfr9srf","practice_no_cue","5cb5d3d9bc68400001075adb","5f60e3c0a3b16e07647b2ff9","5f60ebc5da8043011a25ddce","false","null","<span style=""color: black; font-size: 48px"">M + N</span>","null","","","","resp_prompt","","","","","","","","","","","","","","","",""
"categorize-image","42","129564","0.0-2.0-2.0-1.15","9gy7x3xgtfr9srf","practice_no_cue","5cb5d3d9bc68400001075adb","5f60e3c0a3b16e07647b2ff9","5f60ebc5da8043011a25ddce","true","803.3599999980652","./Stimuli/ImagesPractice/SM98.jpg","83","","","","test","true","M + N","83","","SM","SM98.jpg","forget","old","16","1","start","left","","","",""
"html-keyboard-response","43","133433","0.0-2.0-3.0","9gy7x3xgtfr9srf","break","5cb5d3d9bc68400001075adb","5f60e3c0a3b16e07647b2ff9","5f60ebc5da8043011a25ddce","false","3863.4449999990466","<p style='font-size: 32px;'>Break</><br><br><br><br><br><p style='font-size: 24px;'>In the last block, you committed 5 errors and did not respond in time on 2 trials.
</p><p style='font-size: 24px;'>Try to respond as fast and accurately as possible in the next block as well! </p><p style='font-size: 24px;'>Press SPACE to continue.</p>","32","","","","","","","","","","","","","","","","","","","",""
"html-keyboard-response","44","135528","0.0-2.0-4.0","9gy7x3xgtfr9srf","instructions","5cb5d3d9bc68400001075adb","5f60e3c0a3b16e07647b2ff9","5f60ebc5da8043011a25ddce","false","2091.6350000006787","<div align=left> Great!<br><br>Are you ready to continue?<br><br>If you want to reread the instructions and redo the practice trials, <br>please press „Z“. <br><br>Press SPACE to CONTINUE with the experiment when you are ready. </div>","32","","","","","","","","","","","","","","","","","","","",""
"html-keyboard-response","45","144734","0.0-3.0-0.0","9gy7x3xgtfr9srf","instructions","5cb5d3d9bc68400001075adb","5f60e3c0a3b16e07647b2ff9","5f60ebc5da8043011a25ddce","false","9201.80000000255","<div align=left>Great!<br> <strong>Attention</strong>! You will now receive a second, additional task! <br><br>To this point it was you <strong>first task</strong> to correctly <strong>classify objects</strong>. <br><br>As mentioned in the beginning, we aim to examine how well humans can remember previously learned information.<br>We would like to find out whether our memory improves if we only remember information that is relevant to us. <br><br>Therefore, your <strong>second task</strong> will be to <strong>remember</strong> the pictures you are to categorize. <br> After the learning phase, there will be a memory test phase, in which you will be asked to indicate whether you have seen a picture before or not. <br>Some, but not all pictures shown in the learning phase will appear in the memory test phase.<br>After classifying a picture, you will be told whether you should remember it for the memory test phase or not. <br>Thus, some pictures can be forgotten, whereas others have to be remembered. <br><br>Note: From now on, feedback will only be displayed if you responded incorrectly or not in time.<br><br>Press SPACE to continue.</div>","32","","","","","","","","","","","","","","","","","","","",""
"html-keyboard-response","46","151583","0.0-3.0-1.0","9gy7x3xgtfr9srf","instructions","5cb5d3d9bc68400001075adb","5f60e3c0a3b16e07647b2ff9","5f60ebc5da8043011a25ddce","false","6846.03000000061","<div align=left>In the following part, you will thus have to remember only some pictures. <br>Immediately after seeing and classifying the picture, a symbol will be displayed, indicating whether you should remember or forget the previous picture. <br><br>A <span style='color: dodgerblue; font-size: 28px'>O</span> indicates REMEMBER. That means, you have to remember this picture, because it will be tested later. <br><br>A <span style='color: darkorange; font-size:28px'>Ø</span> indicates FORGET. You do not have to remember this picture. <br><br> As you will have to remember a lot of pictures, it will be hard for you to remember all of them. <br>It will put you at an advantage if you instantly forget the pictures you are not asked to remember. <br> This will make it easier for you to remember the pictures that will be tested afterwards. <br><br>Press SPACE to continue.</div>","32","","","","","","","","","","","","","","","","","","","",""
"html-keyboard-response","47","157789","0.0-3.0-2.0","9gy7x3xgtfr9srf","instructions","5cb5d3d9bc68400001075adb","5f60e3c0a3b16e07647b2ff9","5f60ebc5da8043011a25ddce","false","6202.679999998509","<div align=left> Now you have the chance to practice both tasks together.<br><br>Remember: <br> <br><li>Please place your index fingers on the <strong>'S'</strong> and <strong>'L'</strong> keys <br>to respond as fast and accurately as possible.</li><li>Every picture can be classified as either mechanical or non-mechanical.</li><li>If you do not respond in time or commit an error, you will receive a corresponding feedback. <br>Please try to respond as <strong> fast </strong> and as <strong> accurately as possible </strong>.</li><li> Please remember only the to-be-remembered <span style='color: dodgerblue; font-size: 28px'>O</span> pictures. <br></li><li> Please minimize distractions and stay focused. </li><br><br>Press SPACE to START</div>","32","","","","","","","","","","","","","","","","","","","",""
"html-keyboard-response","48","158494","0.0-3.0-3.0-0.0","9gy7x3xgtfr9srf","practice_cue","5cb5d3d9bc68400001075adb","5f60e3c0a3b16e07647b2ff9","5f60ebc5da8043011a25ddce","false","null","<span style=""color: black; font-size: 48px"">M + N</span>","null","","","","resp_prompt","","","","","","","","","","","","","","","",""
"categorize-image","49","159959","0.0-3.0-3.0-1.0","9gy7x3xgtfr9srf","practice_cue","5cb5d3d9bc68400001075adb","5f60e3c0a3b16e07647b2ff9","5f60ebc5da8043011a25ddce","true","1456.4449999998033","./Stimuli/ImagesPractice/LN4.jpg","76","","","","test","true","M + N","76","","LN","LN4.jpg","remember","old","17","2","practice_forget","right","","","",""
"html-keyboard-response","50","161963","0.0-3.0-3.0-3.0","9gy7x3xgtfr9srf","practice_cue","5cb5d3d9bc68400001075adb","5f60e3c0a3b16e07647b2ff9","5f60ebc5da8043011a25ddce","false","null","<div style=""align-items: center; display: flex; color: dodgerblue; font-size: 90px""><b>o</b></div>","null","","","","forget_cue","","","","","","","","","","","","","","","",""
"html-keyboard-response","51","162665","0.0-3.0-3.0-0.1","9gy7x3xgtfr9srf","practice_cue","5cb5d3d9bc68400001075adb","5f60e3c0a3b16e07647b2ff9","5f60ebc5da8043011a25ddce","false","null","<span style=""color: black; font-size: 48px"">M + N</span>","null","","","","resp_prompt","","","","","","","","","","","","","","","",""
"categorize-image","52","163196","0.0-3.0-3.0-1.1","9gy7x3xgtfr9srf","practice_cue","5cb5d3d9bc68400001075adb","5f60e3c0a3b16e07647b2ff9","5f60ebc5da8043011a25ddce","true","521.3000000003376","./Stimuli/ImagesPractice/LN72.jpg","76","","","","test","true","M + N","76","","LN","LN72.jpg","remember","old","18","2","practice_forget","right","","","",""
"html-keyboard-response","53","165200","0.0-3.0-3.0-3.1","9gy7x3xgtfr9srf","practice_cue","5cb5d3d9bc68400001075adb","5f60e3c0a3b16e07647b2ff9","5f60ebc5da8043011a25ddce","false","null","<div style=""align-items: center; display: flex; color: dodgerblue; font-size: 90px""><b>o</b></div>","null","","","","forget_cue","","","","","","","","","","","","","","","",""
"html-keyboard-response","54","165904","0.0-3.0-3.0-0.2","9gy7x3xgtfr9srf","practice_cue","5cb5d3d9bc68400001075adb","5f60e3c0a3b16e07647b2ff9","5f60ebc5da8043011a25ddce","false","null","<span style=""color: black; font-size: 48px"">N + M</span>","null","","","","resp_prompt","","","","","","","","","","","","","","","",""
"categorize-image","55","166985","0.0-3.0-3.0-1.2","9gy7x3xgtfr9srf","practice_cue","5cb5d3d9bc68400001075adb","5f60e3c0a3b16e07647b2ff9","5f60ebc5da8043011a25ddce","true","1071.0849999995844","./Stimuli/ImagesPractice/SM35.jpg","83","","","","test","false","N + M","76","","SM","SM35.jpg","remember","old","19","2","practice_forget","left","","","",""
"html-keyboard-response","56","167489","0.0-3.0-3.0-2.2-0.2","9gy7x3xgtfr9srf","practice_cue","5cb5d3d9bc68400001075adb","5f60e3c0a3b16e07647b2ff9","5f60ebc5da8043011a25ddce","false","null","<span style=""color: red; font-size: 48px"">Error!</span>","null","","","","feedback","","","","","","","","","","","","","","","",""
"html-keyboard-response","57","169492","0.0-3.0-3.0-3.2","9gy7x3xgtfr9srf","practice_cue","5cb5d3d9bc68400001075adb","5f60e3c0a3b16e07647b2ff9","5f60ebc5da8043011a25ddce","false","null","<div style=""align-items: center; display: flex; color: dodgerblue; font-size: 90px""><b>o</b></div>","null","","","","forget_cue","","","","","","","","","","","","","","","",""
"html-keyboard-response","58","170194","0.0-3.0-3.0-0.3","9gy7x3xgtfr9srf","practice_cue","5cb5d3d9bc68400001075adb","5f60e3c0a3b16e07647b2ff9","5f60ebc5da8043011a25ddce","false","null","<span style=""color: black; font-size: 48px"">N + M</span>","null","","","","resp_prompt","","","","","","","","","","","","","","","",""
"categorize-image","59","171175","0.0-3.0-3.0-1.3","9gy7x3xgtfr9srf","practice_cue","5cb5d3d9bc68400001075adb","5f60e3c0a3b16e07647b2ff9","5f60ebc5da8043011a25ddce","true","968.4700000034354","./Stimuli/ImagesPractice/SN76.jpg","83","","","","test","true","N + M","83","","SN","SN76.jpg","forget","old","20","2","practice_forget","left","","","",""
"html-keyboard-response","60","173179","0.0-3.0-3.0-3.3","9gy7x3xgtfr9srf","practice_cue","5cb5d3d9bc68400001075adb","5f60e3c0a3b16e07647b2ff9","5f60ebc5da8043011a25ddce","false","null","<div style=""align-items: center; display: flex; color: darkorange; font-size: 90px""><b>ø</b></div>","null","","","","forget_cue","","","","","","","","","","","","","","","",""
"html-keyboard-response","61","173882","0.0-3.0-3.0-0.4","9gy7x3xgtfr9srf","practice_cue","5cb5d3d9bc68400001075adb","5f60e3c0a3b16e07647b2ff9","5f60ebc5da8043011a25ddce","false","null","<span style=""color: black; font-size: 48px"">M + N</span>","null","","","","resp_prompt","","","","","","","","","","","","","","","",""
"categorize-image","62","174886","0.0-3.0-3.0-1.4","9gy7x3xgtfr9srf","practice_cue","5cb5d3d9bc68400001075adb","5f60e3c0a3b16e07647b2ff9","5f60ebc5da8043011a25ddce","true","995.2200000006997","./Stimuli/ImagesPractice/LN17.jpg","76","","","","test","true","M + N","76","","LN","LN17.jpg","remember","old","21","2","practice_forget","right","","","",""
"html-keyboard-response","63","176890","0.0-3.0-3.0-3.4","9gy7x3xgtfr9srf","practice_cue","5cb5d3d9bc68400001075adb","5f60e3c0a3b16e07647b2ff9","5f60ebc5da8043011a25ddce","false","null","<div style=""align-items: center; display: flex; color: dodgerblue; font-size: 90px""><b>o</b></div>","null","","","","forget_cue","","","","","","","","","","","","","","","",""
"html-keyboard-response","64","177593","0.0-3.0-3.0-0.5","9gy7x3xgtfr9srf","practice_cue","5cb5d3d9bc68400001075adb","5f60e3c0a3b16e07647b2ff9","5f60ebc5da8043011a25ddce","false","null","<span style=""color: black; font-size: 48px"">M + N</span>","null","","","","resp_prompt","","","","","","","","","","","","","","","",""
"categorize-image","65","178634","0.0-3.0-3.0-1.5","9gy7x3xgtfr9srf","practice_cue","5cb5d3d9bc68400001075adb","5f60e3c0a3b16e07647b2ff9","5f60ebc5da8043011a25ddce","true","1031.8849999966915","./Stimuli/ImagesPractice/SN222.jpg","76","","","","test","true","M + N","76","","SN","SN222.jpg","forget","old","22","2","practice_forget","right","","","",""
"html-keyboard-response","66","180637","0.0-3.0-3.0-3.5","9gy7x3xgtfr9srf","practice_cue","5cb5d3d9bc68400001075adb","5f60e3c0a3b16e07647b2ff9","5f60ebc5da8043011a25ddce","false","null","<div style=""align-items: center; display: flex; color: darkorange; font-size: 90px""><b>ø</b></div>","null","","","","forget_cue","","","","","","","","","","","","","","","",""
"html-keyboard-response","67","181340","0.0-3.0-3.0-0.6","9gy7x3xgtfr9srf","practice_cue","5cb5d3d9bc68400001075adb","5f60e3c0a3b16e07647b2ff9","5f60ebc5da8043011a25ddce","false","null","<span style=""color: black; font-size: 48px"">M + N</span>","null","","","","resp_prompt","","","","","","","","","","","","","","","",""
"categorize-image","68","182132","0.0-3.0-3.0-1.6","9gy7x3xgtfr9srf","practice_cue","5cb5d3d9bc68400001075adb","5f60e3c0a3b16e07647b2ff9","5f60ebc5da8043011a25ddce","true","782.7550000001793","./Stimuli/ImagesPractice/LM147.jpg","83","","","","test","true","M + N","83","","LM","LM147.jpg","forget","old","23","2","practice_forget","left","","","",""
"html-keyboard-response","69","184134","0.0-3.0-3.0-3.6","9gy7x3xgtfr9srf","practice_cue","5cb5d3d9bc68400001075adb","5f60e3c0a3b16e07647b2ff9","5f60ebc5da8043011a25ddce","false","null","<div style=""align-items: center; display: flex; color: darkorange; font-size: 90px""><b>ø</b></div>","null","","","","forget_cue","","","","","","","","","","","","","","","",""
"html-keyboard-response","70","184837","0.0-3.0-3.0-0.7","9gy7x3xgtfr9srf","practice_cue","5cb5d3d9bc68400001075adb","5f60e3c0a3b16e07647b2ff9","5f60ebc5da8043011a25ddce","false","null","<span style=""color: black; font-size: 48px"">N + M</span>","null","","","","resp_prompt","","","","","","","","","","","","","","","",""
"categorize-image","71","186037","0.0-3.0-3.0-1.7","9gy7x3xgtfr9srf","practice_cue","5cb5d3d9bc68400001075adb","5f60e3c0a3b16e07647b2ff9","5f60ebc5da8043011a25ddce","true","1190.5050000023039","./Stimuli/ImagesPractice/LN2.jpg","83","","","","test","true","N + M","83","","LN","LN2.jpg","forget","old","24","2","practice_forget","left","","","",""
"html-keyboard-response","72","188041","0.0-3.0-3.0-3.7","9gy7x3xgtfr9srf","practice_cue","5cb5d3d9bc68400001075adb","5f60e3c0a3b16e07647b2ff9","5f60ebc5da8043011a25ddce","false","null","<div style=""align-items: center; display: flex; color: darkorange; font-size: 90px""><b>ø</b></div>","null","","","","forget_cue","","","","","","","","","","","","","","","",""
"html-keyboard-response","73","188744","0.0-3.0-3.0-0.8","9gy7x3xgtfr9srf","practice_cue","5cb5d3d9bc68400001075adb","5f60e3c0a3b16e07647b2ff9","5f60ebc5da8043011a25ddce","false","null","<span style=""color: black; font-size: 48px"">N + M</span>","null","","","","resp_prompt","","","","","","","","","","","","","","","",""
"categorize-image","74","189587","0.0-3.0-3.0-1.8","9gy7x3xgtfr9srf","practice_cue","5cb5d3d9bc68400001075adb","5f60e3c0a3b16e07647b2ff9","5f60ebc5da8043011a25ddce","true","836.1450000011246","./Stimuli/ImagesPractice/SM37.jpg","76","","","","test","true","N + M","76","","SM","SM37.jpg","remember","old","25","2","practice_forget","right","","","",""
"html-keyboard-response","75","191591","0.0-3.0-3.0-3.8","9gy7x3xgtfr9srf","practice_cue","5cb5d3d9bc68400001075adb","5f60e3c0a3b16e07647b2ff9","5f60ebc5da8043011a25ddce","false","null","<div style=""align-items: center; display: flex; color: dodgerblue; font-size: 90px""><b>o</b></div>","null","","","","forget_cue","","","","","","","","","","","","","","","",""
"html-keyboard-response","76","192293","0.0-3.0-3.0-0.9","9gy7x3xgtfr9srf","practice_cue","5cb5d3d9bc68400001075adb","5f60e3c0a3b16e07647b2ff9","5f60ebc5da8043011a25ddce","false","null","<span style=""color: black; font-size: 48px"">M + N</span>","null","","","","resp_prompt","","","","","","","","","","","","","","","",""
"categorize-image","77","193118","0.0-3.0-3.0-1.9","9gy7x3xgtfr9srf","practice_cue","5cb5d3d9bc68400001075adb","5f60e3c0a3b16e07647b2ff9","5f60ebc5da8043011a25ddce","true","814.6400000005087","./Stimuli/ImagesPractice/SN220.jpg","76","","","","test","true","M + N","76","","SN","SN220.jpg","remember","old","26","2","practice_forget","right","","","",""
"html-keyboard-response","78","195126","0.0-3.0-3.0-3.9","9gy7x3xgtfr9srf","practice_cue","5cb5d3d9bc68400001075adb","5f60e3c0a3b16e07647b2ff9","5f60ebc5da8043011a25ddce","false","null","<div style=""align-items: center; display: flex; color: dodgerblue; font-size: 90px""><b>o</b></div>","null","","","","forget_cue","","","","","","","","","","","","","","","",""
"html-keyboard-response","79","195829","0.0-3.0-3.0-0.10","9gy7x3xgtfr9srf","practice_cue","5cb5d3d9bc68400001075adb","5f60e3c0a3b16e07647b2ff9","5f60ebc5da8043011a25ddce","false","null","<span style=""color: black; font-size: 48px"">M + N</span>","null","","","","resp_prompt","","","","","","","","","","","","","","","",""
"categorize-image","80","196698","0.0-3.0-3.0-1.10","9gy7x3xgtfr9srf","practice_cue","5cb5d3d9bc68400001075adb","5f60e3c0a3b16e07647b2ff9","5f60ebc5da8043011a25ddce","true","857.9599999975471","./Stimuli/ImagesPractice/SM98.jpg","83","","","","test","true","M + N","83","","SM","SM98.jpg","forget","old","27","2","practice_forget","left","","","",""
"html-keyboard-response","81","198702","0.0-3.0-3.0-3.10","9gy7x3xgtfr9srf","practice_cue","5cb5d3d9bc68400001075adb","5f60e3c0a3b16e07647b2ff9","5f60ebc5da8043011a25ddce","false","null","<div style=""align-items: center; display: flex; color: darkorange; font-size: 90px""><b>ø</b></div>","null","","","","forget_cue","","","","","","","","","","","","","","","",""
"html-keyboard-response","82","199406","0.0-3.0-3.0-0.11","9gy7x3xgtfr9srf","practice_cue","5cb5d3d9bc68400001075adb","5f60e3c0a3b16e07647b2ff9","5f60ebc5da8043011a25ddce","false","null","<span style=""color: black; font-size: 48px"">N + M</span>","null","","","","resp_prompt","","","","","","","","","","","","","","","",""
"categorize-image","83","200199","0.0-3.0-3.0-1.11","9gy7x3xgtfr9srf","practice_cue","5cb5d3d9bc68400001075adb","5f60e3c0a3b16e07647b2ff9","5f60ebc5da8043011a25ddce","true","782.5850000008359","./Stimuli/ImagesPractice/LM224.jpg","76","","","","test","true","N + M","76","","LM","LM224.jpg","remember","old","28","2","practice_forget","right","","","",""
"html-keyboard-response","84","202202","0.0-3.0-3.0-3.11","9gy7x3xgtfr9srf","practice_cue","5cb5d3d9bc68400001075adb","5f60e3c0a3b16e07647b2ff9","5f60ebc5da8043011a25ddce","false","null","<div style=""align-items: center; display: flex; color: dodgerblue; font-size: 90px""><b>o</b></div>","null","","","","forget_cue","","","","","","","","","","","","","","","",""
"html-keyboard-response","85","202905","0.0-3.0-3.0-0.12","9gy7x3xgtfr9srf","practice_cue","5cb5d3d9bc68400001075adb","5f60e3c0a3b16e07647b2ff9","5f60ebc5da8043011a25ddce","false","null","<span style=""color: black; font-size: 48px"">M + N</span>","null","","","","resp_prompt","","","","","","","","","","","","","","","",""
"categorize-image","86","204235","0.0-3.0-3.0-1.12","9gy7x3xgtfr9srf","practice_cue","5cb5d3d9bc68400001075adb","5f60e3c0a3b16e07647b2ff9","5f60ebc5da8043011a25ddce","true","1320.674999999028","./Stimuli/ImagesPractice/SM62.jpg","83","","","","test","true","M + N","83","","SM","SM62.jpg","forget","old","29","2","practice_forget","left","","","",""
"html-keyboard-response","87","206238","0.0-3.0-3.0-3.12","9gy7x3xgtfr9srf","practice_cue","5cb5d3d9bc68400001075adb","5f60e3c0a3b16e07647b2ff9","5f60ebc5da8043011a25ddce","false","null","<div style=""align-items: center; display: flex; color: darkorange; font-size: 90px""><b>ø</b></div>","null","","","","forget_cue","","","","","","","","","","","","","","","",""
"html-keyboard-response","88","206941","0.0-3.0-3.0-0.13","9gy7x3xgtfr9srf","practice_cue","5cb5d3d9bc68400001075adb","5f60e3c0a3b16e07647b2ff9","5f60ebc5da8043011a25ddce","false","null","<span style=""color: black; font-size: 48px"">N + M</span>","null","","","","resp_prompt","","","","","","","","","","","","","","","",""
"categorize-image","89","207724","0.0-3.0-3.0-1.13","9gy7x3xgtfr9srf","practice_cue","5cb5d3d9bc68400001075adb","5f60e3c0a3b16e07647b2ff9","5f60ebc5da8043011a25ddce","true","774.3599999994331","./Stimuli/ImagesPractice/LM55.jpg","76","","","","test","true","N + M","76","","LM","LM55.jpg","forget","old","30","2","practice_forget","right","","","",""
"html-keyboard-response","90","209728","0.0-3.0-3.0-3.13","9gy7x3xgtfr9srf","practice_cue","5cb5d3d9bc68400001075adb","5f60e3c0a3b16e07647b2ff9","5f60ebc5da8043011a25ddce","false","null","<div style=""align-items: center; display: flex; color: darkorange; font-size: 90px""><b>ø</b></div>","null","","","","forget_cue","","","","","","","","","","","","","","","",""
"html-keyboard-response","91","210431","0.0-3.0-3.0-0.14","9gy7x3xgtfr9srf","practice_cue","5cb5d3d9bc68400001075adb","5f60e3c0a3b16e07647b2ff9","5f60ebc5da8043011a25ddce","false","null","<span style=""color: black; font-size: 48px"">N + M</span>","null","","","","resp_prompt","","","","","","","","","","","","","","","",""
"categorize-image","92","211292","0.0-3.0-3.0-1.14","9gy7x3xgtfr9srf","practice_cue","5cb5d3d9bc68400001075adb","5f60e3c0a3b16e07647b2ff9","5f60ebc5da8043011a25ddce","true","852.7300000023388","./Stimuli/ImagesPractice/LN15.jpg","83","","","","test","true","N + M","83","","LN","LN15.jpg","forget","old","31","2","practice_forget","left","","","",""
"html-keyboard-response","93","213297","0.0-3.0-3.0-3.14","9gy7x3xgtfr9srf","practice_cue","5cb5d3d9bc68400001075adb","5f60e3c0a3b16e07647b2ff9","5f60ebc5da8043011a25ddce","false","null","<div style=""align-items: center; display: flex; color: darkorange; font-size: 90px""><b>ø</b></div>","null","","","","forget_cue","","","","","","","","","","","","","","","",""
"html-keyboard-response","94","214000","0.0-3.0-3.0-0.15","9gy7x3xgtfr9srf","practice_cue","5cb5d3d9bc68400001075adb","5f60e3c0a3b16e07647b2ff9","5f60ebc5da8043011a25ddce","false","null","<span style=""color: black; font-size: 48px"">N + M</span>","null","","","","resp_prompt","","","","","","","","","","","","","","","",""
"categorize-image","95","214842","0.0-3.0-3.0-1.15","9gy7x3xgtfr9srf","practice_cue","5cb5d3d9bc68400001075adb","5f60e3c0a3b16e07647b2ff9","5f60ebc5da8043011a25ddce","true","832.0549999989453","./Stimuli/ImagesPractice/LM230.jpg","76","","","","test","true","N + M","76","","LM","LM230.jpg","remember","old","32","2","practice_forget","right","","","",""
"html-keyboard-response","96","216845","0.0-3.0-3.0-3.15","9gy7x3xgtfr9srf","practice_cue","5cb5d3d9bc68400001075adb","5f60e3c0a3b16e07647b2ff9","5f60ebc5da8043011a25ddce","false","null","<div style=""align-items: center; display: flex; color: dodgerblue; font-size: 90px""><b>o</b></div>","null","","","","forget_cue","","","","","","","","","","","","","","","",""
"html-keyboard-response","97","223157","0.0-3.0-4.0","9gy7x3xgtfr9srf","break","5cb5d3d9bc68400001075adb","5f60e3c0a3b16e07647b2ff9","5f60ebc5da8043011a25ddce","false","6307.7200000007","<p style='font-size: 32px;'>Break</><br><br><br><br><br><p style='font-size: 24px;'>In the last block, you committed 1 errors and did not respond in time on 0 trials.
</p><p style='font-size: 24px;'>Try to respond as fast and accurately as possible in the next block as well! </p><p style='font-size: 24px;'>Press SPACE to continue.</p>","32","","","","","","","","","","","","","","","","","","","",""
"html-keyboard-response","98","239956","0.0-3.0-5.0","9gy7x3xgtfr9srf","instructions","5cb5d3d9bc68400001075adb","5f60e3c0a3b16e07647b2ff9","5f60ebc5da8043011a25ddce","false","16795.419999998558","<div align=left> Now, to practice, we kindly ask you to remember as many of the to-be-remembered pictures<br>of the previous learning phase as possible.<br><br>The pictures you were instructed to remember were the pictures followed by a <span style='color: dodgerblue; font-size: 28px'>O</span>.<br><br>In this memory test phase, you will also see some new pictures.<br>It is your task to remember whether you were presented with this specific picture in this study so far or not.<br>If you recognize an object (you have already seen it in this study), it is an OLD object. <br>If you do not recognize an object (you have NOT seen it in this study), it is a NEW object. <br><strong> Attention</strong>: As already mentioned, <span style='color: darkorange; font-size:28px'>Ø</span>-pictures will <strong>never</strong> appear in this memory test (neither as new objects). <br><br>Press SPACE to continue. </div>","32","","","","","","","","","","","","","","","","","","","",""
"html-keyboard-response","99","261063","0.0-3.0-6.0","9gy7x3xgtfr9srf","instructions","5cb5d3d9bc68400001075adb","5f60e3c0a3b16e07647b2ff9","5f60ebc5da8043011a25ddce","false","21103.03500000009","<div align=left> M and N no longer will appear on the left/right of the fixation cross. <br>Instead there will be a note at the bottom of the left or right side  <br>indicating which key you should press for an old or new object:  <br> <br>Press the <strong>right</strong> key to classify an object as <strong>old</strong> and press the <strong>left</strong>, to classify an object as <strong>new</strong>.<br>Please classify the objects as new/old by again placing your index finger on the 'S' and 'L' keys <br>and press them accordingly.<br><br><strong>Old:</strong> This object has been presented before. <br><strong>New:</strong> This object has <strong>not</strong> been presented.<br><br>Now please put your right and left index fingers on the 'S' and 'L' keys of your keyboard. <br>Please respond as fast and as accurately as possible!<br><br>Press SPACE to continue. </div>","32","","","","","","","","","","","","","","","","","","","",""
"categorize-image","100","264999","0.0-3.0-7.0-0.0","9gy7x3xgtfr9srf","practice_recog","5cb5d3d9bc68400001075adb","5f60e3c0a3b16e07647b2ff9","5f60ebc5da8043011a25ddce","true","3429.260000000766","./Stimuli/ImagesPractice/SN75.jpg","76","","","","test","true","","76","","SN","SN75.jpg","","new","33","3","practice_recog","right","","","",""
"categorize-image","101","267432","0.0-3.0-7.0-0.1","9gy7x3xgtfr9srf","practice_recog","5cb5d3d9bc68400001075adb","5f60e3c0a3b16e07647b2ff9","5f60ebc5da8043011a25ddce","true","1927.4449999975623","./Stimuli/ImagesPractice/SN220.jpg","83","","","","test","true","","83","","SN","SN220.jpg","","old","34","3","practice_recog","left","","","",""
"categorize-image","102","269977","0.0-3.0-7.0-0.2","9gy7x3xgtfr9srf","practice_recog","5cb5d3d9bc68400001075adb","5f60e3c0a3b16e07647b2ff9","5f60ebc5da8043011a25ddce","true","2037.319999999425","./Stimuli/ImagesPractice/SN221.jpg","83","","","","test","false","","76","","SN","SN221.jpg","","new","35","3","practice_recog","left","","","",""
"categorize-image","103","271372","0.0-3.0-7.0-0.3","9gy7x3xgtfr9srf","practice_recog","5cb5d3d9bc68400001075adb","5f60e3c0a3b16e07647b2ff9","5f60ebc5da8043011a25ddce","true","888.795000002603","./Stimuli/ImagesPractice/LN17.jpg","76","","","","test","false","","83","","LN","LN17.jpg","","old","36","3","practice_recog","right","","","",""
"categorize-image","104","273145","0.0-3.0-7.0-0.4","9gy7x3xgtfr9srf","practice_recog","5cb5d3d9bc68400001075adb","5f60e3c0a3b16e07647b2ff9","5f60ebc5da8043011a25ddce","true","1266.0950000027078","./Stimuli/ImagesPractice/LN109.jpg","76","","","","test","true","","76","","LN","LN109.jpg","","new","37","3","practice_recog","right","","","",""
"categorize-image","105","274391","0.0-3.0-7.0-0.5","9gy7x3xgtfr9srf","practice_recog","5cb5d3d9bc68400001075adb","5f60e3c0a3b16e07647b2ff9","5f60ebc5da8043011a25ddce","true","741.4500000013504","./Stimuli/ImagesPractice/LN4.jpg","76","","","","test","false","","83","","LN","LN4.jpg","","old","38","3","practice_recog","right","","","",""
"categorize-image","106","276116","0.0-3.0-7.0-0.6","9gy7x3xgtfr9srf","practice_recog","5cb5d3d9bc68400001075adb","5f60e3c0a3b16e07647b2ff9","5f60ebc5da8043011a25ddce","true","1219.730000000738","./Stimuli/ImagesPractice/SM61.jpg","76","","","","test","true","","76","","SM","SM61.jpg","","new","39","3","practice_recog","right","","","",""
"categorize-image","107","277644","0.0-3.0-7.0-0.7","9gy7x3xgtfr9srf","practice_recog","5cb5d3d9bc68400001075adb","5f60e3c0a3b16e07647b2ff9","5f60ebc5da8043011a25ddce","true","1022.1050000000396","./Stimuli/ImagesPractice/LN72.jpg","83","","","","test","true","","83","","LN","LN72.jpg","","old","40","3","practice_recog","left","","","",""
"categorize-image","108","279283","0.0-3.0-7.0-0.8","9gy7x3xgtfr9srf","practice_recog","5cb5d3d9bc68400001075adb","5f60e3c0a3b16e07647b2ff9","5f60ebc5da8043011a25ddce","true","1133.2149999980466","./Stimuli/ImagesPractice/SM35.jpg","83","","","","test","true","","83","","SM","SM35.jpg","","old","41","3","practice_recog","left","","","",""
"categorize-image","109","280520","0.0-3.0-7.0-0.9","9gy7x3xgtfr9srf","practice_recog","5cb5d3d9bc68400001075adb","5f60e3c0a3b16e07647b2ff9","5f60ebc5da8043011a25ddce","true","732.2750000021188","./Stimuli/ImagesPractice/LM224.jpg","83","","","","test","true","","83","","LM","LM224.jpg","","old","42","3","practice_recog","left","","","",""
"categorize-image","110","281989","0.0-3.0-7.0-0.10","9gy7x3xgtfr9srf","practice_recog","5cb5d3d9bc68400001075adb","5f60e3c0a3b16e07647b2ff9","5f60ebc5da8043011a25ddce","true","962.855000001553","./Stimuli/ImagesPractice/SN205.jpg","76","","","","test","true","","76","","SN","SN205.jpg","","new","43","3","practice_recog","right","","","",""
"categorize-image","111","283768","0.0-3.0-7.0-0.11","9gy7x3xgtfr9srf","practice_recog","5cb5d3d9bc68400001075adb","5f60e3c0a3b16e07647b2ff9","5f60ebc5da8043011a25ddce","true","1273.235000000568","./Stimuli/ImagesPractice/SM97.jpg","76","","","","test","true","","76","","SM","SM97.jpg","","new","44","3","practice_recog","right","","","",""
"categorize-image","112","285322","0.0-3.0-7.0-0.12","9gy7x3xgtfr9srf","practice_recog","5cb5d3d9bc68400001075adb","5f60e3c0a3b16e07647b2ff9","5f60ebc5da8043011a25ddce","true","1049.3399999977555","./Stimuli/ImagesPractice/LM230.jpg","83","","","","test","true","","83","","LM","LM230.jpg","","old","45","3","practice_recog","left","","","",""
"categorize-image","113","287018","0.0-3.0-7.0-0.13","9gy7x3xgtfr9srf","practice_recog","5cb5d3d9bc68400001075adb","5f60e3c0a3b16e07647b2ff9","5f60ebc5da8043011a25ddce","true","1187.9799999988172","./Stimuli/ImagesPractice/LM239.jpg","76","","","","test","true","","76","","LM","LM239.jpg","","new","46","3","practice_recog","right","","","",""
"categorize-image","114","288897","0.0-3.0-7.0-0.14","9gy7x3xgtfr9srf","practice_recog","5cb5d3d9bc68400001075adb","5f60e3c0a3b16e07647b2ff9","5f60ebc5da8043011a25ddce","true","1372.6449999994948","./Stimuli/ImagesPractice/LM143.jpg","76","","","","test","true","","76","","LM","LM143.jpg","","new","47","3","practice_recog","right","","","",""
"categorize-image","115","291162","0.0-3.0-7.0-0.15","9gy7x3xgtfr9srf","practice_recog","5cb5d3d9bc68400001075adb","5f60e3c0a3b16e07647b2ff9","5f60ebc5da8043011a25ddce","true","1759.8550000002724","./Stimuli/ImagesPractice/SM37.jpg","83","","","","test","true","","83","","SM","SM37.jpg","","old","48","3","practice_recog","left","","","",""
"html-keyboard-response","116","295437","0.0-3.0-8.0","9gy7x3xgtfr9srf","instructions","5cb5d3d9bc68400001075adb","5f60e3c0a3b16e07647b2ff9","5f60ebc5da8043011a25ddce","false","4272.085000000487","<div align=left> Great!<br><br>Are you ready to continue?<br>If you want to reread the instructions and redo the practice trials, please <br>press „Z“.<br><br>You can proceed when you are ready.<br><br>After the presentation of each object, you will receive an instruction whether to <br>remember or to forget the object.<br>We will test your memory of the following pictures only at the very end of <br>the experiment after all learning blocks are completed. <br><br>Press SPACE to CONTINUE when you are ready. </div>","32","","","","","","","","","","","","","","","","","","","",""
"html-keyboard-response","117","299235","0.0-4.0-0.0","9gy7x3xgtfr9srf","instructions","5cb5d3d9bc68400001075adb","5f60e3c0a3b16e07647b2ff9","5f60ebc5da8043011a25ddce","false","3794.450000001234","<div align=left> The actual experiment is about to start.<br>The practice trials are over!<br><br>Please always respond both fast and accurately!<br><br>Remember: <br> <br><li> Please place your index fingers on the <strong>'S'</strong> and <strong>'L'</strong> keys <br>to respond as fast and accurately as possible.</li><li> Every picture can be classified as either mechanical or non-mechanical.</li><li> If you do not respond in time or commit an error, you will receive a corresponding feedback.<br> Please try to respond as <strong> fast </strong> and as <strong> accurately as possible </strong>.</li><li> Remember the <span style='color: dodgerblue; font-size: 28px'>O</span> pictures. <br></li><li> Please minimize distractions and stay focused. </li><br><br>Press SPACE to START.</div>","32","","","","","","","","","","","","","","","","","","","",""
"html-keyboard-response","118","299940","0.0-4.0-1.0-0.0","9gy7x3xgtfr9srf","prime","5cb5d3d9bc68400001075adb","5f60e3c0a3b16e07647b2ff9","5f60ebc5da8043011a25ddce","false","null","<span style=""color: black; font-size: 48px"">N + M</span>","null","","","","resp_prompt","","","","","","","","","","","","","","","",""
"categorize-image","119","301940","0.0-4.0-1.0-1.0","9gy7x3xgtfr9srf","prime","5cb5d3d9bc68400001075adb","5f60e3c0a3b16e07647b2ff9","5f60ebc5da8043011a25ddce","true","1989.2350000009174","./Stimuli/SelectedImages/LN/LN149.bmp","83","","","","test","true","N + M","83","switch","LN","LN149.bmp","forget","","49","3","prime1","left","","","",""
"html-keyboard-response","120","303944","0.0-4.0-1.0-3.0","9gy7x3xgtfr9srf","prime","5cb5d3d9bc68400001075adb","5f60e3c0a3b16e07647b2ff9","5f60ebc5da8043011a25ddce","false","null","<div style=""align-items: center; display: flex; color: darkorange; font-size: 90px""><b>ø</b></div>","null","","","","forget_cue","","","","","","","","","","","","","","","",""
"html-keyboard-response","121","304648","0.0-4.0-1.0-0.1","9gy7x3xgtfr9srf","prime","5cb5d3d9bc68400001075adb","5f60e3c0a3b16e07647b2ff9","5f60ebc5da8043011a25ddce","false","null","<span style=""color: black; font-size: 48px"">M + N</span>","null","","","","resp_prompt","","","","","","","","","","","","","","","",""
"categorize-image","122","306357","0.0-4.0-1.0-1.1","9gy7x3xgtfr9srf","prime","5cb5d3d9bc68400001075adb","5f60e3c0a3b16e07647b2ff9","5f60ebc5da8043011a25ddce","true","1699.6600000020699","./Stimuli/SelectedImages/LM/LM157.bmp","83","","","","test","true","M + N","83","switch","LM","LM157.bmp","remember","","50","3","prime1","left","","","",""
"html-keyboard-response","123","308360","0.0-4.0-1.0-3.1","9gy7x3xgtfr9srf","prime","5cb5d3d9bc68400001075adb","5f60e3c0a3b16e07647b2ff9","5f60ebc5da8043011a25ddce","false","null","<div style=""align-items: center; display: flex; color: dodgerblue; font-size: 90px""><b>o</b></div>","null","","","","forget_cue","","","","","","","","","","","","","","","",""
"html-keyboard-response","124","309063","0.0-4.0-1.0-0.2","9gy7x3xgtfr9srf","prime","5cb5d3d9bc68400001075adb","5f60e3c0a3b16e07647b2ff9","5f60ebc5da8043011a25ddce","false","null","<span style=""color: black; font-size: 48px"">M + N</span>","null","","","","resp_prompt","","","","","","","","","","","","","","","",""
"categorize-image","125","310546","0.0-4.0-1.0-1.2","9gy7x3xgtfr9srf","prime","5cb5d3d9bc68400001075adb","5f60e3c0a3b16e07647b2ff9","5f60ebc5da8043011a25ddce","true","1471.675000000745","./Stimuli/SelectedImages/SN/SN179.bmp","76","","","","test","true","M + N","76","repetition","SN","SN179.bmp","forget","","51","3","prime1","right","","","",""
"html-keyboard-response","126","312549","0.0-4.0-1.0-3.2","9gy7x3xgtfr9srf","prime","5cb5d3d9bc68400001075adb","5f60e3c0a3b16e07647b2ff9","5f60ebc5da8043011a25ddce","false","null","<div style=""align-items: center; display: flex; color: darkorange; font-size: 90px""><b>ø</b></div>","null","","","","forget_cue","","","","","","","","","","","","","","","",""
"html-keyboard-response","127","313252","0.0-4.0-1.0-0.3","9gy7x3xgtfr9srf","prime","5cb5d3d9bc68400001075adb","5f60e3c0a3b16e07647b2ff9","5f60ebc5da8043011a25ddce","false","null","<span style=""color: black; font-size: 48px"">N + M</span>","null","","","","resp_prompt","","","","","","","","","","","","","","","",""
"categorize-image","128","314310","0.0-4.0-1.0-1.3","9gy7x3xgtfr9srf","prime","5cb5d3d9bc68400001075adb","5f60e3c0a3b16e07647b2ff9","5f60ebc5da8043011a25ddce","true","1048.399999999674","./Stimuli/SelectedImages/LN/LN42.bmp","83","","","","test","true","N + M","83","repetition","LN","LN42.bmp","forget","","52","3","prime1","left","","","",""
"html-keyboard-response","129","316314","0.0-4.0-1.0-3.3","9gy7x3xgtfr9srf","prime","5cb5d3d9bc68400001075adb","5f60e3c0a3b16e07647b2ff9","5f60ebc5da8043011a25ddce","false","null","<div style=""align-items: center; display: flex; color: darkorange; font-size: 90px""><b>ø</b></div>","null","","","","forget_cue","","","","","","","","","","","","","","","",""
"html-keyboard-response","130","317018","0.0-4.0-1.0-0.4","9gy7x3xgtfr9srf","prime","5cb5d3d9bc68400001075adb","5f60e3c0a3b16e07647b2ff9","5f60ebc5da8043011a25ddce","false","null","<span style=""color: black; font-size: 48px"">M + N</span>","null","","","","resp_prompt","","","","","","","","","","","","","","","",""
"categorize-image","131","317969","0.0-4.0-1.0-1.4","9gy7x3xgtfr9srf","prime","5cb5d3d9bc68400001075adb","5f60e3c0a3b16e07647b2ff9","5f60ebc5da8043011a25ddce","true","942.8399999997346","./Stimuli/SelectedImages/SM/SM213.bmp","83","","","","test","true","M + N","83","switch","SM","SM213.bmp","forget","","53","3","prime1","left","","","",""
"html-keyboard-response","132","319972","0.0-4.0-1.0-3.4","9gy7x3xgtfr9srf","prime","5cb5d3d9bc68400001075adb","5f60e3c0a3b16e07647b2ff9","5f60ebc5da8043011a25ddce","false","null","<div style=""align-items: center; display: flex; color: darkorange; font-size: 90px""><b>ø</b></div>","null","","","","forget_cue","","","","","","","","","","","","","","","",""
"html-keyboard-response","133","320675","0.0-4.0-1.0-0.5","9gy7x3xgtfr9srf","prime","5cb5d3d9bc68400001075adb","5f60e3c0a3b16e07647b2ff9","5f60ebc5da8043011a25ddce","false","null","<span style=""color: black; font-size: 48px"">M + N</span>","null","","","","resp_prompt","","","","","","","","","","","","","","","",""
"categorize-image","134","321467","0.0-4.0-1.0-1.5","9gy7x3xgtfr9srf","prime","5cb5d3d9bc68400001075adb","5f60e3c0a3b16e07647b2ff9","5f60ebc5da8043011a25ddce","true","782.6800000002258","./Stimuli/SelectedImages/SM/SM78.bmp","83","","","","test","true","M + N","83","repetition","SM","SM78.bmp","remember","","54","3","prime1","left","","","",""
"html-keyboard-response","135","323470","0.0-4.0-1.0-3.5","9gy7x3xgtfr9srf","prime","5cb5d3d9bc68400001075adb","5f60e3c0a3b16e07647b2ff9","5f60ebc5da8043011a25ddce","false","null","<div style=""align-items: center; display: flex; color: dodgerblue; font-size: 90px""><b>o</b></div>","null","","","","forget_cue","","","","","","","","","","","","","","","",""
"html-keyboard-response","136","324174","0.0-4.0-1.0-0.6","9gy7x3xgtfr9srf","prime","5cb5d3d9bc68400001075adb","5f60e3c0a3b16e07647b2ff9","5f60ebc5da8043011a25ddce","false","null","<span style=""color: black; font-size: 48px"">N + M</span>","null","","","","resp_prompt","","","","","","","","","","","","","","","",""
"categorize-image","137","324984","0.0-4.0-1.0-1.6","9gy7x3xgtfr9srf","prime","5cb5d3d9bc68400001075adb","5f60e3c0a3b16e07647b2ff9","5f60ebc5da8043011a25ddce","true","801.0199999989709","./Stimuli/SelectedImages/LN/LN111.bmp","76","","","","test","false","N + M","83","switch","LN","LN111.bmp","forget","","55","3","prime1","right","","","",""
"html-keyboard-response","138","325486","0.0-4.0-1.0-2.6-0.6","9gy7x3xgtfr9srf","prime","5cb5d3d9bc68400001075adb","5f60e3c0a3b16e07647b2ff9","5f60ebc5da8043011a25ddce","false","null","<span style=""color: red; font-size: 48px"">Error!</span>","null","","","","feedback","","","","","","","","","","","","","","","",""
"html-keyboard-response","139","327490","0.0-4.0-1.0-3.6","9gy7x3xgtfr9srf","prime","5cb5d3d9bc68400001075adb","5f60e3c0a3b16e07647b2ff9","5f60ebc5da8043011a25ddce","false","null","<div style=""align-items: center; display: flex; color: darkorange; font-size: 90px""><b>ø</b></div>","null","","","","forget_cue","","","","","","","","","","","","","","","",""
"html-keyboard-response","140","328193","0.0-4.0-1.0-0.7","9gy7x3xgtfr9srf","prime","5cb5d3d9bc68400001075adb","5f60e3c0a3b16e07647b2ff9","5f60ebc5da8043011a25ddce","false","null","<span style=""color: black; font-size: 48px"">M + N</span>","null","","","","resp_prompt","","","","","","","","","","","","","","","",""
"categorize-image","141","329511","0.0-4.0-1.0-1.7","9gy7x3xgtfr9srf","prime","5cb5d3d9bc68400001075adb","5f60e3c0a3b16e07647b2ff9","5f60ebc5da8043011a25ddce","true","1308.9399999989546","./Stimuli/SelectedImages/LN/LN13.bmp","76","","","","test","true","M + N","76","repetition","LN","LN13.bmp","forget","","56","3","prime1","right","","","",""
"html-keyboard-response","142","331514","0.0-4.0-1.0-3.7","9gy7x3xgtfr9srf","prime","5cb5d3d9bc68400001075adb","5f60e3c0a3b16e07647b2ff9","5f60ebc5da8043011a25ddce","false","null","<div style=""align-items: center; display: flex; color: darkorange; font-size: 90px""><b>ø</b></div>","null","","","","forget_cue","","","","","","","","","","","","","","","",""
"html-keyboard-response","143","332217","0.0-4.0-1.0-0.8","9gy7x3xgtfr9srf","prime","5cb5d3d9bc68400001075adb","5f60e3c0a3b16e07647b2ff9","5f60ebc5da8043011a25ddce","false","null","<span style=""color: black; font-size: 48px"">M + N</span>","null","","","","resp_prompt","","","","","","","","","","","","","","","",""
"categorize-image","144","333290","0.0-4.0-1.0-1.8","9gy7x3xgtfr9srf","prime","5cb5d3d9bc68400001075adb","5f60e3c0a3b16e07647b2ff9","5f60ebc5da8043011a25ddce","true","1062.835000000603","./Stimuli/SelectedImages/SM/SM74.bmp","83","","","","test","true","M + N","83","repetition","SM","SM74.bmp","remember","","57","3","prime1","left","","","",""
"html-keyboard-response","145","335293","0.0-4.0-1.0-3.8","9gy7x3xgtfr9srf","prime","5cb5d3d9bc68400001075adb","5f60e3c0a3b16e07647b2ff9","5f60ebc5da8043011a25ddce","false","null","<div style=""align-items: center; display: flex; color: dodgerblue; font-size: 90px""><b>o</b></div>","null","","","","forget_cue","","","","","","","","","","","","","","","",""
"html-keyboard-response","146","335996","0.0-4.0-1.0-0.9","9gy7x3xgtfr9srf","prime","5cb5d3d9bc68400001075adb","5f60e3c0a3b16e07647b2ff9","5f60ebc5da8043011a25ddce","false","null","<span style=""color: black; font-size: 48px"">N + M</span>","null","","","","resp_prompt","","","","","","","","","","","","","","","",""
"categorize-image","147","338008","0.0-4.0-1.0-1.9","9gy7x3xgtfr9srf","prime","5cb5d3d9bc68400001075adb","5f60e3c0a3b16e07647b2ff9","5f60ebc5da8043011a25ddce","true","null","./Stimuli/SelectedImages/SM/SM24.bmp","null","","","","test","false","N + M","76","switch","SM","SM24.bmp","forget","","58","3","prime1","too_slow","","","",""
"html-keyboard-response","148","338510","0.0-4.0-1.0-2.9-0.9","9gy7x3xgtfr9srf","prime","5cb5d3d9bc68400001075adb","5f60e3c0a3b16e07647b2ff9","5f60ebc5da8043011a25ddce","false","null","<span style=""color: red; font-size: 48px"">Too slow!</span>","null","","","","feedback","","","","","","","","","","","","","","","",""
"html-keyboard-response","149","340513","0.0-4.0-1.0-3.9","9gy7x3xgtfr9srf","prime","5cb5d3d9bc68400001075adb","5f60e3c0a3b16e07647b2ff9","5f60ebc5da8043011a25ddce","false","null","<div style=""align-items: center; display: flex; color: darkorange; font-size: 90px""><b>ø</b></div>","null","","","","forget_cue","","","","","","","","","","","","","","","",""
"html-keyboard-response","150","341216","0.0-4.0-1.0-0.10","9gy7x3xgtfr9srf","prime","5cb5d3d9bc68400001075adb","5f60e3c0a3b16e07647b2ff9","5f60ebc5da8043011a25ddce","false","null","<span style=""color: black; font-size: 48px"">N + M</span>","null","","","","resp_prompt","","","","","","","","","","","","","","","",""
"categorize-image","151","341956","0.0-4.0-1.0-1.10","9gy7x3xgtfr9srf","prime","5cb5d3d9bc68400001075adb","5f60e3c0a3b16e07647b2ff9","5f60ebc5da8043011a25ddce","true","730.7050000017625","./Stimuli/SelectedImages/SN/SN240.bmp","83","","","","test","true","N + M","83","switch","SN","SN240.bmp","forget","","59","3","prime1","left","","","",""
"html-keyboard-response","152","343962","0.0-4.0-1.0-3.10","9gy7x3xgtfr9srf","prime","5cb5d3d9bc68400001075adb","5f60e3c0a3b16e07647b2ff9","5f60ebc5da8043011a25ddce","false","null","<div style=""align-items: center; display: flex; color: darkorange; font-size: 90px""><b>ø</b></div>","null","","","","forget_cue","","","","","","","","","","","","","","","",""
"html-keyboard-response","153","344665","0.0-4.0-1.0-0.11","9gy7x3xgtfr9srf","prime","5cb5d3d9bc68400001075adb","5f60e3c0a3b16e07647b2ff9","5f60ebc5da8043011a25ddce","false","null","<span style=""color: black; font-size: 48px"">M + N</span>","null","","","","resp_prompt","","","","","","","","","","","","","","","",""
"categorize-image","154","345535","0.0-4.0-1.0-1.11","9gy7x3xgtfr9srf","prime","5cb5d3d9bc68400001075adb","5f60e3c0a3b16e07647b2ff9","5f60ebc5da8043011a25ddce","true","862.1050000002142","./Stimuli/SelectedImages/LN/LN101.bmp","76","","","","test","true","M + N","76","switch","LN","LN101.bmp","remember","","60","3","prime1","right","","","",""
"html-keyboard-response","155","347539","0.0-4.0-1.0-3.11","9gy7x3xgtfr9srf","prime","5cb5d3d9bc68400001075adb","5f60e3c0a3b16e07647b2ff9","5f60ebc5da8043011a25ddce","false","null","<div style=""align-items: center; display: flex; color: dodgerblue; font-size: 90px""><b>o</b></div>","null","","","","forget_cue","","","","","","","","","","","","","","","",""
"html-keyboard-response","156","348243","0.0-4.0-1.0-0.12","9gy7x3xgtfr9srf","prime","5cb5d3d9bc68400001075adb","5f60e3c0a3b16e07647b2ff9","5f60ebc5da8043011a25ddce","false","null","<span style=""color: black; font-size: 48px"">N + M</span>","null","","","","resp_prompt","","","","","","","","","","","","","","","",""
"categorize-image","157","349067","0.0-4.0-1.0-1.12","9gy7x3xgtfr9srf","prime","5cb5d3d9bc68400001075adb","5f60e3c0a3b16e07647b2ff9","5f60ebc5da8043011a25ddce","true","815.920000000915","./Stimuli/SelectedImages/LN/LN59.bmp","76","","","","test","false","N + M","83","switch","LN","LN59.bmp","remember","","61","3","prime1","right","","","",""
"html-keyboard-response","158","349571","0.0-4.0-1.0-2.12-0.12","9gy7x3xgtfr9srf","prime","5cb5d3d9bc68400001075adb","5f60e3c0a3b16e07647b2ff9","5f60ebc5da8043011a25ddce","false","null","<span style=""color: red; font-size: 48px"">Error!</span>","null","","","","feedback","","","","","","","","","","","","","","","",""
"html-keyboard-response","159","351574","0.0-4.0-1.0-3.12","9gy7x3xgtfr9srf","prime","5cb5d3d9bc68400001075adb","5f60e3c0a3b16e07647b2ff9","5f60ebc5da8043011a25ddce","false","null","<div style=""align-items: center; display: flex; color: dodgerblue; font-size: 90px""><b>o</b></div>","null","","","","forget_cue","","","","","","","","","","","","","","","",""
"html-keyboard-response","160","352277","0.0-4.0-1.0-0.13","9gy7x3xgtfr9srf","prime","5cb5d3d9bc68400001075adb","5f60e3c0a3b16e07647b2ff9","5f60ebc5da8043011a25ddce","false","null","<span style=""color: black; font-size: 48px"">M + N</span>","null","","","","resp_prompt","","","","","","","","","","","","","","","",""
"categorize-image","161","353611","0.0-4.0-1.0-1.13","9gy7x3xgtfr9srf","prime","5cb5d3d9bc68400001075adb","5f60e3c0a3b16e07647b2ff9","5f60ebc5da8043011a25ddce","true","1324.7149999988033","./Stimuli/SelectedImages/LN/LN82.bmp","76","","","","test","true","M + N","76","repetition","LN","LN82.bmp","forget","","62","3","prime1","right","","","",""
"html-keyboard-response","162","355614","0.0-4.0-1.0-3.13","9gy7x3xgtfr9srf","prime","5cb5d3d9bc68400001075adb","5f60e3c0a3b16e07647b2ff9","5f60ebc5da8043011a25ddce","false","null","<div style=""align-items: center; display: flex; color: darkorange; font-size: 90px""><b>ø</b></div>","null","","","","forget_cue","","","","","","","","","","","","","","","",""
"html-keyboard-response","163","356317","0.0-4.0-1.0-0.14","9gy7x3xgtfr9srf","prime","5cb5d3d9bc68400001075adb","5f60e3c0a3b16e07647b2ff9","5f60ebc5da8043011a25ddce","false","null","<span style=""color: black; font-size: 48px"">M + N</span>","null","","","","resp_prompt","","","","","","","","","","","","","","","",""
"categorize-image","164","357331","0.0-4.0-1.0-1.14","9gy7x3xgtfr9srf","prime","5cb5d3d9bc68400001075adb","5f60e3c0a3b16e07647b2ff9","5f60ebc5da8043011a25ddce","true","1005.4700000000303","./Stimuli/SelectedImages/SM/SM128.bmp","83","","","","test","true","M + N","83","switch","SM","SM128.bmp","remember","","63","3","prime1","left","","","",""
"html-keyboard-response","165","359335","0.0-4.0-1.0-3.14","9gy7x3xgtfr9srf","prime","5cb5d3d9bc68400001075adb","5f60e3c0a3b16e07647b2ff9","5f60ebc5da8043011a25ddce","false","null","<div style=""align-items: center; display: flex; color: dodgerblue; font-size: 90px""><b>o</b></div>","null","","","","forget_cue","","","","","","","","","","","","","","","",""
"html-keyboard-response","166","360038","0.0-4.0-1.0-0.15","9gy7x3xgtfr9srf","prime","5cb5d3d9bc68400001075adb","5f60e3c0a3b16e07647b2ff9","5f60ebc5da8043011a25ddce","false","null","<span style=""color: black; font-size: 48px"">M + N</span>","null","","","","resp_prompt","","","","","","","","","","","","","","","",""
"categorize-image","167","360854","0.0-4.0-1.0-1.15","9gy7x3xgtfr9srf","prime","5cb5d3d9bc68400001075adb","5f60e3c0a3b16e07647b2ff9","5f60ebc5da8043011a25ddce","true","806.1349999989034","./Stimuli/SelectedImages/LM/LM48.bmp","83","","","","test","true","M + N","83","repetition","LM","LM48.bmp","remember","","64","3","prime1","left","","","",""
"html-keyboard-response","168","362857","0.0-4.0-1.0-3.15","9gy7x3xgtfr9srf","prime","5cb5d3d9bc68400001075adb","5f60e3c0a3b16e07647b2ff9","5f60ebc5da8043011a25ddce","false","null","<div style=""align-items: center; display: flex; color: dodgerblue; font-size: 90px""><b>o</b></div>","null","","","","forget_cue","","","","","","","","","","","","","","","",""
"html-keyboard-response","169","363560","0.0-4.0-1.0-0.16","9gy7x3xgtfr9srf","prime","5cb5d3d9bc68400001075adb","5f60e3c0a3b16e07647b2ff9","5f60ebc5da8043011a25ddce","false","null","<span style=""color: black; font-size: 48px"">N + M</span>","null","","","","resp_prompt","","","","","","","","","","","","","","","",""
"categorize-image","170","364704","0.0-4.0-1.0-1.16","9gy7x3xgtfr9srf","prime","5cb5d3d9bc68400001075adb","5f60e3c0a3b16e07647b2ff9","5f60ebc5da8043011a25ddce","true","1134.9449999979697","./Stimuli/SelectedImages/SM/SM17.bmp","76","","","","test","true","N + M","76","switch","SM","SM17.bmp","remember","","65","3","prime1","right","","","",""
"html-keyboard-response","171","366708","0.0-4.0-1.0-3.16","9gy7x3xgtfr9srf","prime","5cb5d3d9bc68400001075adb","5f60e3c0a3b16e07647b2ff9","5f60ebc5da8043011a25ddce","false","null","<div style=""align-items: center; display: flex; color: dodgerblue; font-size: 90px""><b>o</b></div>","null","","","","forget_cue","","","","","","","","","","","","","","","",""
"html-keyboard-response","172","367411","0.0-4.0-1.0-0.17","9gy7x3xgtfr9srf","prime","5cb5d3d9bc68400001075adb","5f60e3c0a3b16e07647b2ff9","5f60ebc5da8043011a25ddce","false","null","<span style=""color: black; font-size: 48px"">M + N</span>","null","","","","resp_prompt","","","","","","","","","","","","","","","",""
"categorize-image","173","368112","0.0-4.0-1.0-1.17","9gy7x3xgtfr9srf","prime","5cb5d3d9bc68400001075adb","5f60e3c0a3b16e07647b2ff9","5f60ebc5da8043011a25ddce","true","691.8000000005122","./Stimuli/SelectedImages/SN/SN93.bmp","76","","","","test","true","M + N","76","switch","SN","SN93.bmp","remember","","66","3","prime1","right","","","",""
"html-keyboard-response","174","370115","0.0-4.0-1.0-3.17","9gy7x3xgtfr9srf","prime","5cb5d3d9bc68400001075adb","5f60e3c0a3b16e07647b2ff9","5f60ebc5da8043011a25ddce","false","null","<div style=""align-items: center; display: flex; color: dodgerblue; font-size: 90px""><b>o</b></div>","null","","","","forget_cue","","","","","","","","","","","","","","","",""
"html-keyboard-response","175","370817","0.0-4.0-1.0-0.18","9gy7x3xgtfr9srf","prime","5cb5d3d9bc68400001075adb","5f60e3c0a3b16e07647b2ff9","5f60ebc5da8043011a25ddce","false","null","<span style=""color: black; font-size: 48px"">N + M</span>","null","","","","resp_prompt","","","","","","","","","","","","","","","",""
"categorize-image","176","371597","0.0-4.0-1.0-1.18","9gy7x3xgtfr9srf","prime","5cb5d3d9bc68400001075adb","5f60e3c0a3b16e07647b2ff9","5f60ebc5da8043011a25ddce","true","769.8649999984191","./Stimuli/SelectedImages/LN/LN9.bmp","83","","","","test","true","N + M","83","repetition","LN","LN9.bmp","remember","","67","3","prime1","left","","","",""
"html-keyboard-response","177","373602","0.0-4.0-1.0-3.18","9gy7x3xgtfr9srf","prime","5cb5d3d9bc68400001075adb","5f60e3c0a3b16e07647b2ff9","5f60ebc5da8043011a25ddce","false","null","<div style=""align-items: center; display: flex; color: dodgerblue; font-size: 90px""><b>o</b></div>","null","","","","forget_cue","","","","","","","","","","","","","","","",""
"html-keyboard-response","178","374305","0.0-4.0-1.0-0.19","9gy7x3xgtfr9srf","prime","5cb5d3d9bc68400001075adb","5f60e3c0a3b16e07647b2ff9","5f60ebc5da8043011a25ddce","false","null","<span style=""color: black; font-size: 48px"">M + N</span>","null","","","","resp_prompt","","","","","","","","","","","","","","","",""
"categorize-image","179","375365","0.0-4.0-1.0-1.19","9gy7x3xgtfr9srf","prime","5cb5d3d9bc68400001075adb","5f60e3c0a3b16e07647b2ff9","5f60ebc5da8043011a25ddce","true","1050.970000000205","./Stimuli/SelectedImages/SN/SN155.bmp","83","","","","test","false","M + N","76","switch","SN","SN155.bmp","forget","","68","3","prime1","left","","","",""
"html-keyboard-response","180","375869","0.0-4.0-1.0-2.19-0.19","9gy7x3xgtfr9srf","prime","5cb5d3d9bc68400001075adb","5f60e3c0a3b16e07647b2ff9","5f60ebc5da8043011a25ddce","false","null","<span style=""color: red; font-size: 48px"">Error!</span>","null","","","","feedback","","","","","","","","","","","","","","","",""
"html-keyboard-response","181","377873","0.0-4.0-1.0-3.19","9gy7x3xgtfr9srf","prime","5cb5d3d9bc68400001075adb","5f60e3c0a3b16e07647b2ff9","5f60ebc5da8043011a25ddce","false","null","<div style=""align-items: center; display: flex; color: darkorange; font-size: 90px""><b>ø</b></div>","null","","","","forget_cue","","","","","","","","","","","","","","","",""
"html-keyboard-response","182","378576","0.0-4.0-1.0-0.20","9gy7x3xgtfr9srf","prime","5cb5d3d9bc68400001075adb","5f60e3c0a3b16e07647b2ff9","5f60ebc5da8043011a25ddce","false","null","<span style=""color: black; font-size: 48px"">M + N</span>","null","","","","resp_prompt","","","","","","","","","","","","","","","",""
"categorize-image","183","379854","0.0-4.0-1.0-1.20","9gy7x3xgtfr9srf","prime","5cb5d3d9bc68400001075adb","5f60e3c0a3b16e07647b2ff9","5f60ebc5da8043011a25ddce","true","1268.5550000023795","./Stimuli/SelectedImages/SM/SM148.bmp","83","","","","test","true","M + N","83","repetition","SM","SM148.bmp","forget","","69","3","prime1","left","","","",""
"html-keyboard-response","184","381858","0.0-4.0-1.0-3.20","9gy7x3xgtfr9srf","prime","5cb5d3d9bc68400001075adb","5f60e3c0a3b16e07647b2ff9","5f60ebc5da8043011a25ddce","false","null","<div style=""align-items: center; display: flex; color: darkorange; font-size: 90px""><b>ø</b></div>","null","","","","forget_cue","","","","","","","","","","","","","","","",""
"html-keyboard-response","185","382561","0.0-4.0-1.0-0.21","9gy7x3xgtfr9srf","prime","5cb5d3d9bc68400001075adb","5f60e3c0a3b16e07647b2ff9","5f60ebc5da8043011a25ddce","false","null","<span style=""color: black; font-size: 48px"">M + N</span>","null","","","","resp_prompt","","","","","","","","","","","","","","","",""
"categorize-image","186","383550","0.0-4.0-1.0-1.21","9gy7x3xgtfr9srf","prime","5cb5d3d9bc68400001075adb","5f60e3c0a3b16e07647b2ff9","5f60ebc5da8043011a25ddce","true","979.5549999980722","./Stimuli/SelectedImages/LM/LM167.bmp","83","","","","test","true","M + N","83","repetition","LM","LM167.bmp","forget","","70","3","prime1","left","","","",""
"html-keyboard-response","187","385553","0.0-4.0-1.0-3.21","9gy7x3xgtfr9srf","prime","5cb5d3d9bc68400001075adb","5f60e3c0a3b16e07647b2ff9","5f60ebc5da8043011a25ddce","false","null","<div style=""align-items: center; display: flex; color: darkorange; font-size: 90px""><b>ø</b></div>","null","","","","forget_cue","","","","","","","","","","","","","","","",""
"html-keyboard-response","188","386256","0.0-4.0-1.0-0.22","9gy7x3xgtfr9srf","prime","5cb5d3d9bc68400001075adb","5f60e3c0a3b16e07647b2ff9","5f60ebc5da8043011a25ddce","false","null","<span style=""color: black; font-size: 48px"">N + M</span>","null","","","","resp_prompt","","","","","","","","","","","","","","","",""
"categorize-image","189","387196","0.0-4.0-1.0-1.22","9gy7x3xgtfr9srf","prime","5cb5d3d9bc68400001075adb","5f60e3c0a3b16e07647b2ff9","5f60ebc5da8043011a25ddce","true","929.3800000014016","./Stimuli/SelectedImages/SN/SN18.bmp","83","","","","test","true","N + M","83","switch","SN","SN18.bmp","remember","","71","3","prime1","left","","","",""
"html-keyboard-response","190","389200","0.0-4.0-1.0-3.22","9gy7x3xgtfr9srf","prime","5cb5d3d9bc68400001075adb","5f60e3c0a3b16e07647b2ff9","5f60ebc5da8043011a25ddce","false","null","<div style=""align-items: center; display: flex; color: dodgerblue; font-size: 90px""><b>o</b></div>","null","","","","forget_cue","","","","","","","","","","","","","","","",""
"html-keyboard-response","191","389905","0.0-4.0-1.0-0.23","9gy7x3xgtfr9srf","prime","5cb5d3d9bc68400001075adb","5f60e3c0a3b16e07647b2ff9","5f60ebc5da8043011a25ddce","false","null","<span style=""color: black; font-size: 48px"">N + M</span>","null","","","","resp_prompt","","","","","","","","","","","","","","","",""
"categorize-image","192","391017","0.0-4.0-1.0-1.23","9gy7x3xgtfr9srf","prime","5cb5d3d9bc68400001075adb","5f60e3c0a3b16e07647b2ff9","5f60ebc5da8043011a25ddce","true","1103.3949999982724","./Stimuli/SelectedImages/LM/LM209.bmp","76","","","","test","true","N + M","76","repetition","LM","LM209.bmp","remember","","72","3","prime1","right","","","",""
"html-keyboard-response","193","393020","0.0-4.0-1.0-3.23","9gy7x3xgtfr9srf","prime","5cb5d3d9bc68400001075adb","5f60e3c0a3b16e07647b2ff9","5f60ebc5da8043011a25ddce","false","null","<div style=""align-items: center; display: flex; color: dodgerblue; font-size: 90px""><b>o</b></div>","null","","","","forget_cue","","","","","","","","","","","","","","","",""
"html-keyboard-response","194","393724","0.0-4.0-1.0-0.24","9gy7x3xgtfr9srf","prime","5cb5d3d9bc68400001075adb","5f60e3c0a3b16e07647b2ff9","5f60ebc5da8043011a25ddce","false","null","<span style=""color: black; font-size: 48px"">M + N</span>","null","","","","resp_prompt","","","","","","","","","","","","","","","",""
"categorize-image","195","394612","0.0-4.0-1.0-1.24","9gy7x3xgtfr9srf","prime","5cb5d3d9bc68400001075adb","5f60e3c0a3b16e07647b2ff9","5f60ebc5da8043011a25ddce","true","880.7649999980349","./Stimuli/SelectedImages/LN/LN131.bmp","83","","","","test","false","M + N","76","switch","LN","LN131.bmp","forget","","73","3","prime1","left","","","",""
"html-keyboard-response","196","395115","0.0-4.0-1.0-2.24-0.24","9gy7x3xgtfr9srf","prime","5cb5d3d9bc68400001075adb","5f60e3c0a3b16e07647b2ff9","5f60ebc5da8043011a25ddce","false","null","<span style=""color: red; font-size: 48px"">Error!</span>","null","","","","feedback","","","","","","","","","","","","","","","",""
"html-keyboard-response","197","397118","0.0-4.0-1.0-3.24","9gy7x3xgtfr9srf","prime","5cb5d3d9bc68400001075adb","5f60e3c0a3b16e07647b2ff9","5f60ebc5da8043011a25ddce","false","null","<div style=""align-items: center; display: flex; color: darkorange; font-size: 90px""><b>ø</b></div>","null","","","","forget_cue","","","","","","","","","","","","","","","",""
"html-keyboard-response","198","397823","0.0-4.0-1.0-0.25","9gy7x3xgtfr9srf","prime","5cb5d3d9bc68400001075adb","5f60e3c0a3b16e07647b2ff9","5f60ebc5da8043011a25ddce","false","null","<span style=""color: black; font-size: 48px"">M + N</span>","null","","","","resp_prompt","","","","","","","","","","","","","","","",""
"categorize-image","199","398879","0.0-4.0-1.0-1.25","9gy7x3xgtfr9srf","prime","5cb5d3d9bc68400001075adb","5f60e3c0a3b16e07647b2ff9","5f60ebc5da8043011a25ddce","true","1048.6349999991944","./Stimuli/SelectedImages/SN/SN181.bmp","76","","","","test","true","M + N","76","switch","SN","SN181.bmp","forget","","74","3","prime1","right","","","",""
"html-keyboard-response","200","400883","0.0-4.0-1.0-3.25","9gy7x3xgtfr9srf","prime","5cb5d3d9bc68400001075adb","5f60e3c0a3b16e07647b2ff9","5f60ebc5da8043011a25ddce","false","null","<div style=""align-items: center; display: flex; color: darkorange; font-size: 90px""><b>ø</b></div>","null","","","","forget_cue","","","","","","","","","","","","","","","",""
"html-keyboard-response","201","401586","0.0-4.0-1.0-0.26","9gy7x3xgtfr9srf","prime","5cb5d3d9bc68400001075adb","5f60e3c0a3b16e07647b2ff9","5f60ebc5da8043011a25ddce","false","null","<span style=""color: black; font-size: 48px"">M + N</span>","null","","","","resp_prompt","","","","","","","","","","","","","","","",""
"categorize-image","202","402890","0.0-4.0-1.0-1.26","9gy7x3xgtfr9srf","prime","5cb5d3d9bc68400001075adb","5f60e3c0a3b16e07647b2ff9","5f60ebc5da8043011a25ddce","true","1294.6999999985565","./Stimuli/SelectedImages/LN/LN150.bmp","76","","","","test","true","M + N","76","repetition","LN","LN150.bmp","remember","","75","3","prime1","right","","","",""
"html-keyboard-response","203","404894","0.0-4.0-1.0-3.26","9gy7x3xgtfr9srf","prime","5cb5d3d9bc68400001075adb","5f60e3c0a3b16e07647b2ff9","5f60ebc5da8043011a25ddce","false","null","<div style=""align-items: center; display: flex; color: dodgerblue; font-size: 90px""><b>o</b></div>","null","","","","forget_cue","","","","","","","","","","","","","","","",""
"html-keyboard-response","204","405597","0.0-4.0-1.0-0.27","9gy7x3xgtfr9srf","prime","5cb5d3d9bc68400001075adb","5f60e3c0a3b16e07647b2ff9","5f60ebc5da8043011a25ddce","false","null","<span style=""color: black; font-size: 48px"">N + M</span>","null","","","","resp_prompt","","","","","","","","","","","","","","","",""
"categorize-image","205","406362","0.0-4.0-1.0-1.27","9gy7x3xgtfr9srf","prime","5cb5d3d9bc68400001075adb","5f60e3c0a3b16e07647b2ff9","5f60ebc5da8043011a25ddce","true","756.0950000006123","./Stimuli/SelectedImages/LN/LN128.bmp","76","","","","test","false","N + M","83","repetition","LN","LN128.bmp","forget","","76","3","prime1","right","","","",""
"html-keyboard-response","206","406866","0.0-4.0-1.0-2.27-0.27","9gy7x3xgtfr9srf","prime","5cb5d3d9bc68400001075adb","5f60e3c0a3b16e07647b2ff9","5f60ebc5da8043011a25ddce","false","null","<span style=""color: red; font-size: 48px"">Error!</span>","null","","","","feedback","","","","","","","","","","","","","","","",""
"html-keyboard-response","207","408869","0.0-4.0-1.0-3.27","9gy7x3xgtfr9srf","prime","5cb5d3d9bc68400001075adb","5f60e3c0a3b16e07647b2ff9","5f60ebc5da8043011a25ddce","false","null","<div style=""align-items: center; display: flex; color: darkorange; font-size: 90px""><b>ø</b></div>","null","","","","forget_cue","","","","","","","","","","","","","","","",""
"html-keyboard-response","208","409572","0.0-4.0-1.0-0.28","9gy7x3xgtfr9srf","prime","5cb5d3d9bc68400001075adb","5f60e3c0a3b16e07647b2ff9","5f60ebc5da8043011a25ddce","false","null","<span style=""color: black; font-size: 48px"">N + M</span>","null","","","","resp_prompt","","","","","","","","","","","","","","","",""
"categorize-image","209","410362","0.0-4.0-1.0-1.28","9gy7x3xgtfr9srf","prime","5cb5d3d9bc68400001075adb","5f60e3c0a3b16e07647b2ff9","5f60ebc5da8043011a25ddce","true","780.2149999988033","./Stimuli/SelectedImages/SN/SN187.bmp","83","","","","test","true","N + M","83","repetition","SN","SN187.bmp","remember","","77","3","prime1","left","","","",""
"html-keyboard-response","210","412366","0.0-4.0-1.0-3.28","9gy7x3xgtfr9srf","prime","5cb5d3d9bc68400001075adb","5f60e3c0a3b16e07647b2ff9","5f60ebc5da8043011a25ddce","false","null","<div style=""align-items: center; display: flex; color: dodgerblue; font-size: 90px""><b>o</b></div>","null","","","","forget_cue","","","","","","","","","","","","","","","",""
"html-keyboard-response","211","413070","0.0-4.0-1.0-0.29","9gy7x3xgtfr9srf","prime","5cb5d3d9bc68400001075adb","5f60e3c0a3b16e07647b2ff9","5f60ebc5da8043011a25ddce","false","null","<span style=""color: black; font-size: 48px"">N + M</span>","null","","","","resp_prompt","","","","","","","","","","","","","","","",""
"categorize-image","212","413952","0.0-4.0-1.0-1.29","9gy7x3xgtfr9srf","prime","5cb5d3d9bc68400001075adb","5f60e3c0a3b16e07647b2ff9","5f60ebc5da8043011a25ddce","true","873.7099999998463","./Stimuli/SelectedImages/LM/LM58.bmp","76","","","","test","true","N + M","76","switch","LM","LM58.bmp","forget","","78","3","prime1","right","","","",""
"html-keyboard-response","213","415955","0.0-4.0-1.0-3.29","9gy7x3xgtfr9srf","prime","5cb5d3d9bc68400001075adb","5f60e3c0a3b16e07647b2ff9","5f60ebc5da8043011a25ddce","false","null","<div style=""align-items: center; display: flex; color: darkorange; font-size: 90px""><b>ø</b></div>","null","","","","forget_cue","","","","","","","","","","","","","","","",""
"html-keyboard-response","214","416658","0.0-4.0-1.0-0.30","9gy7x3xgtfr9srf","prime","5cb5d3d9bc68400001075adb","5f60e3c0a3b16e07647b2ff9","5f60ebc5da8043011a25ddce","false","null","<span style=""color: black; font-size: 48px"">M + N</span>","null","","","","resp_prompt","","","","","","","","","","","","","","","",""
"categorize-image","215","417538","0.0-4.0-1.0-1.30","9gy7x3xgtfr9srf","prime","5cb5d3d9bc68400001075adb","5f60e3c0a3b16e07647b2ff9","5f60ebc5da8043011a25ddce","true","869.6449999988545","./Stimuli/SelectedImages/LN/LN166.bmp","83","","","","test","false","M + N","76","switch","LN","LN166.bmp","forget","","79","3","prime1","left","","","",""
"html-keyboard-response","216","418041","0.0-4.0-1.0-2.30-0.30","9gy7x3xgtfr9srf","prime","5cb5d3d9bc68400001075adb","5f60e3c0a3b16e07647b2ff9","5f60ebc5da8043011a25ddce","false","null","<span style=""color: red; font-size: 48px"">Error!</span>","null","","","","feedback","","","","","","","","","","","","","","","",""
"html-keyboard-response","217","420044","0.0-4.0-1.0-3.30","9gy7x3xgtfr9srf","prime","5cb5d3d9bc68400001075adb","5f60e3c0a3b16e07647b2ff9","5f60ebc5da8043011a25ddce","false","null","<div style=""align-items: center; display: flex; color: darkorange; font-size: 90px""><b>ø</b></div>","null","","","","forget_cue","","","","","","","","","","","","","","","",""
"html-keyboard-response","218","420747","0.0-4.0-1.0-0.31","9gy7x3xgtfr9srf","prime","5cb5d3d9bc68400001075adb","5f60e3c0a3b16e07647b2ff9","5f60ebc5da8043011a25ddce","false","null","<span style=""color: black; font-size: 48px"">M + N</span>","null","","","","resp_prompt","","","","","","","","","","","","","","","",""
"categorize-image","219","421856","0.0-4.0-1.0-1.31","9gy7x3xgtfr9srf","prime","5cb5d3d9bc68400001075adb","5f60e3c0a3b16e07647b2ff9","5f60ebc5da8043011a25ddce","true","1100.3999999993248","./Stimuli/SelectedImages/SM/SM106.bmp","83","","","","test","true","M + N","83","switch","SM","SM106.bmp","forget","","80","3","prime1","left","","","",""
"html-keyboard-response","220","423861","0.0-4.0-1.0-3.31","9gy7x3xgtfr9srf","prime","5cb5d3d9bc68400001075adb","5f60e3c0a3b16e07647b2ff9","5f60ebc5da8043011a25ddce","false","null","<div style=""align-items: center; display: flex; color: darkorange; font-size: 90px""><b>ø</b></div>","null","","","","forget_cue","","","","","","","","","","","","","","","",""
"html-keyboard-response","221","424563","0.0-4.0-1.0-0.32","9gy7x3xgtfr9srf","prime","5cb5d3d9bc68400001075adb","5f60e3c0a3b16e07647b2ff9","5f60ebc5da8043011a25ddce","false","null","<span style=""color: black; font-size: 48px"">M + N</span>","null","","","","resp_prompt","","","","","","","","","","","","","","","",""
"categorize-image","222","425373","0.0-4.0-1.0-1.32","9gy7x3xgtfr9srf","prime","5cb5d3d9bc68400001075adb","5f60e3c0a3b16e07647b2ff9","5f60ebc5da8043011a25ddce","true","800.4199999995762","./Stimuli/SelectedImages/SN/SN64.bmp","76","","","","test","true","M + N","76","repetition","SN","SN64.bmp","remember","","81","3","prime1","right","","","",""
"html-keyboard-response","223","427377","0.0-4.0-1.0-3.32","9gy7x3xgtfr9srf","prime","5cb5d3d9bc68400001075adb","5f60e3c0a3b16e07647b2ff9","5f60ebc5da8043011a25ddce","false","null","<div style=""align-items: center; display: flex; color: dodgerblue; font-size: 90px""><b>o</b></div>","null","","","","forget_cue","","","","","","","","","","","","","","","",""
"html-keyboard-response","224","428080","0.0-4.0-1.0-0.33","9gy7x3xgtfr9srf","prime","5cb5d3d9bc68400001075adb","5f60e3c0a3b16e07647b2ff9","5f60ebc5da8043011a25ddce","false","null","<span style=""color: black; font-size: 48px"">N + M</span>","null","","","","resp_prompt","","","","","","","","","","","","","","","",""
"categorize-image","225","428845","0.0-4.0-1.0-1.33","9gy7x3xgtfr9srf","prime","5cb5d3d9bc68400001075adb","5f60e3c0a3b16e07647b2ff9","5f60ebc5da8043011a25ddce","true","755.440000000759","./Stimuli/SelectedImages/SM/SM184.bmp","76","","","","test","true","N + M","76","repetition","SM","SM184.bmp","forget","","82","3","prime1","right","","","",""
"html-keyboard-response","226","430848","0.0-4.0-1.0-3.33","9gy7x3xgtfr9srf","prime","5cb5d3d9bc68400001075adb","5f60e3c0a3b16e07647b2ff9","5f60ebc5da8043011a25ddce","false","null","<div style=""align-items: center; display: flex; color: darkorange; font-size: 90px""><b>ø</b></div>","null","","","","forget_cue","","","","","","","","","","","","","","","",""
"html-keyboard-response","227","431551","0.0-4.0-1.0-0.34","9gy7x3xgtfr9srf","prime","5cb5d3d9bc68400001075adb","5f60e3c0a3b16e07647b2ff9","5f60ebc5da8043011a25ddce","false","null","<span style=""color: black; font-size: 48px"">M + N</span>","null","","","","resp_prompt","","","","","","","","","","","","","","","",""
"categorize-image","228","432462","0.0-4.0-1.0-1.34","9gy7x3xgtfr9srf","prime","5cb5d3d9bc68400001075adb","5f60e3c0a3b16e07647b2ff9","5f60ebc5da8043011a25ddce","true","902.379999999539","./Stimuli/SelectedImages/LN/LN12.bmp","76","","","","test","true","M + N","76","switch","LN","LN12.bmp","remember","","83","3","prime1","right","","","",""
"html-keyboard-response","229","434466","0.0-4.0-1.0-3.34","9gy7x3xgtfr9srf","prime","5cb5d3d9bc68400001075adb","5f60e3c0a3b16e07647b2ff9","5f60ebc5da8043011a25ddce","false","null","<div style=""align-items: center; display: flex; color: dodgerblue; font-size: 90px""><b>o</b></div>","null","","","","forget_cue","","","","","","","","","","","","","","","",""
"html-keyboard-response","230","435169","0.0-4.0-1.0-0.35","9gy7x3xgtfr9srf","prime","5cb5d3d9bc68400001075adb","5f60e3c0a3b16e07647b2ff9","5f60ebc5da8043011a25ddce","false","null","<span style=""color: black; font-size: 48px"">N + M</span>","null","","","","resp_prompt","","","","","","","","","","","","","","","",""
"categorize-image","231","435967","0.0-4.0-1.0-1.35","9gy7x3xgtfr9srf","prime","5cb5d3d9bc68400001075adb","5f60e3c0a3b16e07647b2ff9","5f60ebc5da8043011a25ddce","true","788.9849999992293","./Stimuli/SelectedImages/LM/LM129.bmp","76","","","","test","true","N + M","76","switch","LM","LM129.bmp","forget","","84","3","prime1","right","","","",""
"html-keyboard-response","232","437970","0.0-4.0-1.0-3.35","9gy7x3xgtfr9srf","prime","5cb5d3d9bc68400001075adb","5f60e3c0a3b16e07647b2ff9","5f60ebc5da8043011a25ddce","false","null","<div style=""align-items: center; display: flex; color: darkorange; font-size: 90px""><b>ø</b></div>","null","","","","forget_cue","","","","","","","","","","","","","","","",""
"html-keyboard-response","233","438673","0.0-4.0-1.0-0.36","9gy7x3xgtfr9srf","prime","5cb5d3d9bc68400001075adb","5f60e3c0a3b16e07647b2ff9","5f60ebc5da8043011a25ddce","false","null","<span style=""color: black; font-size: 48px"">N + M</span>","null","","","","resp_prompt","","","","","","","","","","","","","","","",""
"categorize-image","234","439318","0.0-4.0-1.0-1.36","9gy7x3xgtfr9srf","prime","5cb5d3d9bc68400001075adb","5f60e3c0a3b16e07647b2ff9","5f60ebc5da8043011a25ddce","true","635.9000000011292","./Stimuli/SelectedImages/SM/SM195.bmp","76","","","","test","true","N + M","76","repetition","SM","SM195.bmp","forget","","85","3","prime1","right","","","",""
"html-keyboard-response","235","441324","0.0-4.0-1.0-3.36","9gy7x3xgtfr9srf","prime","5cb5d3d9bc68400001075adb","5f60e3c0a3b16e07647b2ff9","5f60ebc5da8043011a25ddce","false","null","<div style=""align-items: center; display: flex; color: darkorange; font-size: 90px""><b>ø</b></div>","null","","","","forget_cue","","","","","","","","","","","","","","","",""
"html-keyboard-response","236","442027","0.0-4.0-1.0-0.37","9gy7x3xgtfr9srf","prime","5cb5d3d9bc68400001075adb","5f60e3c0a3b16e07647b2ff9","5f60ebc5da8043011a25ddce","false","null","<span style=""color: black; font-size: 48px"">M + N</span>","null","","","","resp_prompt","","","","","","","","","","","","","","","",""
"categorize-image","237","442692","0.0-4.0-1.0-1.37","9gy7x3xgtfr9srf","prime","5cb5d3d9bc68400001075adb","5f60e3c0a3b16e07647b2ff9","5f60ebc5da8043011a25ddce","true","656.1499999989173","./Stimuli/SelectedImages/LM/LM100.bmp","83","","","","test","true","M + N","83","switch","LM","LM100.bmp","remember","","86","3","prime1","left","","","",""
"html-keyboard-response","238","444695","0.0-4.0-1.0-3.37","9gy7x3xgtfr9srf","prime","5cb5d3d9bc68400001075adb","5f60e3c0a3b16e07647b2ff9","5f60ebc5da8043011a25ddce","false","null","<div style=""align-items: center; display: flex; color: dodgerblue; font-size: 90px""><b>o</b></div>","null","","","","forget_cue","","","","","","","","","","","","","","","",""
"html-keyboard-response","239","445399","0.0-4.0-1.0-0.38","9gy7x3xgtfr9srf","prime","5cb5d3d9bc68400001075adb","5f60e3c0a3b16e07647b2ff9","5f60ebc5da8043011a25ddce","false","null","<span style=""color: black; font-size: 48px"">N + M</span>","null","","","","resp_prompt","","","","","","","","","","","","","","","",""
"categorize-image","240","446048","0.0-4.0-1.0-1.38","9gy7x3xgtfr9srf","prime","5cb5d3d9bc68400001075adb","5f60e3c0a3b16e07647b2ff9","5f60ebc5da8043011a25ddce","true","639.4899999977788","./Stimuli/SelectedImages/SM/SM205.bmp","76","","","","test","true","N + M","76","repetition","SM","SM205.bmp","remember","","87","3","prime1","right","","","",""
"html-keyboard-response","241","448051","0.0-4.0-1.0-3.38","9gy7x3xgtfr9srf","prime","5cb5d3d9bc68400001075adb","5f60e3c0a3b16e07647b2ff9","5f60ebc5da8043011a25ddce","false","null","<div style=""align-items: center; display: flex; color: dodgerblue; font-size: 90px""><b>o</b></div>","null","","","","forget_cue","","","","","","","","","","","","","","","",""
"html-keyboard-response","242","448754","0.0-4.0-1.0-0.39","9gy7x3xgtfr9srf","prime","5cb5d3d9bc68400001075adb","5f60e3c0a3b16e07647b2ff9","5f60ebc5da8043011a25ddce","false","null","<span style=""color: black; font-size: 48px"">M + N</span>","null","","","","resp_prompt","","","","","","","","","","","","","","","",""
"categorize-image","243","449441","0.0-4.0-1.0-1.39","9gy7x3xgtfr9srf","prime","5cb5d3d9bc68400001075adb","5f60e3c0a3b16e07647b2ff9","5f60ebc5da8043011a25ddce","true","678.89500000095","./Stimuli/SelectedImages/LN/LN177.bmp","76","","","","test","true","M + N","76","repetition","LN","LN177.bmp","remember","","88","3","prime1","right","","","",""
"html-keyboard-response","244","451445","0.0-4.0-1.0-3.39","9gy7x3xgtfr9srf","prime","5cb5d3d9bc68400001075adb","5f60e3c0a3b16e07647b2ff9","5f60ebc5da8043011a25ddce","false","null","<div style=""align-items: center; display: flex; color: dodgerblue; font-size: 90px""><b>o</b></div>","null","","","","forget_cue","","","","","","","","","","","","","","","",""
"html-keyboard-response","245","452148","0.0-4.0-1.0-0.40","9gy7x3xgtfr9srf","prime","5cb5d3d9bc68400001075adb","5f60e3c0a3b16e07647b2ff9","5f60ebc5da8043011a25ddce","false","null","<span style=""color: black; font-size: 48px"">M + N</span>","null","","","","resp_prompt","","","","","","","","","","","","","","","",""
"categorize-image","246","452675","0.0-4.0-1.0-1.40","9gy7x3xgtfr9srf","prime","5cb5d3d9bc68400001075adb","5f60e3c0a3b16e07647b2ff9","5f60ebc5da8043011a25ddce","true","517.2550000024494","./Stimuli/SelectedImages/LM/LM216.bmp","83","","","","test","true","M + N","83","switch","LM","LM216.bmp","forget","","89","3","prime1","left","","","",""
"html-keyboard-response","247","454679","0.0-4.0-1.0-3.40","9gy7x3xgtfr9srf","prime","5cb5d3d9bc68400001075adb","5f60e3c0a3b16e07647b2ff9","5f60ebc5da8043011a25ddce","false","null","<div style=""align-items: center; display: flex; color: darkorange; font-size: 90px""><b>ø</b></div>","null","","","","forget_cue","","","","","","","","","","","","","","","",""
"html-keyboard-response","248","455381","0.0-4.0-1.0-0.41","9gy7x3xgtfr9srf","prime","5cb5d3d9bc68400001075adb","5f60e3c0a3b16e07647b2ff9","5f60ebc5da8043011a25ddce","false","null","<span style=""color: black; font-size: 48px"">N + M</span>","null","","","","resp_prompt","","","","","","","","","","","","","","","",""
"categorize-image","249","456077","0.0-4.0-1.0-1.41","9gy7x3xgtfr9srf","prime","5cb5d3d9bc68400001075adb","5f60e3c0a3b16e07647b2ff9","5f60ebc5da8043011a25ddce","true","686.4150000000955","./Stimuli/SelectedImages/SN/SN182.bmp","83","","","","test","true","N + M","83","switch","SN","SN182.bmp","forget","","90","3","prime1","left","","","",""
"html-keyboard-response","250","458079","0.0-4.0-1.0-3.41","9gy7x3xgtfr9srf","prime","5cb5d3d9bc68400001075adb","5f60e3c0a3b16e07647b2ff9","5f60ebc5da8043011a25ddce","false","null","<div style=""align-items: center; display: flex; color: darkorange; font-size: 90px""><b>ø</b></div>","null","","","","forget_cue","","","","","","","","","","","","","","","",""
"html-keyboard-response","251","458783","0.0-4.0-1.0-0.42","9gy7x3xgtfr9srf","prime","5cb5d3d9bc68400001075adb","5f60e3c0a3b16e07647b2ff9","5f60ebc5da8043011a25ddce","false","null","<span style=""color: black; font-size: 48px"">N + M</span>","null","","","","resp_prompt","","","","","","","","","","","","","","","",""
"categorize-image","252","459208","0.0-4.0-1.0-1.42","9gy7x3xgtfr9srf","prime","5cb5d3d9bc68400001075adb","5f60e3c0a3b16e07647b2ff9","5f60ebc5da8043011a25ddce","true","416.17499999841675","./Stimuli/SelectedImages/LM/LM150.bmp","76","","","","test","true","N + M","76","repetition","LM","LM150.bmp","remember","","91","3","prime1","right","","","",""
"html-keyboard-response","253","461212","0.0-4.0-1.0-3.42","9gy7x3xgtfr9srf","prime","5cb5d3d9bc68400001075adb","5f60e3c0a3b16e07647b2ff9","5f60ebc5da8043011a25ddce","false","null","<div style=""align-items: center; display: flex; color: dodgerblue; font-size: 90px""><b>o</b></div>","null","","","","forget_cue","","","","","","","","","","","","","","","",""
