"trial_type","trial_index","time_elapsed","internal_node_id","subject","exp_part","prolific_PID","study_ID","session_ID","use","rt","stimulus","key_press","button_pressed","responses","question_order","trial_part","correct","resp_map","correct_resp","probe_condition","category","image","forget_condition","list","trial_num","block_num","block","response","test_part","n_span","sequence","num_spaces"
"pavlovia","0","7","0.0-0.0","cztywpo5oy3x9n6","","5f29a219fd79260ef749a01d","5f60e3c0a3b16e07647b2ff9","5f63802bb433440698b009e6","false","","","","","","","","","","","","","","","","","","","","","","",""
"html-keyboard-response","1","12562","0.0-1.0-0.0-0.0","cztywpo5oy3x9n6","welcome","5f29a219fd79260ef749a01d","5f60e3c0a3b16e07647b2ff9","5f63802bb433440698b009e6","false","12551.890000002459","<div align=left>Dear participant, <br> thank you for participating in an online study of the Cognition, Action, and Sustainability Unit of the University of Freiburg! <br> <br>The aim of this study is to examine our ability to remember previously learned information. <br>Our goal is to find out, whether our memory improves, when we only remember information that is relevant to us. <br>The experiment will take about 35 minutes to complete. <br> <br>Please, note that you can only participate in this study if you are using a device with a keyboard (PC, Laptop etc.) <br>and not if you are using a mobile device such as a tablet or smartphone.<br> <br>Press 'SPACE' to proceed to the experiment. </div>","32","","","","","","","","","","","","","","","","","","","",""
"html-keyboard-response","2","33908","0.0-1.0-0.0-1.0","cztywpo5oy3x9n6","welcome","5f29a219fd79260ef749a01d","5f60e3c0a3b16e07647b2ff9","5f63802bb433440698b009e6","false","21343.85000000475","<div align=left><strong> Time Course of this experiment: </strong> <br><br> <strong> 1.</strong>  First, please fill in some information regarding your demographic data. <br><br> <strong> 2.</strong>  Next, your task will be to classify everyday objects. <br>In addition, you will be asked to remember certain objects and recall them later. <br>Working on these tasks requires your undivided attention and concentration.<br>It is therefore essential that you eliminate any sources of distraction in your  <br>environment and ensure that you will not be disturbed. <br><br><strong> 3.</strong>  At the end of the experiment, you will be asked to answer a few additional questions. <br> <br><strong> Important:</strong> After finishing the experiment, only close the browser window <br> by clicking on the 'end the experiment'-button when you are asked to do so. <br>Closing the browser window prematurely will make the allocation of your participation credit impossible. <br><br> Press 'SPACE' to start the experiment. </div>","32","","","","","","","","","","","","","","","","","","","",""
"html-button-response","3","47523","0.0-1.0-0.0-2.0","cztywpo5oy3x9n6","welcome","5f29a219fd79260ef749a01d","5f60e3c0a3b16e07647b2ff9","5f63802bb433440698b009e6","true","13612.084999971557","<div align=left><strong> Informed consent </strong>  <br>The aim of our research is to better understand human behavior and mental processes. <br>In the following study your behavior (e.g. choices, reaction times) will be studied. <br> <br><strong> Voluntariness and Anonymity </strong> <br>Your participation in this study is  <strong> voluntary</strong>.<br>You may withdraw your consent to participate at any time without providing a reason for doing so and without fear of prejudice. <br><br>As no personal data will be collected, <strong>your data and your person cannot be connected after data collection</strong> – the data-set is anonymous. <br>Respectively, deletion of your data will not be possible after data collection has been completed, as we cannot retrace your data-set.<br>The results and anonymized data collected in this study will be published as a scientific publication. <br>This will happen in an <strong>anonymized format</strong>, so that no data can be traced back to a specific person. <br> <br>The anonymized data of this study will be made available to other researchers and/or in a data archive on the Internet as a means of transparency and to enable subsequent re-use. By doing so, this study follows the recommendations of the Deutsche Forschungsgemeinschaft (DFG, German Research Foundation) and Deutsche Gesellschaft für Psychologie (DGPS, German Psychological Society) regarding quality assurance in research.<br>If you have any questions now or after the experiment, please contact our team (experiments@cs.uni-freiburg.de).<br><br><br>I hereby declare, that I understand the above described conditions of participation and I agree to participate under these conditions. <br><br> </div>","","0","","","","","","","","","","","","","","","","","","",""
"html-keyboard-response","4","131632","0.0-1.0-0.0-3.0","cztywpo5oy3x9n6","welcome","5f29a219fd79260ef749a01d","5f60e3c0a3b16e07647b2ff9","5f63802bb433440698b009e6","false","84107.47999994783","<div align=left><strong> General information concerning the experiment </strong>  <br> <br>Please follow the instructions:<ol> <li><strong> Do not leave this tab (your browser window) during the experiment and do not reload this tab! </strong>  <br>If you do switch tabs/windows during the experiment (to check your mail or visit another website, for example), <br>the experiment will end automatically and you will <strong>not receive credit</strong> for your participation. <br>Repeated participation or resumption of the experiment is impossible.</li> <br><li>Please close all other programs for the duration of your participation. </li> <br><li>Please mute or turn off your phone and put it out of your reach. </li> <br><li>Please also take off any disturbing accessories (such as wristwatches, bracelets, etc.). </li> <br><li>If you have music playing in the background, please turn it off now. </li> <br></ol>Thank you! <br>Press 'SPACE' to continue. </div>","32","","","","","","","","","","","","","","","","","","","",""
"survey-text","5","136640","0.0-1.0-1.0-0.0","cztywpo5oy3x9n6","demographics","5f29a219fd79260ef749a01d","5f60e3c0a3b16e07647b2ff9","5f63802bb433440698b009e6","true","4940.0299999979325","","","","{""age"":""18""}","","","","","","","","","","","","","","","","","",""
"survey-multi-choice","6","149534","0.0-1.0-1.0-1.0","cztywpo5oy3x9n6","demographics","5f29a219fd79260ef749a01d","5f60e3c0a3b16e07647b2ff9","5f63802bb433440698b009e6","true","12866.474999987986","","","","{""gender"":""male"",""school"":""high school"",""education"":""Still in training/ university""}","[0,1,2]","","","","","","","","","","","","","","","","",""
"survey-text","7","178024","0.0-1.0-1.0-2.0-0.0","cztywpo5oy3x9n6","demographics","5f29a219fd79260ef749a01d","5f60e3c0a3b16e07647b2ff9","5f63802bb433440698b009e6","true","28316.0650000209","","","","{""education_text"":""Spanish and linquistic science""}","","","","","","","","","","","","","","","","","",""
"html-keyboard-response","8","206115","0.0-1.0-2.0","cztywpo5oy3x9n6","instructions","5f29a219fd79260ef749a01d","5f60e3c0a3b16e07647b2ff9","5f63802bb433440698b009e6","false","28088.350000034552","<div align=left> The experiment is now about to start: <br> <br>In the following part, you will be presented pictures of everyday objects. <br>Your first task is to <strong>classify these objects. </strong> <br> <br> You will classify them either as mechanical or non-mechanical objects. <br> <br>Objects that include any kind of technical mechanism (for example, wheels, switches, levers, <br> electronic components) fall under the category of <strong>mechanical</strong> objects. <br>Only objects without any kind of technical mechanism should be classified as <strong>non-mechanical</strong>. <br><br>Press 'SPACE' to continue. </div>","32","","","","","","","","","","","","","","","","","","","",""
"html-keyboard-response","9","280125","0.0-2.0-0.0","cztywpo5oy3x9n6","instructions","5f29a219fd79260ef749a01d","5f60e3c0a3b16e07647b2ff9","5f63802bb433440698b009e6","false","74006.1749999877","<div align=justify>You will classify the objects using the <strong>'S'</strong> and the <strong>'L'</strong> keys on your keyboard.<br>For doing so, please place your <strong>left index finger</strong> on the <strong>'S'</strong> key and place your <strong>right index finger</strong> on the <strong>'L'</strong> key. <br><br> Each trial starts with an instruction, indicating which key ('S'/'L') you need to press to classify <br>the object as mechanical (letter M) or non-mechanical (letter N).<br>The instruction <strong>M + N</strong> indicates that, in the current trial, by pressing the left key ('S') you classify the displayed object as mechanical (M) <br> and by pressing the right key ('L') you classify the object as non-mechanical (N). <br>The instruction <strong>N + M</strong> on the other hand indicates that by pressing the left key ('S') you classify the displayed object as non-mechanical (N) <br> and by pressing the right key ('L') you classify the object as mechanical (M). <br><br>Please press the key corresponding to the correct classification as fast as possible as soon as the object is displayed and try to avoid making mistakes.<br>If you do not respond within a 2 second window, a corresponding feedback will be displayed and the next trial will start.<br> The experiment is divided into multiple blocks to give you the opportunity to take a break after each block. <br>First, you can now practice this task. <br><br>Please place your <strong>LEFT INDEX FINGER</strong> on the 'S' key and your <strong>RIGHT INDEX FINGER</strong> on the 'L' key now. <br><br>Press SPACE to continue.</div>","32","","","","","","","","","","","","","","","","","","","",""
"html-keyboard-response","10","293427","0.0-2.0-1.0","cztywpo5oy3x9n6","instructions","5f29a219fd79260ef749a01d","5f60e3c0a3b16e07647b2ff9","5f63802bb433440698b009e6","false","13300.840000039898","<div align=left> You will now have time to practice this task.<br><br>Remember: <br> <br><li>Please place your index fingers on the <strong>'S'</strong> and <strong>'L'</strong> keys <br>to respond as fast and accurately as possible.</li><li>Every picture can be classified as either mechanical or non-mechanical.</li><li>If you do not respond in time or commit an error, you will receive a corresponding feedback. </li><li> Please try to respond as <strong> fast </strong> and as <strong> accurately as possible </strong> .<br><li>To ensure optimal results, please minimize distractions and stay focused. </li><br><br>Press SPACE to continue.</div>","32","","","","","","","","","","","","","","","","","","","",""
"html-keyboard-response","11","294131","0.0-2.0-2.0-0.0","cztywpo5oy3x9n6","practice_no_cue","5f29a219fd79260ef749a01d","5f60e3c0a3b16e07647b2ff9","5f63802bb433440698b009e6","false","null","<span style=""color: black; font-size: 48px"">N + M</span>","null","","","","resp_prompt","","","","","","","","","","","","","","","",""
"categorize-image","12","296787","0.0-2.0-2.0-1.0","cztywpo5oy3x9n6","practice_no_cue","5f29a219fd79260ef749a01d","5f60e3c0a3b16e07647b2ff9","5f63802bb433440698b009e6","true","null","./Stimuli/ImagesPractice/LN4.jpg","null","","","","test","false","N + M","83","","LN","LN4.jpg","remember","old","1","1","start","too_slow","","","",""
"html-keyboard-response","13","297496","0.0-2.0-2.0-0.1","cztywpo5oy3x9n6","practice_no_cue","5f29a219fd79260ef749a01d","5f60e3c0a3b16e07647b2ff9","5f63802bb433440698b009e6","false","null","<span style=""color: black; font-size: 48px"">M + N</span>","null","","","","resp_prompt","","","","","","","","","","","","","","","",""
"categorize-image","14","298596","0.0-2.0-2.0-1.1","cztywpo5oy3x9n6","practice_no_cue","5f29a219fd79260ef749a01d","5f60e3c0a3b16e07647b2ff9","5f63802bb433440698b009e6","true","592.499999969732","./Stimuli/ImagesPractice/LM230.jpg","76","","","","test","false","M + N","83","","LM","LM230.jpg","remember","old","2","1","start","right","","","",""
"html-keyboard-response","15","299299","0.0-2.0-2.0-0.2","cztywpo5oy3x9n6","practice_no_cue","5f29a219fd79260ef749a01d","5f60e3c0a3b16e07647b2ff9","5f63802bb433440698b009e6","false","null","<span style=""color: black; font-size: 48px"">M + N</span>","null","","","","resp_prompt","","","","","","","","","","","","","","","",""
"categorize-image","16","300311","0.0-2.0-2.0-1.2","cztywpo5oy3x9n6","practice_no_cue","5f29a219fd79260ef749a01d","5f60e3c0a3b16e07647b2ff9","5f63802bb433440698b009e6","true","502.19500000821427","./Stimuli/ImagesPractice/SM62.jpg","76","","","","test","false","M + N","83","","SM","SM62.jpg","remember","old","3","1","start","right","","","",""
"html-keyboard-response","17","301015","0.0-2.0-2.0-0.3","cztywpo5oy3x9n6","practice_no_cue","5f29a219fd79260ef749a01d","5f60e3c0a3b16e07647b2ff9","5f63802bb433440698b009e6","false","null","<span style=""color: black; font-size: 48px"">M + N</span>","null","","","","resp_prompt","","","","","","","","","","","","","","","",""
"categorize-image","18","302167","0.0-2.0-2.0-1.3","cztywpo5oy3x9n6","practice_no_cue","5f29a219fd79260ef749a01d","5f60e3c0a3b16e07647b2ff9","5f63802bb433440698b009e6","true","634.8400000133552","./Stimuli/ImagesPractice/SM97.jpg","76","","","","test","false","M + N","83","","SM","SM97.jpg","remember","old","4","1","start","right","","","",""
"html-keyboard-response","19","302870","0.0-2.0-2.0-0.4","cztywpo5oy3x9n6","practice_no_cue","5f29a219fd79260ef749a01d","5f60e3c0a3b16e07647b2ff9","5f63802bb433440698b009e6","false","null","<span style=""color: black; font-size: 48px"">M + N</span>","null","","","","resp_prompt","","","","","","","","","","","","","","","",""
"categorize-image","20","304079","0.0-2.0-2.0-1.4","cztywpo5oy3x9n6","practice_no_cue","5f29a219fd79260ef749a01d","5f60e3c0a3b16e07647b2ff9","5f63802bb433440698b009e6","true","654.4850000063889","./Stimuli/ImagesPractice/SN220.jpg","76","","","","test","true","M + N","76","","SN","SN220.jpg","forget","old","5","1","start","right","","","",""
"html-keyboard-response","21","304790","0.0-2.0-2.0-0.5","cztywpo5oy3x9n6","practice_no_cue","5f29a219fd79260ef749a01d","5f60e3c0a3b16e07647b2ff9","5f63802bb433440698b009e6","false","null","<span style=""color: black; font-size: 48px"">N + M</span>","null","","","","resp_prompt","","","","","","","","","","","","","","","",""
"categorize-image","22","306020","0.0-2.0-2.0-1.5","cztywpo5oy3x9n6","practice_no_cue","5f29a219fd79260ef749a01d","5f60e3c0a3b16e07647b2ff9","5f63802bb433440698b009e6","true","714.0549999894574","./Stimuli/ImagesPractice/LM55.jpg","76","","","","test","true","N + M","76","","LM","LM55.jpg","forget","old","6","1","start","right","","","",""
"html-keyboard-response","23","306734","0.0-2.0-2.0-0.6","cztywpo5oy3x9n6","practice_no_cue","5f29a219fd79260ef749a01d","5f60e3c0a3b16e07647b2ff9","5f63802bb433440698b009e6","false","null","<span style=""color: black; font-size: 48px"">N + M</span>","null","","","","resp_prompt","","","","","","","","","","","","","","","",""
"categorize-image","24","307885","0.0-2.0-2.0-1.6","cztywpo5oy3x9n6","practice_no_cue","5f29a219fd79260ef749a01d","5f60e3c0a3b16e07647b2ff9","5f63802bb433440698b009e6","true","644.9399999692105","./Stimuli/ImagesPractice/LN17.jpg","83","","","","test","true","N + M","83","","LN","LN17.jpg","remember","old","7","1","start","left","","","",""
"html-keyboard-response","25","308589","0.0-2.0-2.0-0.7","cztywpo5oy3x9n6","practice_no_cue","5f29a219fd79260ef749a01d","5f60e3c0a3b16e07647b2ff9","5f63802bb433440698b009e6","false","null","<span style=""color: black; font-size: 48px"">N + M</span>","null","","","","resp_prompt","","","","","","","","","","","","","","","",""
"categorize-image","26","309621","0.0-2.0-2.0-1.7","cztywpo5oy3x9n6","practice_no_cue","5f29a219fd79260ef749a01d","5f60e3c0a3b16e07647b2ff9","5f63802bb433440698b009e6","true","527.7200000127777","./Stimuli/ImagesPractice/SN205.jpg","83","","","","test","true","N + M","83","","SN","SN205.jpg","forget","old","8","1","start","left","","","",""
"html-keyboard-response","27","310326","0.0-2.0-2.0-0.8","cztywpo5oy3x9n6","practice_no_cue","5f29a219fd79260ef749a01d","5f60e3c0a3b16e07647b2ff9","5f63802bb433440698b009e6","false","null","<span style=""color: black; font-size: 48px"">N + M</span>","null","","","","resp_prompt","","","","","","","","","","","","","","","",""
"categorize-image","28","311457","0.0-2.0-2.0-1.8","cztywpo5oy3x9n6","practice_no_cue","5f29a219fd79260ef749a01d","5f60e3c0a3b16e07647b2ff9","5f63802bb433440698b009e6","true","606.9850000203587","./Stimuli/ImagesPractice/SN221.jpg","83","","","","test","true","N + M","83","","SN","SN221.jpg","remember","old","9","1","start","left","","","",""
"html-keyboard-response","29","312161","0.0-2.0-2.0-0.9","cztywpo5oy3x9n6","practice_no_cue","5f29a219fd79260ef749a01d","5f60e3c0a3b16e07647b2ff9","5f63802bb433440698b009e6","false","null","<span style=""color: black; font-size: 48px"">N + M</span>","null","","","","resp_prompt","","","","","","","","","","","","","","","",""
"categorize-image","30","313265","0.0-2.0-2.0-1.9","cztywpo5oy3x9n6","practice_no_cue","5f29a219fd79260ef749a01d","5f60e3c0a3b16e07647b2ff9","5f63802bb433440698b009e6","true","589.9150000186637","./Stimuli/ImagesPractice/SN76.jpg","83","","","","test","true","N + M","83","","SN","SN76.jpg","forget","old","10","1","start","left","","","",""
"html-keyboard-response","31","313983","0.0-2.0-2.0-0.10","cztywpo5oy3x9n6","practice_no_cue","5f29a219fd79260ef749a01d","5f60e3c0a3b16e07647b2ff9","5f63802bb433440698b009e6","false","null","<span style=""color: black; font-size: 48px"">N + M</span>","null","","","","resp_prompt","","","","","","","","","","","","","","","",""
"categorize-image","32","315132","0.0-2.0-2.0-1.10","cztywpo5oy3x9n6","practice_no_cue","5f29a219fd79260ef749a01d","5f60e3c0a3b16e07647b2ff9","5f63802bb433440698b009e6","true","641.1349999834783","./Stimuli/ImagesPractice/SM37.jpg","76","","","","test","true","N + M","76","","SM","SM37.jpg","remember","old","11","1","start","right","","","",""
"html-keyboard-response","33","315839","0.0-2.0-2.0-0.11","cztywpo5oy3x9n6","practice_no_cue","5f29a219fd79260ef749a01d","5f60e3c0a3b16e07647b2ff9","5f63802bb433440698b009e6","false","null","<span style=""color: black; font-size: 48px"">M + N</span>","null","","","","resp_prompt","","","","","","","","","","","","","","","",""
"categorize-image","34","317039","0.0-2.0-2.0-1.11","cztywpo5oy3x9n6","practice_no_cue","5f29a219fd79260ef749a01d","5f60e3c0a3b16e07647b2ff9","5f63802bb433440698b009e6","true","689.284999971278","./Stimuli/ImagesPractice/SM61.jpg","83","","","","test","true","M + N","83","","SM","SM61.jpg","forget","old","12","1","start","left","","","",""
"html-keyboard-response","35","317746","0.0-2.0-2.0-0.12","cztywpo5oy3x9n6","practice_no_cue","5f29a219fd79260ef749a01d","5f60e3c0a3b16e07647b2ff9","5f63802bb433440698b009e6","false","null","<span style=""color: black; font-size: 48px"">M + N</span>","null","","","","resp_prompt","","","","","","","","","","","","","","","",""
"categorize-image","36","318900","0.0-2.0-2.0-1.12","cztywpo5oy3x9n6","practice_no_cue","5f29a219fd79260ef749a01d","5f60e3c0a3b16e07647b2ff9","5f63802bb433440698b009e6","true","643.1449999799952","./Stimuli/ImagesPractice/LN2.jpg","76","","","","test","true","M + N","76","","LN","LN2.jpg","forget","old","13","1","start","right","","","",""
"html-keyboard-response","37","319607","0.0-2.0-2.0-0.13","cztywpo5oy3x9n6","practice_no_cue","5f29a219fd79260ef749a01d","5f60e3c0a3b16e07647b2ff9","5f63802bb433440698b009e6","false","null","<span style=""color: black; font-size: 48px"">N + M</span>","null","","","","resp_prompt","","","","","","","","","","","","","","","",""
"categorize-image","38","320675","0.0-2.0-2.0-1.13","cztywpo5oy3x9n6","practice_no_cue","5f29a219fd79260ef749a01d","5f60e3c0a3b16e07647b2ff9","5f63802bb433440698b009e6","true","561.8799999938346","./Stimuli/ImagesPractice/SM35.jpg","76","","","","test","true","N + M","76","","SM","SM35.jpg","forget","old","14","1","start","right","","","",""
"html-keyboard-response","39","321382","0.0-2.0-2.0-0.14","cztywpo5oy3x9n6","practice_no_cue","5f29a219fd79260ef749a01d","5f60e3c0a3b16e07647b2ff9","5f63802bb433440698b009e6","false","null","<span style=""color: black; font-size: 48px"">M + N</span>","null","","","","resp_prompt","","","","","","","","","","","","","","","",""
"categorize-image","40","322939","0.0-2.0-2.0-1.14","cztywpo5oy3x9n6","practice_no_cue","5f29a219fd79260ef749a01d","5f60e3c0a3b16e07647b2ff9","5f63802bb433440698b009e6","true","1044.5900000049733","./Stimuli/ImagesPractice/SM98.jpg","83","","","","test","true","M + N","83","","SM","SM98.jpg","remember","old","15","1","start","left","","","",""
"html-keyboard-response","41","323643","0.0-2.0-2.0-0.15","cztywpo5oy3x9n6","practice_no_cue","5f29a219fd79260ef749a01d","5f60e3c0a3b16e07647b2ff9","5f63802bb433440698b009e6","false","null","<span style=""color: black; font-size: 48px"">M + N</span>","null","","","","resp_prompt","","","","","","","","","","","","","","","",""
"categorize-image","42","324713","0.0-2.0-2.0-1.15","cztywpo5oy3x9n6","practice_no_cue","5f29a219fd79260ef749a01d","5f60e3c0a3b16e07647b2ff9","5f63802bb433440698b009e6","true","565.824999997858","./Stimuli/ImagesPractice/SN222.jpg","76","","","","test","true","M + N","76","","SN","SN222.jpg","forget","old","16","1","start","right","","","",""
"html-keyboard-response","43","338304","0.0-2.0-3.0","cztywpo5oy3x9n6","break","5f29a219fd79260ef749a01d","5f60e3c0a3b16e07647b2ff9","5f63802bb433440698b009e6","false","13582.085000001825","<p style='font-size: 32px;'>Break</><br><br><br><br><br><p style='font-size: 24px;'>In the last block, you committed 3 errors and did not respond in time on 1 trials.
</p><p style='font-size: 24px;'>Try to respond as fast and accurately as possible in the next block as well! </p><p style='font-size: 24px;'>Press SPACE to continue.</p>","32","","","","","","","","","","","","","","","","","","","",""
"html-keyboard-response","44","342182","0.0-2.0-4.0","cztywpo5oy3x9n6","instructions","5f29a219fd79260ef749a01d","5f60e3c0a3b16e07647b2ff9","5f63802bb433440698b009e6","false","3874.9949999619275","<div align=left> Great!<br><br>Are you ready to continue?<br><br>If you want to reread the instructions and redo the practice trials, <br>please press „Z“. <br><br>Press SPACE to CONTINUE with the experiment when you are ready. </div>","32","","","","","","","","","","","","","","","","","","","",""
"html-keyboard-response","45","368757","0.0-3.0-0.0","cztywpo5oy3x9n6","instructions","5f29a219fd79260ef749a01d","5f60e3c0a3b16e07647b2ff9","5f63802bb433440698b009e6","false","26570.415000023786","<div align=left>Great!<br> <strong>Attention</strong>! You will now receive a second, additional task! <br><br>To this point it was you <strong>first task</strong> to correctly <strong>classify objects</strong>. <br><br>As mentioned in the beginning, we aim to examine how well humans can remember previously learned information.<br>We would like to find out whether our memory improves if we only remember information that is relevant to us. <br><br>Therefore, your <strong>second task</strong> will be to <strong>remember</strong> the pictures you are to categorize. <br> After the learning phase, there will be a memory test phase, in which you will be asked to indicate whether you have seen a picture before or not. <br>Some, but not all pictures shown in the learning phase will appear in the memory test phase.<br>After classifying a picture, you will be told whether you should remember it for the memory test phase or not. <br>Thus, some pictures can be forgotten, whereas others have to be remembered. <br><br>Note: From now on, feedback will only be displayed if you responded incorrectly or not in time.<br><br>Press SPACE to continue.</div>","32","","","","","","","","","","","","","","","","","","","",""
"html-keyboard-response","46","383892","0.0-3.0-1.0","cztywpo5oy3x9n6","instructions","5f29a219fd79260ef749a01d","5f60e3c0a3b16e07647b2ff9","5f63802bb433440698b009e6","false","15133.97000002442","<div align=left>In the following part, you will thus have to remember only some pictures. <br>Immediately after seeing and classifying the picture, a symbol will be displayed, indicating whether you should remember or forget the previous picture. <br><br>A <span style='color: dodgerblue; font-size: 28px'>O</span> indicates REMEMBER. That means, you have to remember this picture, because it will be tested later. <br><br>A <span style='color: darkorange; font-size:28px'>Ø</span> indicates FORGET. You do not have to remember this picture. <br><br> As you will have to remember a lot of pictures, it will be hard for you to remember all of them. <br>It will put you at an advantage if you instantly forget the pictures you are not asked to remember. <br> This will make it easier for you to remember the pictures that will be tested afterwards. <br><br>Press SPACE to continue.</div>","32","","","","","","","","","","","","","","","","","","","",""
"html-keyboard-response","47","386743","0.0-3.0-2.0","cztywpo5oy3x9n6","instructions","5f29a219fd79260ef749a01d","5f60e3c0a3b16e07647b2ff9","5f63802bb433440698b009e6","false","2849.1700000013225","<div align=left> Now you have the chance to practice both tasks together.<br><br>Remember: <br> <br><li>Please place your index fingers on the <strong>'S'</strong> and <strong>'L'</strong> keys <br>to respond as fast and accurately as possible.</li><li>Every picture can be classified as either mechanical or non-mechanical.</li><li>If you do not respond in time or commit an error, you will receive a corresponding feedback. <br>Please try to respond as <strong> fast </strong> and as <strong> accurately as possible </strong>.</li><li> Please remember only the to-be-remembered <span style='color: dodgerblue; font-size: 28px'>O</span> pictures. <br></li><li> Please minimize distractions and stay focused. </li><br><br>Press SPACE to START</div>","32","","","","","","","","","","","","","","","","","","","",""
"html-keyboard-response","48","387450","0.0-3.0-3.0-0.0","cztywpo5oy3x9n6","practice_cue","5f29a219fd79260ef749a01d","5f60e3c0a3b16e07647b2ff9","5f63802bb433440698b009e6","false","null","<span style=""color: black; font-size: 48px"">N + M</span>","null","","","","resp_prompt","","","","","","","","","","","","","","","",""
"categorize-image","49","388297","0.0-3.0-3.0-1.0","cztywpo5oy3x9n6","practice_cue","5f29a219fd79260ef749a01d","5f60e3c0a3b16e07647b2ff9","5f63802bb433440698b009e6","true","731.1650000046939","./Stimuli/ImagesPractice/SN76.jpg","83","","","","test","true","N + M","83","","SN","SN76.jpg","forget","old","17","2","practice_forget","left","","","",""
"html-keyboard-response","50","390314","0.0-3.0-3.0-3.0","cztywpo5oy3x9n6","practice_cue","5f29a219fd79260ef749a01d","5f60e3c0a3b16e07647b2ff9","5f63802bb433440698b009e6","false","null","<div style=""align-items: center; display: flex; color: darkorange; font-size: 90px""><b>ø</b></div>","null","","","","forget_cue","","","","","","","","","","","","","","","",""
"html-keyboard-response","51","391018","0.0-3.0-3.0-0.1","cztywpo5oy3x9n6","practice_cue","5f29a219fd79260ef749a01d","5f60e3c0a3b16e07647b2ff9","5f63802bb433440698b009e6","false","null","<span style=""color: black; font-size: 48px"">N + M</span>","null","","","","resp_prompt","","","","","","","","","","","","","","","",""
"categorize-image","52","391799","0.0-3.0-3.0-1.1","cztywpo5oy3x9n6","practice_cue","5f29a219fd79260ef749a01d","5f60e3c0a3b16e07647b2ff9","5f63802bb433440698b009e6","true","770.3050000127405","./Stimuli/ImagesPractice/SM37.jpg","76","","","","test","true","N + M","76","","SM","SM37.jpg","remember","old","18","2","practice_forget","right","","","",""
"html-keyboard-response","53","393807","0.0-3.0-3.0-3.1","cztywpo5oy3x9n6","practice_cue","5f29a219fd79260ef749a01d","5f60e3c0a3b16e07647b2ff9","5f63802bb433440698b009e6","false","null","<div style=""align-items: center; display: flex; color: dodgerblue; font-size: 90px""><b>o</b></div>","null","","","","forget_cue","","","","","","","","","","","","","","","",""
"html-keyboard-response","54","394515","0.0-3.0-3.0-0.2","cztywpo5oy3x9n6","practice_cue","5f29a219fd79260ef749a01d","5f60e3c0a3b16e07647b2ff9","5f63802bb433440698b009e6","false","null","<span style=""color: black; font-size: 48px"">M + N</span>","null","","","","resp_prompt","","","","","","","","","","","","","","","",""
"categorize-image","55","395478","0.0-3.0-3.0-1.2","cztywpo5oy3x9n6","practice_cue","5f29a219fd79260ef749a01d","5f60e3c0a3b16e07647b2ff9","5f63802bb433440698b009e6","true","938.5350000229664","./Stimuli/ImagesPractice/SN222.jpg","76","","","","test","true","M + N","76","","SN","SN222.jpg","forget","old","19","2","practice_forget","right","","","",""
"html-keyboard-response","56","397487","0.0-3.0-3.0-3.2","cztywpo5oy3x9n6","practice_cue","5f29a219fd79260ef749a01d","5f60e3c0a3b16e07647b2ff9","5f63802bb433440698b009e6","false","null","<div style=""align-items: center; display: flex; color: darkorange; font-size: 90px""><b>ø</b></div>","null","","","","forget_cue","","","","","","","","","","","","","","","",""
"html-keyboard-response","57","398200","0.0-3.0-3.0-0.3","cztywpo5oy3x9n6","practice_cue","5f29a219fd79260ef749a01d","5f60e3c0a3b16e07647b2ff9","5f63802bb433440698b009e6","false","null","<span style=""color: black; font-size: 48px"">N + M</span>","null","","","","resp_prompt","","","","","","","","","","","","","","","",""
"categorize-image","58","398854","0.0-3.0-3.0-1.3","cztywpo5oy3x9n6","practice_cue","5f29a219fd79260ef749a01d","5f60e3c0a3b16e07647b2ff9","5f63802bb433440698b009e6","true","641.8450000346638","./Stimuli/ImagesPractice/SN205.jpg","83","","","","test","true","N + M","83","","SN","SN205.jpg","forget","old","20","2","practice_forget","left","","","",""
"html-keyboard-response","59","400868","0.0-3.0-3.0-3.3","cztywpo5oy3x9n6","practice_cue","5f29a219fd79260ef749a01d","5f60e3c0a3b16e07647b2ff9","5f63802bb433440698b009e6","false","null","<div style=""align-items: center; display: flex; color: darkorange; font-size: 90px""><b>ø</b></div>","null","","","","forget_cue","","","","","","","","","","","","","","","",""
"html-keyboard-response","60","401607","0.0-3.0-3.0-0.4","cztywpo5oy3x9n6","practice_cue","5f29a219fd79260ef749a01d","5f60e3c0a3b16e07647b2ff9","5f63802bb433440698b009e6","false","null","<span style=""color: black; font-size: 48px"">M + N</span>","null","","","","resp_prompt","","","","","","","","","","","","","","","",""
"categorize-image","61","402369","0.0-3.0-3.0-1.4","cztywpo5oy3x9n6","practice_cue","5f29a219fd79260ef749a01d","5f60e3c0a3b16e07647b2ff9","5f63802bb433440698b009e6","true","744.5399999851361","./Stimuli/ImagesPractice/SM98.jpg","83","","","","test","true","M + N","83","","SM","SM98.jpg","remember","old","21","2","practice_forget","left","","","",""
"html-keyboard-response","62","404386","0.0-3.0-3.0-3.4","cztywpo5oy3x9n6","practice_cue","5f29a219fd79260ef749a01d","5f60e3c0a3b16e07647b2ff9","5f63802bb433440698b009e6","false","null","<div style=""align-items: center; display: flex; color: dodgerblue; font-size: 90px""><b>o</b></div>","null","","","","forget_cue","","","","","","","","","","","","","","","",""
"html-keyboard-response","63","405184","0.0-3.0-3.0-0.5","cztywpo5oy3x9n6","practice_cue","5f29a219fd79260ef749a01d","5f60e3c0a3b16e07647b2ff9","5f63802bb433440698b009e6","false","null","<span style=""color: black; font-size: 48px"">N + M</span>","null","","","","resp_prompt","","","","","","","","","","","","","","","",""
"categorize-image","64","405955","0.0-3.0-3.0-1.5","cztywpo5oy3x9n6","practice_cue","5f29a219fd79260ef749a01d","5f60e3c0a3b16e07647b2ff9","5f63802bb433440698b009e6","true","757.3299999930896","./Stimuli/ImagesPractice/SN221.jpg","83","","","","test","true","N + M","83","","SN","SN221.jpg","remember","old","22","2","practice_forget","left","","","",""
"html-keyboard-response","65","407964","0.0-3.0-3.0-3.5","cztywpo5oy3x9n6","practice_cue","5f29a219fd79260ef749a01d","5f60e3c0a3b16e07647b2ff9","5f63802bb433440698b009e6","false","null","<div style=""align-items: center; display: flex; color: dodgerblue; font-size: 90px""><b>o</b></div>","null","","","","forget_cue","","","","","","","","","","","","","","","",""
"html-keyboard-response","66","408673","0.0-3.0-3.0-0.6","cztywpo5oy3x9n6","practice_cue","5f29a219fd79260ef749a01d","5f60e3c0a3b16e07647b2ff9","5f63802bb433440698b009e6","false","null","<span style=""color: black; font-size: 48px"">N + M</span>","null","","","","resp_prompt","","","","","","","","","","","","","","","",""
"categorize-image","67","409365","0.0-3.0-3.0-1.6","cztywpo5oy3x9n6","practice_cue","5f29a219fd79260ef749a01d","5f60e3c0a3b16e07647b2ff9","5f63802bb433440698b009e6","true","671.8200000468642","./Stimuli/ImagesPractice/LN17.jpg","83","","","","test","true","N + M","83","","LN","LN17.jpg","remember","old","23","2","practice_forget","left","","","",""
"html-keyboard-response","68","411372","0.0-3.0-3.0-3.6","cztywpo5oy3x9n6","practice_cue","5f29a219fd79260ef749a01d","5f60e3c0a3b16e07647b2ff9","5f63802bb433440698b009e6","false","null","<div style=""align-items: center; display: flex; color: dodgerblue; font-size: 90px""><b>o</b></div>","null","","","","forget_cue","","","","","","","","","","","","","","","",""
"html-keyboard-response","69","412079","0.0-3.0-3.0-0.7","cztywpo5oy3x9n6","practice_cue","5f29a219fd79260ef749a01d","5f60e3c0a3b16e07647b2ff9","5f63802bb433440698b009e6","false","null","<span style=""color: black; font-size: 48px"">N + M</span>","null","","","","resp_prompt","","","","","","","","","","","","","","","",""
"categorize-image","70","412811","0.0-3.0-3.0-1.7","cztywpo5oy3x9n6","practice_cue","5f29a219fd79260ef749a01d","5f60e3c0a3b16e07647b2ff9","5f63802bb433440698b009e6","true","720.8499999833293","./Stimuli/ImagesPractice/LM55.jpg","76","","","","test","true","N + M","76","","LM","LM55.jpg","forget","old","24","2","practice_forget","right","","","",""
"html-keyboard-response","71","414816","0.0-3.0-3.0-3.7","cztywpo5oy3x9n6","practice_cue","5f29a219fd79260ef749a01d","5f60e3c0a3b16e07647b2ff9","5f63802bb433440698b009e6","false","null","<div style=""align-items: center; display: flex; color: darkorange; font-size: 90px""><b>ø</b></div>","null","","","","forget_cue","","","","","","","","","","","","","","","",""
"html-keyboard-response","72","415525","0.0-3.0-3.0-0.8","cztywpo5oy3x9n6","practice_cue","5f29a219fd79260ef749a01d","5f60e3c0a3b16e07647b2ff9","5f63802bb433440698b009e6","false","null","<span style=""color: black; font-size: 48px"">N + M</span>","null","","","","resp_prompt","","","","","","","","","","","","","","","",""
"categorize-image","73","416248","0.0-3.0-3.0-1.8","cztywpo5oy3x9n6","practice_cue","5f29a219fd79260ef749a01d","5f60e3c0a3b16e07647b2ff9","5f63802bb433440698b009e6","true","709.0699999826029","./Stimuli/ImagesPractice/SM35.jpg","76","","","","test","true","N + M","76","","SM","SM35.jpg","forget","old","25","2","practice_forget","right","","","",""
"html-keyboard-response","74","418295","0.0-3.0-3.0-3.8","cztywpo5oy3x9n6","practice_cue","5f29a219fd79260ef749a01d","5f60e3c0a3b16e07647b2ff9","5f63802bb433440698b009e6","false","null","<div style=""align-items: center; display: flex; color: darkorange; font-size: 90px""><b>ø</b></div>","null","","","","forget_cue","","","","","","","","","","","","","","","",""
"html-keyboard-response","75","419004","0.0-3.0-3.0-0.9","cztywpo5oy3x9n6","practice_cue","5f29a219fd79260ef749a01d","5f60e3c0a3b16e07647b2ff9","5f63802bb433440698b009e6","false","null","<span style=""color: black; font-size: 48px"">M + N</span>","null","","","","resp_prompt","","","","","","","","","","","","","","","",""
"categorize-image","76","419798","0.0-3.0-3.0-1.9","cztywpo5oy3x9n6","practice_cue","5f29a219fd79260ef749a01d","5f60e3c0a3b16e07647b2ff9","5f63802bb433440698b009e6","true","785.9949999838136","./Stimuli/ImagesPractice/LM230.jpg","83","","","","test","true","M + N","83","","LM","LM230.jpg","remember","old","26","2","practice_forget","left","","","",""
"html-keyboard-response","77","421808","0.0-3.0-3.0-3.9","cztywpo5oy3x9n6","practice_cue","5f29a219fd79260ef749a01d","5f60e3c0a3b16e07647b2ff9","5f63802bb433440698b009e6","false","null","<div style=""align-items: center; display: flex; color: dodgerblue; font-size: 90px""><b>o</b></div>","null","","","","forget_cue","","","","","","","","","","","","","","","",""
"html-keyboard-response","78","422546","0.0-3.0-3.0-0.10","cztywpo5oy3x9n6","practice_cue","5f29a219fd79260ef749a01d","5f60e3c0a3b16e07647b2ff9","5f63802bb433440698b009e6","false","null","<span style=""color: black; font-size: 48px"">M + N</span>","null","","","","resp_prompt","","","","","","","","","","","","","","","",""
"categorize-image","79","423176","0.0-3.0-3.0-1.10","cztywpo5oy3x9n6","practice_cue","5f29a219fd79260ef749a01d","5f60e3c0a3b16e07647b2ff9","5f63802bb433440698b009e6","true","619.5200000074692","./Stimuli/ImagesPractice/LN2.jpg","76","","","","test","true","M + N","76","","LN","LN2.jpg","forget","old","27","2","practice_forget","right","","","",""
"html-keyboard-response","80","425185","0.0-3.0-3.0-3.10","cztywpo5oy3x9n6","practice_cue","5f29a219fd79260ef749a01d","5f60e3c0a3b16e07647b2ff9","5f63802bb433440698b009e6","false","null","<div style=""align-items: center; display: flex; color: darkorange; font-size: 90px""><b>ø</b></div>","null","","","","forget_cue","","","","","","","","","","","","","","","",""
"html-keyboard-response","81","425890","0.0-3.0-3.0-0.11","cztywpo5oy3x9n6","practice_cue","5f29a219fd79260ef749a01d","5f60e3c0a3b16e07647b2ff9","5f63802bb433440698b009e6","false","null","<span style=""color: black; font-size: 48px"">M + N</span>","null","","","","resp_prompt","","","","","","","","","","","","","","","",""
"categorize-image","82","426785","0.0-3.0-3.0-1.11","cztywpo5oy3x9n6","practice_cue","5f29a219fd79260ef749a01d","5f60e3c0a3b16e07647b2ff9","5f63802bb433440698b009e6","true","868.5050000203773","./Stimuli/ImagesPractice/SN220.jpg","76","","","","test","true","M + N","76","","SN","SN220.jpg","forget","old","28","2","practice_forget","right","","","",""
"html-keyboard-response","83","428802","0.0-3.0-3.0-3.11","cztywpo5oy3x9n6","practice_cue","5f29a219fd79260ef749a01d","5f60e3c0a3b16e07647b2ff9","5f63802bb433440698b009e6","false","null","<div style=""align-items: center; display: flex; color: darkorange; font-size: 90px""><b>ø</b></div>","null","","","","forget_cue","","","","","","","","","","","","","","","",""
"html-keyboard-response","84","429508","0.0-3.0-3.0-0.12","cztywpo5oy3x9n6","practice_cue","5f29a219fd79260ef749a01d","5f60e3c0a3b16e07647b2ff9","5f63802bb433440698b009e6","false","null","<span style=""color: black; font-size: 48px"">M + N</span>","null","","","","resp_prompt","","","","","","","","","","","","","","","",""
"categorize-image","85","430255","0.0-3.0-3.0-1.12","cztywpo5oy3x9n6","practice_cue","5f29a219fd79260ef749a01d","5f60e3c0a3b16e07647b2ff9","5f63802bb433440698b009e6","true","722.3600000143051","./Stimuli/ImagesPractice/SM61.jpg","83","","","","test","true","M + N","83","","SM","SM61.jpg","forget","old","29","2","practice_forget","left","","","",""
"html-keyboard-response","86","432261","0.0-3.0-3.0-3.12","cztywpo5oy3x9n6","practice_cue","5f29a219fd79260ef749a01d","5f60e3c0a3b16e07647b2ff9","5f63802bb433440698b009e6","false","null","<div style=""align-items: center; display: flex; color: darkorange; font-size: 90px""><b>ø</b></div>","null","","","","forget_cue","","","","","","","","","","","","","","","",""
"html-keyboard-response","87","432974","0.0-3.0-3.0-0.13","cztywpo5oy3x9n6","practice_cue","5f29a219fd79260ef749a01d","5f60e3c0a3b16e07647b2ff9","5f63802bb433440698b009e6","false","null","<span style=""color: black; font-size: 48px"">M + N</span>","null","","","","resp_prompt","","","","","","","","","","","","","","","",""
"categorize-image","88","433483","0.0-3.0-3.0-1.13","cztywpo5oy3x9n6","practice_cue","5f29a219fd79260ef749a01d","5f60e3c0a3b16e07647b2ff9","5f63802bb433440698b009e6","true","496.4850000105798","./Stimuli/ImagesPractice/SM97.jpg","83","","","","test","true","M + N","83","","SM","SM97.jpg","remember","old","30","2","practice_forget","left","","","",""
"html-keyboard-response","89","435533","0.0-3.0-3.0-3.13","cztywpo5oy3x9n6","practice_cue","5f29a219fd79260ef749a01d","5f60e3c0a3b16e07647b2ff9","5f63802bb433440698b009e6","false","null","<div style=""align-items: center; display: flex; color: dodgerblue; font-size: 90px""><b>o</b></div>","null","","","","forget_cue","","","","","","","","","","","","","","","",""
"html-keyboard-response","90","436241","0.0-3.0-3.0-0.14","cztywpo5oy3x9n6","practice_cue","5f29a219fd79260ef749a01d","5f60e3c0a3b16e07647b2ff9","5f63802bb433440698b009e6","false","null","<span style=""color: black; font-size: 48px"">M + N</span>","null","","","","resp_prompt","","","","","","","","","","","","","","","",""
"categorize-image","91","437450","0.0-3.0-3.0-1.14","cztywpo5oy3x9n6","practice_cue","5f29a219fd79260ef749a01d","5f60e3c0a3b16e07647b2ff9","5f63802bb433440698b009e6","true","1178.5999999847263","./Stimuli/ImagesPractice/SM62.jpg","83","","","","test","true","M + N","83","","SM","SM62.jpg","remember","old","31","2","practice_forget","left","","","",""
"html-keyboard-response","92","439460","0.0-3.0-3.0-3.14","cztywpo5oy3x9n6","practice_cue","5f29a219fd79260ef749a01d","5f60e3c0a3b16e07647b2ff9","5f63802bb433440698b009e6","false","null","<div style=""align-items: center; display: flex; color: dodgerblue; font-size: 90px""><b>o</b></div>","null","","","","forget_cue","","","","","","","","","","","","","","","",""
"html-keyboard-response","93","440170","0.0-3.0-3.0-0.15","cztywpo5oy3x9n6","practice_cue","5f29a219fd79260ef749a01d","5f60e3c0a3b16e07647b2ff9","5f63802bb433440698b009e6","false","null","<span style=""color: black; font-size: 48px"">N + M</span>","null","","","","resp_prompt","","","","","","","","","","","","","","","",""
"categorize-image","94","441039","0.0-3.0-3.0-1.15","cztywpo5oy3x9n6","practice_cue","5f29a219fd79260ef749a01d","5f60e3c0a3b16e07647b2ff9","5f63802bb433440698b009e6","true","844.6300000068732","./Stimuli/ImagesPractice/LN4.jpg","83","","","","test","true","N + M","83","","LN","LN4.jpg","remember","old","32","2","practice_forget","left","","","",""
"html-keyboard-response","95","443057","0.0-3.0-3.0-3.15","cztywpo5oy3x9n6","practice_cue","5f29a219fd79260ef749a01d","5f60e3c0a3b16e07647b2ff9","5f63802bb433440698b009e6","false","null","<div style=""align-items: center; display: flex; color: dodgerblue; font-size: 90px""><b>o</b></div>","null","","","","forget_cue","","","","","","","","","","","","","","","",""
"html-keyboard-response","96","460482","0.0-3.0-4.0","cztywpo5oy3x9n6","break","5f29a219fd79260ef749a01d","5f60e3c0a3b16e07647b2ff9","5f63802bb433440698b009e6","false","17416.555000003427","<p style='font-size: 32px;'>Break</><br><br><br><br><br><p style='font-size: 24px;'>In the last block, you committed 0 errors and did not respond in time on 0 trials.
</p><p style='font-size: 24px;'>Try to respond as fast and accurately as possible in the next block as well! </p><p style='font-size: 24px;'>Press SPACE to continue.</p>","32","","","","","","","","","","","","","","","","","","","",""
"html-keyboard-response","97","477023","0.0-3.0-5.0","cztywpo5oy3x9n6","instructions","5f29a219fd79260ef749a01d","5f60e3c0a3b16e07647b2ff9","5f63802bb433440698b009e6","false","16535.570000007283","<div align=left> Now, to practice, we kindly ask you to remember as many of the to-be-remembered pictures<br>of the previous learning phase as possible.<br><br>The pictures you were instructed to remember were the pictures followed by a <span style='color: dodgerblue; font-size: 28px'>O</span>.<br><br>In this memory test phase, you will also see some new pictures.<br>It is your task to remember whether you were presented with this specific picture in this study so far or not.<br>If you recognize an object (you have already seen it in this study), it is an OLD object. <br>If you do not recognize an object (you have NOT seen it in this study), it is a NEW object. <br><strong> Attention</strong>: As already mentioned, <span style='color: darkorange; font-size:28px'>Ø</span>-pictures will <strong>never</strong> appear in this memory test (neither as new objects). <br><br>Press SPACE to continue. </div>","32","","","","","","","","","","","","","","","","","","","",""
"html-keyboard-response","98","501161","0.0-3.0-6.0","cztywpo5oy3x9n6","instructions","5f29a219fd79260ef749a01d","5f60e3c0a3b16e07647b2ff9","5f63802bb433440698b009e6","false","24132.37999996636","<div align=left> M and N no longer will appear on the left/right of the fixation cross. <br>Instead there will be a note at the bottom of the left or right side  <br>indicating which key you should press for an old or new object:  <br> <br>Press the <strong>right</strong> key to classify an object as <strong>old</strong> and press the <strong>left</strong>, to classify an object as <strong>new</strong>.<br>Please classify the objects as new/old by again placing your index finger on the 'S' and 'L' keys <br>and press them accordingly.<br><br><strong>Old:</strong> This object has been presented before. <br><strong>New:</strong> This object has <strong>not</strong> been presented.<br><br>Now please put your right and left index fingers on the 'S' and 'L' keys of your keyboard. <br>Please respond as fast and as accurately as possible!<br><br>Press SPACE to continue. </div>","32","","","","","","","","","","","","","","","","","","","",""
"categorize-image","99","503182","0.0-3.0-7.0-0.0","cztywpo5oy3x9n6","practice_recog","5f29a219fd79260ef749a01d","5f60e3c0a3b16e07647b2ff9","5f63802bb433440698b009e6","true","1487.044999958016","./Stimuli/ImagesPractice/LN17.jpg","76","","","","test","true","","76","","LN","LN17.jpg","","old","33","3","practice_recog","right","","","",""
"categorize-image","100","504469","0.0-3.0-7.0-0.1","cztywpo5oy3x9n6","practice_recog","5f29a219fd79260ef749a01d","5f60e3c0a3b16e07647b2ff9","5f63802bb433440698b009e6","true","766.0650000325404","./Stimuli/ImagesPractice/SM62.jpg","76","","","","test","true","","76","","SM","SM62.jpg","","old","34","3","practice_recog","right","","","",""
"categorize-image","101","505636","0.0-3.0-7.0-0.2","cztywpo5oy3x9n6","practice_recog","5f29a219fd79260ef749a01d","5f60e3c0a3b16e07647b2ff9","5f63802bb433440698b009e6","true","627.7849999605678","./Stimuli/ImagesPractice/SM98.jpg","76","","","","test","true","","76","","SM","SM98.jpg","","old","35","3","practice_recog","right","","","",""
"categorize-image","102","506922","0.0-3.0-7.0-0.3","cztywpo5oy3x9n6","practice_recog","5f29a219fd79260ef749a01d","5f60e3c0a3b16e07647b2ff9","5f63802bb433440698b009e6","true","742.9849999607541","./Stimuli/ImagesPractice/LM143.jpg","83","","","","test","true","","83","","LM","LM143.jpg","","new","36","3","practice_recog","left","","","",""
"categorize-image","103","508261","0.0-3.0-7.0-0.4","cztywpo5oy3x9n6","practice_recog","5f29a219fd79260ef749a01d","5f60e3c0a3b16e07647b2ff9","5f63802bb433440698b009e6","true","790.3799999621697","./Stimuli/ImagesPractice/LN4.jpg","76","","","","test","true","","76","","LN","LN4.jpg","","old","37","3","practice_recog","right","","","",""
"categorize-image","104","509492","0.0-3.0-7.0-0.5","cztywpo5oy3x9n6","practice_recog","5f29a219fd79260ef749a01d","5f60e3c0a3b16e07647b2ff9","5f63802bb433440698b009e6","true","685.0650000269525","./Stimuli/ImagesPractice/LM239.jpg","83","","","","test","true","","83","","LM","LM239.jpg","","new","38","3","practice_recog","left","","","",""
"categorize-image","105","510664","0.0-3.0-7.0-0.6","cztywpo5oy3x9n6","practice_recog","5f29a219fd79260ef749a01d","5f60e3c0a3b16e07647b2ff9","5f63802bb433440698b009e6","true","632.8799999901094","./Stimuli/ImagesPractice/SN221.jpg","76","","","","test","true","","76","","SN","SN221.jpg","","old","39","3","practice_recog","right","","","",""
"categorize-image","106","512011","0.0-3.0-7.0-0.7","cztywpo5oy3x9n6","practice_recog","5f29a219fd79260ef749a01d","5f60e3c0a3b16e07647b2ff9","5f63802bb433440698b009e6","true","800.310000020545","./Stimuli/ImagesPractice/SN75.jpg","83","","","","test","true","","83","","SN","SN75.jpg","","new","40","3","practice_recog","left","","","",""
"categorize-image","107","513205","0.0-3.0-7.0-0.8","cztywpo5oy3x9n6","practice_recog","5f29a219fd79260ef749a01d","5f60e3c0a3b16e07647b2ff9","5f63802bb433440698b009e6","true","654.4349999749102","./Stimuli/ImagesPractice/LM230.jpg","76","","","","test","true","","76","","LM","LM230.jpg","","old","41","3","practice_recog","right","","","",""
"categorize-image","108","514410","0.0-3.0-7.0-0.9","cztywpo5oy3x9n6","practice_recog","5f29a219fd79260ef749a01d","5f60e3c0a3b16e07647b2ff9","5f63802bb433440698b009e6","true","658.3650000393391","./Stimuli/ImagesPractice/LN109.jpg","83","","","","test","true","","83","","LN","LN109.jpg","","new","42","3","practice_recog","left","","","",""
"categorize-image","109","515702","0.0-3.0-7.0-0.10","cztywpo5oy3x9n6","practice_recog","5f29a219fd79260ef749a01d","5f60e3c0a3b16e07647b2ff9","5f63802bb433440698b009e6","true","768.6299999477342","./Stimuli/ImagesPractice/LM147.jpg","83","","","","test","true","","83","","LM","LM147.jpg","","new","43","3","practice_recog","left","","","",""
"categorize-image","110","517089","0.0-3.0-7.0-0.11","cztywpo5oy3x9n6","practice_recog","5f29a219fd79260ef749a01d","5f60e3c0a3b16e07647b2ff9","5f63802bb433440698b009e6","true","844.1900000325404","./Stimuli/ImagesPractice/SM37.jpg","76","","","","test","true","","76","","SM","SM37.jpg","","old","44","3","practice_recog","right","","","",""
"categorize-image","111","518267","0.0-3.0-7.0-0.12","cztywpo5oy3x9n6","practice_recog","5f29a219fd79260ef749a01d","5f60e3c0a3b16e07647b2ff9","5f63802bb433440698b009e6","true","637.174999981653","./Stimuli/ImagesPractice/LN72.jpg","83","","","","test","true","","83","","LN","LN72.jpg","","new","45","3","practice_recog","left","","","",""
"categorize-image","112","519393","0.0-3.0-7.0-0.13","cztywpo5oy3x9n6","practice_recog","5f29a219fd79260ef749a01d","5f60e3c0a3b16e07647b2ff9","5f63802bb433440698b009e6","true","604.2099999613129","./Stimuli/ImagesPractice/LN15.jpg","83","","","","test","true","","83","","LN","LN15.jpg","","new","46","3","practice_recog","left","","","",""
"categorize-image","113","520688","0.0-3.0-7.0-0.14","cztywpo5oy3x9n6","practice_recog","5f29a219fd79260ef749a01d","5f60e3c0a3b16e07647b2ff9","5f63802bb433440698b009e6","true","743.430000031367","./Stimuli/ImagesPractice/SM97.jpg","83","","","","test","false","","76","","SM","SM97.jpg","","old","47","3","practice_recog","left","","","",""
"categorize-image","114","522019","0.0-3.0-7.0-0.15","cztywpo5oy3x9n6","practice_recog","5f29a219fd79260ef749a01d","5f60e3c0a3b16e07647b2ff9","5f63802bb433440698b009e6","true","807.5950000202283","./Stimuli/ImagesPractice/LM224.jpg","76","","","","test","false","","83","","LM","LM224.jpg","","new","48","3","practice_recog","right","","","",""
"html-keyboard-response","115","529050","0.0-3.0-8.0","cztywpo5oy3x9n6","instructions","5f29a219fd79260ef749a01d","5f60e3c0a3b16e07647b2ff9","5f63802bb433440698b009e6","false","7025.970000016969","<div align=left> Great!<br><br>Are you ready to continue?<br>If you want to reread the instructions and redo the practice trials, please <br>press „Z“.<br><br>You can proceed when you are ready.<br><br>After the presentation of each object, you will receive an instruction whether to <br>remember or to forget the object.<br>We will test your memory of the following pictures only at the very end of <br>the experiment after all learning blocks are completed. <br><br>Press SPACE to CONTINUE when you are ready. </div>","32","","","","","","","","","","","","","","","","","","","",""
"html-keyboard-response","116","540052","0.0-4.0-0.0","cztywpo5oy3x9n6","instructions","5f29a219fd79260ef749a01d","5f60e3c0a3b16e07647b2ff9","5f63802bb433440698b009e6","false","10989.709999994375","<div align=left> The actual experiment is about to start.<br>The practice trials are over!<br><br>Please always respond both fast and accurately!<br><br>Remember: <br> <br><li> Please place your index fingers on the <strong>'S'</strong> and <strong>'L'</strong> keys <br>to respond as fast and accurately as possible.</li><li> Every picture can be classified as either mechanical or non-mechanical.</li><li> If you do not respond in time or commit an error, you will receive a corresponding feedback.<br> Please try to respond as <strong> fast </strong> and as <strong> accurately as possible </strong>.</li><li> Remember the <span style='color: dodgerblue; font-size: 28px'>O</span> pictures. <br></li><li> Please minimize distractions and stay focused. </li><br><br>Press SPACE to START.</div>","32","","","","","","","","","","","","","","","","","","","",""
"html-keyboard-response","117","540760","0.0-4.0-1.0-0.0","cztywpo5oy3x9n6","prime","5f29a219fd79260ef749a01d","5f60e3c0a3b16e07647b2ff9","5f63802bb433440698b009e6","false","null","<span style=""color: black; font-size: 48px"">N + M</span>","null","","","","resp_prompt","","","","","","","","","","","","","","","",""
"categorize-image","118","541466","0.0-4.0-1.0-1.0","cztywpo5oy3x9n6","prime","5f29a219fd79260ef749a01d","5f60e3c0a3b16e07647b2ff9","5f63802bb433440698b009e6","true","688.1399999838322","./Stimuli/SelectedImages/LM/LM179.bmp","76","","","","test","true","N + M","76","repetition","LM","LM179.bmp","remember","","49","3","prime1","right","","","",""
"html-keyboard-response","119","543480","0.0-4.0-1.0-3.0","cztywpo5oy3x9n6","prime","5f29a219fd79260ef749a01d","5f60e3c0a3b16e07647b2ff9","5f63802bb433440698b009e6","false","null","<div style=""align-items: center; display: flex; color: dodgerblue; font-size: 90px""><b>o</b></div>","null","","","","forget_cue","","","","","","","","","","","","","","","",""
"html-keyboard-response","120","544191","0.0-4.0-1.0-0.1","cztywpo5oy3x9n6","prime","5f29a219fd79260ef749a01d","5f60e3c0a3b16e07647b2ff9","5f63802bb433440698b009e6","false","null","<span style=""color: black; font-size: 48px"">M + N</span>","null","","","","resp_prompt","","","","","","","","","","","","","","","",""
"categorize-image","121","544793","0.0-4.0-1.0-1.1","cztywpo5oy3x9n6","prime","5f29a219fd79260ef749a01d","5f60e3c0a3b16e07647b2ff9","5f63802bb433440698b009e6","true","576.3649999862537","./Stimuli/SelectedImages/SM/SM108.bmp","83","","","","test","true","M + N","83","switch","SM","SM108.bmp","remember","","50","3","prime1","left","","","",""
"html-keyboard-response","122","546806","0.0-4.0-1.0-3.1","cztywpo5oy3x9n6","prime","5f29a219fd79260ef749a01d","5f60e3c0a3b16e07647b2ff9","5f63802bb433440698b009e6","false","null","<div style=""align-items: center; display: flex; color: dodgerblue; font-size: 90px""><b>o</b></div>","null","","","","forget_cue","","","","","","","","","","","","","","","",""
"html-keyboard-response","123","547513","0.0-4.0-1.0-0.2","cztywpo5oy3x9n6","prime","5f29a219fd79260ef749a01d","5f60e3c0a3b16e07647b2ff9","5f63802bb433440698b009e6","false","null","<span style=""color: black; font-size: 48px"">M + N</span>","null","","","","resp_prompt","","","","","","","","","","","","","","","",""
"categorize-image","124","548356","0.0-4.0-1.0-1.2","cztywpo5oy3x9n6","prime","5f29a219fd79260ef749a01d","5f60e3c0a3b16e07647b2ff9","5f63802bb433440698b009e6","true","833.649999985937","./Stimuli/SelectedImages/LN/LN12.bmp","76","","","","test","true","M + N","76","repetition","LN","LN12.bmp","forget","","51","3","prime1","right","","","",""
"html-keyboard-response","125","550368","0.0-4.0-1.0-3.2","cztywpo5oy3x9n6","prime","5f29a219fd79260ef749a01d","5f60e3c0a3b16e07647b2ff9","5f63802bb433440698b009e6","false","null","<div style=""align-items: center; display: flex; color: darkorange; font-size: 90px""><b>ø</b></div>","null","","","","forget_cue","","","","","","","","","","","","","","","",""
"html-keyboard-response","126","551079","0.0-4.0-1.0-0.3","cztywpo5oy3x9n6","prime","5f29a219fd79260ef749a01d","5f60e3c0a3b16e07647b2ff9","5f63802bb433440698b009e6","false","null","<span style=""color: black; font-size: 48px"">M + N</span>","null","","","","resp_prompt","","","","","","","","","","","","","","","",""
"categorize-image","127","551646","0.0-4.0-1.0-1.3","cztywpo5oy3x9n6","prime","5f29a219fd79260ef749a01d","5f60e3c0a3b16e07647b2ff9","5f63802bb433440698b009e6","true","538.6850000359118","./Stimuli/SelectedImages/SM/SM213.bmp","83","","","","test","true","M + N","83","switch","SM","SM213.bmp","forget","","52","3","prime1","left","","","",""
"html-keyboard-response","128","553700","0.0-4.0-1.0-3.3","cztywpo5oy3x9n6","prime","5f29a219fd79260ef749a01d","5f60e3c0a3b16e07647b2ff9","5f63802bb433440698b009e6","false","null","<div style=""align-items: center; display: flex; color: darkorange; font-size: 90px""><b>ø</b></div>","null","","","","forget_cue","","","","","","","","","","","","","","","",""
"html-keyboard-response","129","554414","0.0-4.0-1.0-0.4","cztywpo5oy3x9n6","prime","5f29a219fd79260ef749a01d","5f60e3c0a3b16e07647b2ff9","5f63802bb433440698b009e6","false","null","<span style=""color: black; font-size: 48px"">M + N</span>","null","","","","resp_prompt","","","","","","","","","","","","","","","",""
"categorize-image","130","555075","0.0-4.0-1.0-1.4","cztywpo5oy3x9n6","prime","5f29a219fd79260ef749a01d","5f60e3c0a3b16e07647b2ff9","5f63802bb433440698b009e6","true","640.7550000003539","./Stimuli/SelectedImages/LM/LM209.bmp","76","","","","test","false","M + N","83","repetition","LM","LM209.bmp","forget","","53","3","prime1","right","","","",""
"html-keyboard-response","131","555591","0.0-4.0-1.0-2.4-0.4","cztywpo5oy3x9n6","prime","5f29a219fd79260ef749a01d","5f60e3c0a3b16e07647b2ff9","5f63802bb433440698b009e6","false","null","<span style=""color: red; font-size: 48px"">Error!</span>","null","","","","feedback","","","","","","","","","","","","","","","",""
"html-keyboard-response","132","557609","0.0-4.0-1.0-3.4","cztywpo5oy3x9n6","prime","5f29a219fd79260ef749a01d","5f60e3c0a3b16e07647b2ff9","5f63802bb433440698b009e6","false","null","<div style=""align-items: center; display: flex; color: darkorange; font-size: 90px""><b>ø</b></div>","null","","","","forget_cue","","","","","","","","","","","","","","","",""
"html-keyboard-response","133","558319","0.0-4.0-1.0-0.5","cztywpo5oy3x9n6","prime","5f29a219fd79260ef749a01d","5f60e3c0a3b16e07647b2ff9","5f63802bb433440698b009e6","false","null","<span style=""color: black; font-size: 48px"">N + M</span>","null","","","","resp_prompt","","","","","","","","","","","","","","","",""
"categorize-image","134","558909","0.0-4.0-1.0-1.5","cztywpo5oy3x9n6","prime","5f29a219fd79260ef749a01d","5f60e3c0a3b16e07647b2ff9","5f63802bb433440698b009e6","true","568.7400000169873","./Stimuli/SelectedImages/SM/SM195.bmp","76","","","","test","true","N + M","76","repetition","SM","SM195.bmp","forget","","54","3","prime1","right","","","",""
"html-keyboard-response","135","560915","0.0-4.0-1.0-3.5","cztywpo5oy3x9n6","prime","5f29a219fd79260ef749a01d","5f60e3c0a3b16e07647b2ff9","5f63802bb433440698b009e6","false","null","<div style=""align-items: center; display: flex; color: darkorange; font-size: 90px""><b>ø</b></div>","null","","","","forget_cue","","","","","","","","","","","","","","","",""
"html-keyboard-response","136","561623","0.0-4.0-1.0-0.6","cztywpo5oy3x9n6","prime","5f29a219fd79260ef749a01d","5f60e3c0a3b16e07647b2ff9","5f63802bb433440698b009e6","false","null","<span style=""color: black; font-size: 48px"">N + M</span>","null","","","","resp_prompt","","","","","","","","","","","","","","","",""
"categorize-image","137","562819","0.0-4.0-1.0-1.6","cztywpo5oy3x9n6","prime","5f29a219fd79260ef749a01d","5f60e3c0a3b16e07647b2ff9","5f63802bb433440698b009e6","true","1182.1149999741465","./Stimuli/SelectedImages/SM/SM73.bmp","76","","","","test","true","N + M","76","switch","SM","SM73.bmp","forget","","55","3","prime1","right","","","",""
"html-keyboard-response","138","564841","0.0-4.0-1.0-3.6","cztywpo5oy3x9n6","prime","5f29a219fd79260ef749a01d","5f60e3c0a3b16e07647b2ff9","5f63802bb433440698b009e6","false","null","<div style=""align-items: center; display: flex; color: darkorange; font-size: 90px""><b>ø</b></div>","null","","","","forget_cue","","","","","","","","","","","","","","","",""
"html-keyboard-response","139","565558","0.0-4.0-1.0-0.7","cztywpo5oy3x9n6","prime","5f29a219fd79260ef749a01d","5f60e3c0a3b16e07647b2ff9","5f63802bb433440698b009e6","false","null","<span style=""color: black; font-size: 48px"">M + N</span>","null","","","","resp_prompt","","","","","","","","","","","","","","","",""
"categorize-image","140","566373","0.0-4.0-1.0-1.7","cztywpo5oy3x9n6","prime","5f29a219fd79260ef749a01d","5f60e3c0a3b16e07647b2ff9","5f63802bb433440698b009e6","true","771.8350000213832","./Stimuli/SelectedImages/LM/LM59.bmp","83","","","","test","true","M + N","83","switch","LM","LM59.bmp","forget","","56","3","prime1","left","","","",""
"html-keyboard-response","141","568387","0.0-4.0-1.0-3.7","cztywpo5oy3x9n6","prime","5f29a219fd79260ef749a01d","5f60e3c0a3b16e07647b2ff9","5f63802bb433440698b009e6","false","null","<div style=""align-items: center; display: flex; color: darkorange; font-size: 90px""><b>ø</b></div>","null","","","","forget_cue","","","","","","","","","","","","","","","",""
"html-keyboard-response","142","569095","0.0-4.0-1.0-0.8","cztywpo5oy3x9n6","prime","5f29a219fd79260ef749a01d","5f60e3c0a3b16e07647b2ff9","5f63802bb433440698b009e6","false","null","<span style=""color: black; font-size: 48px"">N + M</span>","null","","","","resp_prompt","","","","","","","","","","","","","","","",""
"categorize-image","143","569826","0.0-4.0-1.0-1.8","cztywpo5oy3x9n6","prime","5f29a219fd79260ef749a01d","5f60e3c0a3b16e07647b2ff9","5f63802bb433440698b009e6","true","689.4600000232458","./Stimuli/SelectedImages/SM/SM24.bmp","76","","","","test","true","N + M","76","switch","SM","SM24.bmp","remember","","57","3","prime1","right","","","",""
"html-keyboard-response","144","571846","0.0-4.0-1.0-3.8","cztywpo5oy3x9n6","prime","5f29a219fd79260ef749a01d","5f60e3c0a3b16e07647b2ff9","5f63802bb433440698b009e6","false","null","<div style=""align-items: center; display: flex; color: dodgerblue; font-size: 90px""><b>o</b></div>","null","","","","forget_cue","","","","","","","","","","","","","","","",""
"html-keyboard-response","145","572561","0.0-4.0-1.0-0.9","cztywpo5oy3x9n6","prime","5f29a219fd79260ef749a01d","5f60e3c0a3b16e07647b2ff9","5f63802bb433440698b009e6","false","null","<span style=""color: black; font-size: 48px"">M + N</span>","null","","","","resp_prompt","","","","","","","","","","","","","","","",""
"categorize-image","146","573469","0.0-4.0-1.0-1.9","cztywpo5oy3x9n6","prime","5f29a219fd79260ef749a01d","5f60e3c0a3b16e07647b2ff9","5f63802bb433440698b009e6","true","889.385000045877","./Stimuli/SelectedImages/SM/SM106.bmp","83","","","","test","true","M + N","83","repetition","SM","SM106.bmp","remember","","58","3","prime1","left","","","",""
"html-keyboard-response","147","575487","0.0-4.0-1.0-3.9","cztywpo5oy3x9n6","prime","5f29a219fd79260ef749a01d","5f60e3c0a3b16e07647b2ff9","5f63802bb433440698b009e6","false","null","<div style=""align-items: center; display: flex; color: dodgerblue; font-size: 90px""><b>o</b></div>","null","","","","forget_cue","","","","","","","","","","","","","","","",""
"html-keyboard-response","148","576194","0.0-4.0-1.0-0.10","cztywpo5oy3x9n6","prime","5f29a219fd79260ef749a01d","5f60e3c0a3b16e07647b2ff9","5f63802bb433440698b009e6","false","null","<span style=""color: black; font-size: 48px"">M + N</span>","null","","","","resp_prompt","","","","","","","","","","","","","","","",""
"categorize-image","149","576973","0.0-4.0-1.0-1.10","cztywpo5oy3x9n6","prime","5f29a219fd79260ef749a01d","5f60e3c0a3b16e07647b2ff9","5f63802bb433440698b009e6","true","751.9050000119023","./Stimuli/SelectedImages/LM/LM100.bmp","83","","","","test","true","M + N","83","switch","LM","LM100.bmp","forget","","59","3","prime1","left","","","",""
"html-keyboard-response","150","578988","0.0-4.0-1.0-3.10","cztywpo5oy3x9n6","prime","5f29a219fd79260ef749a01d","5f60e3c0a3b16e07647b2ff9","5f63802bb433440698b009e6","false","null","<div style=""align-items: center; display: flex; color: darkorange; font-size: 90px""><b>ø</b></div>","null","","","","forget_cue","","","","","","","","","","","","","","","",""
"html-keyboard-response","151","579696","0.0-4.0-1.0-0.11","cztywpo5oy3x9n6","prime","5f29a219fd79260ef749a01d","5f60e3c0a3b16e07647b2ff9","5f63802bb433440698b009e6","false","null","<span style=""color: black; font-size: 48px"">N + M</span>","null","","","","resp_prompt","","","","","","","","","","","","","","","",""
"categorize-image","152","580407","0.0-4.0-1.0-1.11","cztywpo5oy3x9n6","prime","5f29a219fd79260ef749a01d","5f60e3c0a3b16e07647b2ff9","5f63802bb433440698b009e6","true","684.5500000054017","./Stimuli/SelectedImages/SM/SM184.bmp","76","","","","test","true","N + M","76","repetition","SM","SM184.bmp","remember","","60","3","prime1","right","","","",""
"html-keyboard-response","153","582422","0.0-4.0-1.0-3.11","cztywpo5oy3x9n6","prime","5f29a219fd79260ef749a01d","5f60e3c0a3b16e07647b2ff9","5f63802bb433440698b009e6","false","null","<div style=""align-items: center; display: flex; color: dodgerblue; font-size: 90px""><b>o</b></div>","null","","","","forget_cue","","","","","","","","","","","","","","","",""
"html-keyboard-response","154","583131","0.0-4.0-1.0-0.12","cztywpo5oy3x9n6","prime","5f29a219fd79260ef749a01d","5f60e3c0a3b16e07647b2ff9","5f63802bb433440698b009e6","false","null","<span style=""color: black; font-size: 48px"">N + M</span>","null","","","","resp_prompt","","","","","","","","","","","","","","","",""
"categorize-image","155","584011","0.0-4.0-1.0-1.12","cztywpo5oy3x9n6","prime","5f29a219fd79260ef749a01d","5f60e3c0a3b16e07647b2ff9","5f63802bb433440698b009e6","true","850.3299999865703","./Stimuli/SelectedImages/LN/LN150.bmp","83","","","","test","true","N + M","83","repetition","LN","LN150.bmp","remember","","61","3","prime1","left","","","",""
"html-keyboard-response","156","586030","0.0-4.0-1.0-3.12","cztywpo5oy3x9n6","prime","5f29a219fd79260ef749a01d","5f60e3c0a3b16e07647b2ff9","5f63802bb433440698b009e6","false","null","<div style=""align-items: center; display: flex; color: dodgerblue; font-size: 90px""><b>o</b></div>","null","","","","forget_cue","","","","","","","","","","","","","","","",""
"html-keyboard-response","157","586737","0.0-4.0-1.0-0.13","cztywpo5oy3x9n6","prime","5f29a219fd79260ef749a01d","5f60e3c0a3b16e07647b2ff9","5f63802bb433440698b009e6","false","null","<span style=""color: black; font-size: 48px"">N + M</span>","null","","","","resp_prompt","","","","","","","","","","","","","","","",""
"categorize-image","158","587590","0.0-4.0-1.0-1.13","cztywpo5oy3x9n6","prime","5f29a219fd79260ef749a01d","5f60e3c0a3b16e07647b2ff9","5f63802bb433440698b009e6","true","826.1250000214204","./Stimuli/SelectedImages/LM/LM48.bmp","76","","","","test","true","N + M","76","switch","LM","LM48.bmp","forget","","62","3","prime1","right","","","",""
"html-keyboard-response","159","589604","0.0-4.0-1.0-3.13","cztywpo5oy3x9n6","prime","5f29a219fd79260ef749a01d","5f60e3c0a3b16e07647b2ff9","5f63802bb433440698b009e6","false","null","<div style=""align-items: center; display: flex; color: darkorange; font-size: 90px""><b>ø</b></div>","null","","","","forget_cue","","","","","","","","","","","","","","","",""
"html-keyboard-response","160","590310","0.0-4.0-1.0-0.14","cztywpo5oy3x9n6","prime","5f29a219fd79260ef749a01d","5f60e3c0a3b16e07647b2ff9","5f63802bb433440698b009e6","false","null","<span style=""color: black; font-size: 48px"">N + M</span>","null","","","","resp_prompt","","","","","","","","","","","","","","","",""
"categorize-image","161","590875","0.0-4.0-1.0-1.14","cztywpo5oy3x9n6","prime","5f29a219fd79260ef749a01d","5f60e3c0a3b16e07647b2ff9","5f63802bb433440698b009e6","true","553.6900000297464","./Stimuli/SelectedImages/LM/LM167.bmp","76","","","","test","true","N + M","76","switch","LM","LM167.bmp","forget","","63","3","prime1","right","","","",""
"html-keyboard-response","162","592882","0.0-4.0-1.0-3.14","cztywpo5oy3x9n6","prime","5f29a219fd79260ef749a01d","5f60e3c0a3b16e07647b2ff9","5f63802bb433440698b009e6","false","null","<div style=""align-items: center; display: flex; color: darkorange; font-size: 90px""><b>ø</b></div>","null","","","","forget_cue","","","","","","","","","","","","","","","",""
"html-keyboard-response","163","593590","0.0-4.0-1.0-0.15","cztywpo5oy3x9n6","prime","5f29a219fd79260ef749a01d","5f60e3c0a3b16e07647b2ff9","5f63802bb433440698b009e6","false","null","<span style=""color: black; font-size: 48px"">M + N</span>","null","","","","resp_prompt","","","","","","","","","","","","","","","",""
"categorize-image","164","595101","0.0-4.0-1.0-1.15","cztywpo5oy3x9n6","prime","5f29a219fd79260ef749a01d","5f60e3c0a3b16e07647b2ff9","5f63802bb433440698b009e6","true","1481.1299999710172","./Stimuli/SelectedImages/LN/LN9.bmp","76","","","","test","true","M + N","76","switch","LN","LN9.bmp","forget","","64","3","prime1","right","","","",""
"html-keyboard-response","165","597125","0.0-4.0-1.0-3.15","cztywpo5oy3x9n6","prime","5f29a219fd79260ef749a01d","5f60e3c0a3b16e07647b2ff9","5f63802bb433440698b009e6","false","null","<div style=""align-items: center; display: flex; color: darkorange; font-size: 90px""><b>ø</b></div>","null","","","","forget_cue","","","","","","","","","","","","","","","",""
"html-keyboard-response","166","597834","0.0-4.0-1.0-0.16","cztywpo5oy3x9n6","prime","5f29a219fd79260ef749a01d","5f60e3c0a3b16e07647b2ff9","5f63802bb433440698b009e6","false","null","<span style=""color: black; font-size: 48px"">N + M</span>","null","","","","resp_prompt","","","","","","","","","","","","","","","",""
"categorize-image","167","598695","0.0-4.0-1.0-1.16","cztywpo5oy3x9n6","prime","5f29a219fd79260ef749a01d","5f60e3c0a3b16e07647b2ff9","5f63802bb433440698b009e6","true","830.9199999785051","./Stimuli/SelectedImages/SN/SN18.bmp","83","","","","test","true","N + M","83","repetition","SN","SN18.bmp","forget","","65","3","prime1","left","","","",""
"html-keyboard-response","168","600714","0.0-4.0-1.0-3.16","cztywpo5oy3x9n6","prime","5f29a219fd79260ef749a01d","5f60e3c0a3b16e07647b2ff9","5f63802bb433440698b009e6","false","null","<div style=""align-items: center; display: flex; color: darkorange; font-size: 90px""><b>ø</b></div>","null","","","","forget_cue","","","","","","","","","","","","","","","",""
"html-keyboard-response","169","601428","0.0-4.0-1.0-0.17","cztywpo5oy3x9n6","prime","5f29a219fd79260ef749a01d","5f60e3c0a3b16e07647b2ff9","5f63802bb433440698b009e6","false","null","<span style=""color: black; font-size: 48px"">N + M</span>","null","","","","resp_prompt","","","","","","","","","","","","","","","",""
"categorize-image","170","602348","0.0-4.0-1.0-1.17","cztywpo5oy3x9n6","prime","5f29a219fd79260ef749a01d","5f60e3c0a3b16e07647b2ff9","5f63802bb433440698b009e6","true","900.359999970533","./Stimuli/SelectedImages/LN/LN59.bmp","83","","","","test","true","N + M","83","repetition","LN","LN59.bmp","remember","","66","3","prime1","left","","","",""
"html-keyboard-response","171","604365","0.0-4.0-1.0-3.17","cztywpo5oy3x9n6","prime","5f29a219fd79260ef749a01d","5f60e3c0a3b16e07647b2ff9","5f63802bb433440698b009e6","false","null","<div style=""align-items: center; display: flex; color: dodgerblue; font-size: 90px""><b>o</b></div>","null","","","","forget_cue","","","","","","","","","","","","","","","",""
"html-keyboard-response","172","605070","0.0-4.0-1.0-0.18","cztywpo5oy3x9n6","prime","5f29a219fd79260ef749a01d","5f60e3c0a3b16e07647b2ff9","5f63802bb433440698b009e6","false","null","<span style=""color: black; font-size: 48px"">N + M</span>","null","","","","resp_prompt","","","","","","","","","","","","","","","",""
"categorize-image","173","606142","0.0-4.0-1.0-1.18","cztywpo5oy3x9n6","prime","5f29a219fd79260ef749a01d","5f60e3c0a3b16e07647b2ff9","5f63802bb433440698b009e6","true","1045.220000029076","./Stimuli/SelectedImages/LN/LN177.bmp","83","","","","test","true","N + M","83","switch","LN","LN177.bmp","remember","","67","3","prime1","left","","","",""
"html-keyboard-response","174","608153","0.0-4.0-1.0-3.18","cztywpo5oy3x9n6","prime","5f29a219fd79260ef749a01d","5f60e3c0a3b16e07647b2ff9","5f63802bb433440698b009e6","false","null","<div style=""align-items: center; display: flex; color: dodgerblue; font-size: 90px""><b>o</b></div>","null","","","","forget_cue","","","","","","","","","","","","","","","",""
"html-keyboard-response","175","608859","0.0-4.0-1.0-0.19","cztywpo5oy3x9n6","prime","5f29a219fd79260ef749a01d","5f60e3c0a3b16e07647b2ff9","5f63802bb433440698b009e6","false","null","<span style=""color: black; font-size: 48px"">N + M</span>","null","","","","resp_prompt","","","","","","","","","","","","","","","",""
"categorize-image","176","609538","0.0-4.0-1.0-1.19","cztywpo5oy3x9n6","prime","5f29a219fd79260ef749a01d","5f60e3c0a3b16e07647b2ff9","5f63802bb433440698b009e6","true","652.1049999864772","./Stimuli/SelectedImages/LM/LM103.bmp","76","","","","test","true","N + M","76","repetition","LM","LM103.bmp","forget","","68","3","prime1","right","","","",""
"html-keyboard-response","177","611555","0.0-4.0-1.0-3.19","cztywpo5oy3x9n6","prime","5f29a219fd79260ef749a01d","5f60e3c0a3b16e07647b2ff9","5f63802bb433440698b009e6","false","null","<div style=""align-items: center; display: flex; color: darkorange; font-size: 90px""><b>ø</b></div>","null","","","","forget_cue","","","","","","","","","","","","","","","",""
"html-keyboard-response","178","612266","0.0-4.0-1.0-0.20","cztywpo5oy3x9n6","prime","5f29a219fd79260ef749a01d","5f60e3c0a3b16e07647b2ff9","5f63802bb433440698b009e6","false","null","<span style=""color: black; font-size: 48px"">M + N</span>","null","","","","resp_prompt","","","","","","","","","","","","","","","",""
"categorize-image","179","613149","0.0-4.0-1.0-1.20","cztywpo5oy3x9n6","prime","5f29a219fd79260ef749a01d","5f60e3c0a3b16e07647b2ff9","5f63802bb433440698b009e6","true","862.7500000293367","./Stimuli/SelectedImages/SN/SN187.bmp","76","","","","test","true","M + N","76","repetition","SN","SN187.bmp","forget","","69","3","prime1","right","","","",""
"html-keyboard-response","180","615167","0.0-4.0-1.0-3.20","cztywpo5oy3x9n6","prime","5f29a219fd79260ef749a01d","5f60e3c0a3b16e07647b2ff9","5f63802bb433440698b009e6","false","null","<div style=""align-items: center; display: flex; color: darkorange; font-size: 90px""><b>ø</b></div>","null","","","","forget_cue","","","","","","","","","","","","","","","",""
"html-keyboard-response","181","615881","0.0-4.0-1.0-0.21","cztywpo5oy3x9n6","prime","5f29a219fd79260ef749a01d","5f60e3c0a3b16e07647b2ff9","5f63802bb433440698b009e6","false","null","<span style=""color: black; font-size: 48px"">M + N</span>","null","","","","resp_prompt","","","","","","","","","","","","","","","",""
"categorize-image","182","616738","0.0-4.0-1.0-1.21","cztywpo5oy3x9n6","prime","5f29a219fd79260ef749a01d","5f60e3c0a3b16e07647b2ff9","5f63802bb433440698b009e6","true","845.7599999965169","./Stimuli/SelectedImages/LN/LN82.bmp","76","","","","test","true","M + N","76","switch","LN","LN82.bmp","forget","","70","3","prime1","right","","","",""
"html-keyboard-response","183","618751","0.0-4.0-1.0-3.21","cztywpo5oy3x9n6","prime","5f29a219fd79260ef749a01d","5f60e3c0a3b16e07647b2ff9","5f63802bb433440698b009e6","false","null","<div style=""align-items: center; display: flex; color: darkorange; font-size: 90px""><b>ø</b></div>","null","","","","forget_cue","","","","","","","","","","","","","","","",""
"html-keyboard-response","184","619458","0.0-4.0-1.0-0.22","cztywpo5oy3x9n6","prime","5f29a219fd79260ef749a01d","5f60e3c0a3b16e07647b2ff9","5f63802bb433440698b009e6","false","null","<span style=""color: black; font-size: 48px"">M + N</span>","null","","","","resp_prompt","","","","","","","","","","","","","","","",""
"categorize-image","185","620060","0.0-4.0-1.0-1.22","cztywpo5oy3x9n6","prime","5f29a219fd79260ef749a01d","5f60e3c0a3b16e07647b2ff9","5f63802bb433440698b009e6","true","592.2649999847636","./Stimuli/SelectedImages/LM/LM51.bmp","83","","","","test","true","M + N","83","repetition","LM","LM51.bmp","remember","","71","3","prime1","left","","","",""
"html-keyboard-response","186","622073","0.0-4.0-1.0-3.22","cztywpo5oy3x9n6","prime","5f29a219fd79260ef749a01d","5f60e3c0a3b16e07647b2ff9","5f63802bb433440698b009e6","false","null","<div style=""align-items: center; display: flex; color: dodgerblue; font-size: 90px""><b>o</b></div>","null","","","","forget_cue","","","","","","","","","","","","","","","",""
"html-keyboard-response","187","622779","0.0-4.0-1.0-0.23","cztywpo5oy3x9n6","prime","5f29a219fd79260ef749a01d","5f60e3c0a3b16e07647b2ff9","5f63802bb433440698b009e6","false","null","<span style=""color: black; font-size: 48px"">N + M</span>","null","","","","resp_prompt","","","","","","","","","","","","","","","",""
"categorize-image","188","623613","0.0-4.0-1.0-1.23","cztywpo5oy3x9n6","prime","5f29a219fd79260ef749a01d","5f60e3c0a3b16e07647b2ff9","5f63802bb433440698b009e6","true","821.3100000284612","./Stimuli/SelectedImages/LM/LM57.bmp","76","","","","test","true","N + M","76","switch","LM","LM57.bmp","remember","","72","3","prime1","right","","","",""
"html-keyboard-response","189","625617","0.0-4.0-1.0-3.23","cztywpo5oy3x9n6","prime","5f29a219fd79260ef749a01d","5f60e3c0a3b16e07647b2ff9","5f63802bb433440698b009e6","false","null","<div style=""align-items: center; display: flex; color: dodgerblue; font-size: 90px""><b>o</b></div>","null","","","","forget_cue","","","","","","","","","","","","","","","",""
"html-keyboard-response","190","626320","0.0-4.0-1.0-0.24","cztywpo5oy3x9n6","prime","5f29a219fd79260ef749a01d","5f60e3c0a3b16e07647b2ff9","5f63802bb433440698b009e6","false","null","<span style=""color: black; font-size: 48px"">N + M</span>","null","","","","resp_prompt","","","","","","","","","","","","","","","",""
"categorize-image","191","626963","0.0-4.0-1.0-1.24","cztywpo5oy3x9n6","prime","5f29a219fd79260ef749a01d","5f60e3c0a3b16e07647b2ff9","5f63802bb433440698b009e6","true","633.6249999585561","./Stimuli/SelectedImages/LM/LM235.bmp","76","","","","test","true","N + M","76","repetition","LM","LM235.bmp","remember","","73","3","prime1","right","","","",""
"html-keyboard-response","192","628973","0.0-4.0-1.0-3.24","cztywpo5oy3x9n6","prime","5f29a219fd79260ef749a01d","5f60e3c0a3b16e07647b2ff9","5f63802bb433440698b009e6","false","null","<div style=""align-items: center; display: flex; color: dodgerblue; font-size: 90px""><b>o</b></div>","null","","","","forget_cue","","","","","","","","","","","","","","","",""
"html-keyboard-response","193","629682","0.0-4.0-1.0-0.25","cztywpo5oy3x9n6","prime","5f29a219fd79260ef749a01d","5f60e3c0a3b16e07647b2ff9","5f63802bb433440698b009e6","false","null","<span style=""color: black; font-size: 48px"">M + N</span>","null","","","","resp_prompt","","","","","","","","","","","","","","","",""
"categorize-image","194","630329","0.0-4.0-1.0-1.25","cztywpo5oy3x9n6","prime","5f29a219fd79260ef749a01d","5f60e3c0a3b16e07647b2ff9","5f63802bb433440698b009e6","true","622.5850000046194","./Stimuli/SelectedImages/LN/LN111.bmp","83","","","","test","false","M + N","76","switch","LN","LN111.bmp","remember","","74","3","prime1","left","","","",""
"html-keyboard-response","195","630840","0.0-4.0-1.0-2.25-0.25","cztywpo5oy3x9n6","prime","5f29a219fd79260ef749a01d","5f60e3c0a3b16e07647b2ff9","5f63802bb433440698b009e6","false","null","<span style=""color: red; font-size: 48px"">Error!</span>","null","","","","feedback","","","","","","","","","","","","","","","",""
"html-keyboard-response","196","632848","0.0-4.0-1.0-3.25","cztywpo5oy3x9n6","prime","5f29a219fd79260ef749a01d","5f60e3c0a3b16e07647b2ff9","5f63802bb433440698b009e6","false","null","<div style=""align-items: center; display: flex; color: dodgerblue; font-size: 90px""><b>o</b></div>","null","","","","forget_cue","","","","","","","","","","","","","","","",""
"html-keyboard-response","197","633556","0.0-4.0-1.0-0.26","cztywpo5oy3x9n6","prime","5f29a219fd79260ef749a01d","5f60e3c0a3b16e07647b2ff9","5f63802bb433440698b009e6","false","null","<span style=""color: black; font-size: 48px"">N + M</span>","null","","","","resp_prompt","","","","","","","","","","","","","","","",""
"categorize-image","198","634261","0.0-4.0-1.0-1.26","cztywpo5oy3x9n6","prime","5f29a219fd79260ef749a01d","5f60e3c0a3b16e07647b2ff9","5f63802bb433440698b009e6","true","694.1600000136532","./Stimuli/SelectedImages/SN/SN93.bmp","83","","","","test","true","N + M","83","switch","SN","SN93.bmp","remember","","75","3","prime1","left","","","",""
"html-keyboard-response","199","636268","0.0-4.0-1.0-3.26","cztywpo5oy3x9n6","prime","5f29a219fd79260ef749a01d","5f60e3c0a3b16e07647b2ff9","5f63802bb433440698b009e6","false","null","<div style=""align-items: center; display: flex; color: dodgerblue; font-size: 90px""><b>o</b></div>","null","","","","forget_cue","","","","","","","","","","","","","","","",""
"html-keyboard-response","200","636983","0.0-4.0-1.0-0.27","cztywpo5oy3x9n6","prime","5f29a219fd79260ef749a01d","5f60e3c0a3b16e07647b2ff9","5f63802bb433440698b009e6","false","null","<span style=""color: black; font-size: 48px"">M + N</span>","null","","","","resp_prompt","","","","","","","","","","","","","","","",""
"categorize-image","201","637794","0.0-4.0-1.0-1.27","cztywpo5oy3x9n6","prime","5f29a219fd79260ef749a01d","5f60e3c0a3b16e07647b2ff9","5f63802bb433440698b009e6","true","799.1100000217557","./Stimuli/SelectedImages/LM/LM216.bmp","83","","","","test","true","M + N","83","switch","LM","LM216.bmp","remember","","76","3","prime1","left","","","",""
"html-keyboard-response","202","639800","0.0-4.0-1.0-3.27","cztywpo5oy3x9n6","prime","5f29a219fd79260ef749a01d","5f60e3c0a3b16e07647b2ff9","5f63802bb433440698b009e6","false","null","<div style=""align-items: center; display: flex; color: dodgerblue; font-size: 90px""><b>o</b></div>","null","","","","forget_cue","","","","","","","","","","","","","","","",""
"html-keyboard-response","203","640511","0.0-4.0-1.0-0.28","cztywpo5oy3x9n6","prime","5f29a219fd79260ef749a01d","5f60e3c0a3b16e07647b2ff9","5f63802bb433440698b009e6","false","null","<span style=""color: black; font-size: 48px"">N + M</span>","null","","","","resp_prompt","","","","","","","","","","","","","","","",""
"categorize-image","204","641187","0.0-4.0-1.0-1.28","cztywpo5oy3x9n6","prime","5f29a219fd79260ef749a01d","5f60e3c0a3b16e07647b2ff9","5f63802bb433440698b009e6","true","660.6599999940954","./Stimuli/SelectedImages/SM/SM200.bmp","76","","","","test","true","N + M","76","switch","SM","SM200.bmp","forget","","77","3","prime1","right","","","",""
"html-keyboard-response","205","643199","0.0-4.0-1.0-3.28","cztywpo5oy3x9n6","prime","5f29a219fd79260ef749a01d","5f60e3c0a3b16e07647b2ff9","5f63802bb433440698b009e6","false","null","<div style=""align-items: center; display: flex; color: darkorange; font-size: 90px""><b>ø</b></div>","null","","","","forget_cue","","","","","","","","","","","","","","","",""
"html-keyboard-response","206","643909","0.0-4.0-1.0-0.29","cztywpo5oy3x9n6","prime","5f29a219fd79260ef749a01d","5f60e3c0a3b16e07647b2ff9","5f63802bb433440698b009e6","false","null","<span style=""color: black; font-size: 48px"">N + M</span>","null","","","","resp_prompt","","","","","","","","","","","","","","","",""
"categorize-image","207","644652","0.0-4.0-1.0-1.29","cztywpo5oy3x9n6","prime","5f29a219fd79260ef749a01d","5f60e3c0a3b16e07647b2ff9","5f63802bb433440698b009e6","true","718.3899999945424","./Stimuli/SelectedImages/LN/LN13.bmp","83","","","","test","true","N + M","83","switch","LN","LN13.bmp","forget","","78","3","prime1","left","","","",""
"html-keyboard-response","208","646662","0.0-4.0-1.0-3.29","cztywpo5oy3x9n6","prime","5f29a219fd79260ef749a01d","5f60e3c0a3b16e07647b2ff9","5f63802bb433440698b009e6","false","null","<div style=""align-items: center; display: flex; color: darkorange; font-size: 90px""><b>ø</b></div>","null","","","","forget_cue","","","","","","","","","","","","","","","",""
"html-keyboard-response","209","647373","0.0-4.0-1.0-0.30","cztywpo5oy3x9n6","prime","5f29a219fd79260ef749a01d","5f60e3c0a3b16e07647b2ff9","5f63802bb433440698b009e6","false","null","<span style=""color: black; font-size: 48px"">M + N</span>","null","","","","resp_prompt","","","","","","","","","","","","","","","",""
"categorize-image","210","648892","0.0-4.0-1.0-1.30","cztywpo5oy3x9n6","prime","5f29a219fd79260ef749a01d","5f60e3c0a3b16e07647b2ff9","5f63802bb433440698b009e6","true","1504.5049999607727","./Stimuli/SelectedImages/SM/SM205.bmp","83","","","","test","true","M + N","83","switch","SM","SM205.bmp","forget","","79","3","prime1","left","","","",""
"html-keyboard-response","211","650902","0.0-4.0-1.0-3.30","cztywpo5oy3x9n6","prime","5f29a219fd79260ef749a01d","5f60e3c0a3b16e07647b2ff9","5f63802bb433440698b009e6","false","null","<div style=""align-items: center; display: flex; color: darkorange; font-size: 90px""><b>ø</b></div>","null","","","","forget_cue","","","","","","","","","","","","","","","",""
"html-keyboard-response","212","651609","0.0-4.0-1.0-0.31","cztywpo5oy3x9n6","prime","5f29a219fd79260ef749a01d","5f60e3c0a3b16e07647b2ff9","5f63802bb433440698b009e6","false","null","<span style=""color: black; font-size: 48px"">M + N</span>","null","","","","resp_prompt","","","","","","","","","","","","","","","",""
"categorize-image","213","652627","0.0-4.0-1.0-1.31","cztywpo5oy3x9n6","prime","5f29a219fd79260ef749a01d","5f60e3c0a3b16e07647b2ff9","5f63802bb433440698b009e6","true","1008.3400000003166","./Stimuli/SelectedImages/SN/SN181.bmp","83","","","","test","false","M + N","76","switch","SN","SN181.bmp","forget","","80","3","prime1","left","","","",""
"html-keyboard-response","214","653133","0.0-4.0-1.0-2.31-0.31","cztywpo5oy3x9n6","prime","5f29a219fd79260ef749a01d","5f60e3c0a3b16e07647b2ff9","5f63802bb433440698b009e6","false","null","<span style=""color: red; font-size: 48px"">Error!</span>","null","","","","feedback","","","","","","","","","","","","","","","",""
"html-keyboard-response","215","655142","0.0-4.0-1.0-3.31","cztywpo5oy3x9n6","prime","5f29a219fd79260ef749a01d","5f60e3c0a3b16e07647b2ff9","5f63802bb433440698b009e6","false","null","<div style=""align-items: center; display: flex; color: darkorange; font-size: 90px""><b>ø</b></div>","null","","","","forget_cue","","","","","","","","","","","","","","","",""
"html-keyboard-response","216","655853","0.0-4.0-1.0-0.32","cztywpo5oy3x9n6","prime","5f29a219fd79260ef749a01d","5f60e3c0a3b16e07647b2ff9","5f63802bb433440698b009e6","false","null","<span style=""color: black; font-size: 48px"">M + N</span>","null","","","","resp_prompt","","","","","","","","","","","","","","","",""
"categorize-image","217","656424","0.0-4.0-1.0-1.32","cztywpo5oy3x9n6","prime","5f29a219fd79260ef749a01d","5f60e3c0a3b16e07647b2ff9","5f63802bb433440698b009e6","true","555.6300000171177","./Stimuli/SelectedImages/LN/LN128.bmp","76","","","","test","true","M + N","76","repetition","LN","LN128.bmp","remember","","81","3","prime1","right","","","",""
"html-keyboard-response","218","658437","0.0-4.0-1.0-3.32","cztywpo5oy3x9n6","prime","5f29a219fd79260ef749a01d","5f60e3c0a3b16e07647b2ff9","5f63802bb433440698b009e6","false","null","<div style=""align-items: center; display: flex; color: dodgerblue; font-size: 90px""><b>o</b></div>","null","","","","forget_cue","","","","","","","","","","","","","","","",""
"html-keyboard-response","219","659151","0.0-4.0-1.0-0.33","cztywpo5oy3x9n6","prime","5f29a219fd79260ef749a01d","5f60e3c0a3b16e07647b2ff9","5f63802bb433440698b009e6","false","null","<span style=""color: black; font-size: 48px"">M + N</span>","null","","","","resp_prompt","","","","","","","","","","","","","","","",""
"categorize-image","220","660116","0.0-4.0-1.0-1.33","cztywpo5oy3x9n6","prime","5f29a219fd79260ef749a01d","5f60e3c0a3b16e07647b2ff9","5f63802bb433440698b009e6","true","942.9550000349991","./Stimuli/SelectedImages/SN/SN64.bmp","76","","","","test","true","M + N","76","switch","SN","SN64.bmp","remember","","82","3","prime1","right","","","",""
"html-keyboard-response","221","662128","0.0-4.0-1.0-3.33","cztywpo5oy3x9n6","prime","5f29a219fd79260ef749a01d","5f60e3c0a3b16e07647b2ff9","5f63802bb433440698b009e6","false","null","<div style=""align-items: center; display: flex; color: dodgerblue; font-size: 90px""><b>o</b></div>","null","","","","forget_cue","","","","","","","","","","","","","","","",""
"html-keyboard-response","222","662841","0.0-4.0-1.0-0.34","cztywpo5oy3x9n6","prime","5f29a219fd79260ef749a01d","5f60e3c0a3b16e07647b2ff9","5f63802bb433440698b009e6","false","null","<span style=""color: black; font-size: 48px"">N + M</span>","null","","","","resp_prompt","","","","","","","","","","","","","","","",""
"categorize-image","223","663354","0.0-4.0-1.0-1.34","cztywpo5oy3x9n6","prime","5f29a219fd79260ef749a01d","5f60e3c0a3b16e07647b2ff9","5f63802bb433440698b009e6","true","498.06499999249354","./Stimuli/SelectedImages/SN/SN49.bmp","83","","","","test","true","N + M","83","repetition","SN","SN49.bmp","remember","","83","3","prime1","left","","","",""
"html-keyboard-response","224","665368","0.0-4.0-1.0-3.34","cztywpo5oy3x9n6","prime","5f29a219fd79260ef749a01d","5f60e3c0a3b16e07647b2ff9","5f63802bb433440698b009e6","false","null","<div style=""align-items: center; display: flex; color: dodgerblue; font-size: 90px""><b>o</b></div>","null","","","","forget_cue","","","","","","","","","","","","","","","",""
"html-keyboard-response","225","666074","0.0-4.0-1.0-0.35","cztywpo5oy3x9n6","prime","5f29a219fd79260ef749a01d","5f60e3c0a3b16e07647b2ff9","5f63802bb433440698b009e6","false","null","<span style=""color: black; font-size: 48px"">N + M</span>","null","","","","resp_prompt","","","","","","","","","","","","","","","",""
"categorize-image","226","666782","0.0-4.0-1.0-1.35","cztywpo5oy3x9n6","prime","5f29a219fd79260ef749a01d","5f60e3c0a3b16e07647b2ff9","5f63802bb433440698b009e6","true","700.524999992922","./Stimuli/SelectedImages/LN/LN42.bmp","76","","","","test","false","N + M","83","repetition","LN","LN42.bmp","forget","","84","3","prime1","right","","","",""
"html-keyboard-response","227","667292","0.0-4.0-1.0-2.35-0.35","cztywpo5oy3x9n6","prime","5f29a219fd79260ef749a01d","5f60e3c0a3b16e07647b2ff9","5f63802bb433440698b009e6","false","null","<span style=""color: red; font-size: 48px"">Error!</span>","null","","","","feedback","","","","","","","","","","","","","","","",""
"html-keyboard-response","228","669303","0.0-4.0-1.0-3.35","cztywpo5oy3x9n6","prime","5f29a219fd79260ef749a01d","5f60e3c0a3b16e07647b2ff9","5f63802bb433440698b009e6","false","null","<div style=""align-items: center; display: flex; color: darkorange; font-size: 90px""><b>ø</b></div>","null","","","","forget_cue","","","","","","","","","","","","","","","",""
"html-keyboard-response","229","670013","0.0-4.0-1.0-0.36","cztywpo5oy3x9n6","prime","5f29a219fd79260ef749a01d","5f60e3c0a3b16e07647b2ff9","5f63802bb433440698b009e6","false","null","<span style=""color: black; font-size: 48px"">M + N</span>","null","","","","resp_prompt","","","","","","","","","","","","","","","",""
"categorize-image","230","670805","0.0-4.0-1.0-1.36","cztywpo5oy3x9n6","prime","5f29a219fd79260ef749a01d","5f60e3c0a3b16e07647b2ff9","5f63802bb433440698b009e6","true","784.1100000077859","./Stimuli/SelectedImages/SN/SN182.bmp","76","","","","test","true","M + N","76","repetition","SN","SN182.bmp","forget","","85","3","prime1","right","","","",""
"html-keyboard-response","231","672814","0.0-4.0-1.0-3.36","cztywpo5oy3x9n6","prime","5f29a219fd79260ef749a01d","5f60e3c0a3b16e07647b2ff9","5f63802bb433440698b009e6","false","null","<div style=""align-items: center; display: flex; color: darkorange; font-size: 90px""><b>ø</b></div>","null","","","","forget_cue","","","","","","","","","","","","","","","",""
"html-keyboard-response","232","673518","0.0-4.0-1.0-0.37","cztywpo5oy3x9n6","prime","5f29a219fd79260ef749a01d","5f60e3c0a3b16e07647b2ff9","5f63802bb433440698b009e6","false","null","<span style=""color: black; font-size: 48px"">M + N</span>","null","","","","resp_prompt","","","","","","","","","","","","","","","",""
"categorize-image","233","674450","0.0-4.0-1.0-1.37","cztywpo5oy3x9n6","prime","5f29a219fd79260ef749a01d","5f60e3c0a3b16e07647b2ff9","5f63802bb433440698b009e6","true","921.825000026729","./Stimuli/SelectedImages/LN/LN149.bmp","76","","","","test","true","M + N","76","repetition","LN","LN149.bmp","remember","","86","3","prime1","right","","","",""
"html-keyboard-response","234","676455","0.0-4.0-1.0-3.37","cztywpo5oy3x9n6","prime","5f29a219fd79260ef749a01d","5f60e3c0a3b16e07647b2ff9","5f63802bb433440698b009e6","false","null","<div style=""align-items: center; display: flex; color: dodgerblue; font-size: 90px""><b>o</b></div>","null","","","","forget_cue","","","","","","","","","","","","","","","",""
"html-keyboard-response","235","677175","0.0-4.0-1.0-0.38","cztywpo5oy3x9n6","prime","5f29a219fd79260ef749a01d","5f60e3c0a3b16e07647b2ff9","5f63802bb433440698b009e6","false","null","<span style=""color: black; font-size: 48px"">N + M</span>","null","","","","resp_prompt","","","","","","","","","","","","","","","",""
"categorize-image","236","678107","0.0-4.0-1.0-1.38","cztywpo5oy3x9n6","prime","5f29a219fd79260ef749a01d","5f60e3c0a3b16e07647b2ff9","5f63802bb433440698b009e6","true","924.0800000261515","./Stimuli/SelectedImages/LN/LN131.bmp","83","","","","test","true","N + M","83","repetition","LN","LN131.bmp","forget","","87","3","prime1","left","","","",""
"html-keyboard-response","237","680122","0.0-4.0-1.0-3.38","cztywpo5oy3x9n6","prime","5f29a219fd79260ef749a01d","5f60e3c0a3b16e07647b2ff9","5f63802bb433440698b009e6","false","null","<div style=""align-items: center; display: flex; color: darkorange; font-size: 90px""><b>ø</b></div>","null","","","","forget_cue","","","","","","","","","","","","","","","",""
"html-keyboard-response","238","680830","0.0-4.0-1.0-0.39","cztywpo5oy3x9n6","prime","5f29a219fd79260ef749a01d","5f60e3c0a3b16e07647b2ff9","5f63802bb433440698b009e6","false","null","<span style=""color: black; font-size: 48px"">N + M</span>","null","","","","resp_prompt","","","","","","","","","","","","","","","",""
"categorize-image","239","681560","0.0-4.0-1.0-1.39","cztywpo5oy3x9n6","prime","5f29a219fd79260ef749a01d","5f60e3c0a3b16e07647b2ff9","5f63802bb433440698b009e6","true","706.8750000325963","./Stimuli/SelectedImages/SN/SN52.bmp","83","","","","test","true","N + M","83","repetition","SN","SN52.bmp","forget","","88","3","prime1","left","","","",""
"html-keyboard-response","240","683576","0.0-4.0-1.0-3.39","cztywpo5oy3x9n6","prime","5f29a219fd79260ef749a01d","5f60e3c0a3b16e07647b2ff9","5f63802bb433440698b009e6","false","null","<div style=""align-items: center; display: flex; color: darkorange; font-size: 90px""><b>ø</b></div>","null","","","","forget_cue","","","","","","","","","","","","","","","",""
"html-keyboard-response","241","684279","0.0-4.0-1.0-0.40","cztywpo5oy3x9n6","prime","5f29a219fd79260ef749a01d","5f60e3c0a3b16e07647b2ff9","5f63802bb433440698b009e6","false","null","<span style=""color: black; font-size: 48px"">M + N</span>","null","","","","resp_prompt","","","","","","","","","","","","","","","",""
"categorize-image","242","685071","0.0-4.0-1.0-1.40","cztywpo5oy3x9n6","prime","5f29a219fd79260ef749a01d","5f60e3c0a3b16e07647b2ff9","5f63802bb433440698b009e6","true","783.1600000499748","./Stimuli/SelectedImages/SN/SN179.bmp","76","","","","test","true","M + N","76","switch","SN","SN179.bmp","forget","","89","3","prime1","right","","","",""
"html-keyboard-response","243","687077","0.0-4.0-1.0-3.40","cztywpo5oy3x9n6","prime","5f29a219fd79260ef749a01d","5f60e3c0a3b16e07647b2ff9","5f63802bb433440698b009e6","false","null","<div style=""align-items: center; display: flex; color: darkorange; font-size: 90px""><b>ø</b></div>","null","","","","forget_cue","","","","","","","","","","","","","","","",""
"html-keyboard-response","244","687788","0.0-4.0-1.0-0.41","cztywpo5oy3x9n6","prime","5f29a219fd79260ef749a01d","5f60e3c0a3b16e07647b2ff9","5f63802bb433440698b009e6","false","null","<span style=""color: black; font-size: 48px"">M + N</span>","null","","","","resp_prompt","","","","","","","","","","","","","","","",""
"categorize-image","245","688595","0.0-4.0-1.0-1.41","cztywpo5oy3x9n6","prime","5f29a219fd79260ef749a01d","5f60e3c0a3b16e07647b2ff9","5f63802bb433440698b009e6","true","793.7950000050478","./Stimuli/SelectedImages/SM/SM74.bmp","83","","","","test","true","M + N","83","repetition","SM","SM74.bmp","remember","","90","3","prime1","left","","","",""
"html-keyboard-response","246","690602","0.0-4.0-1.0-3.41","cztywpo5oy3x9n6","prime","5f29a219fd79260ef749a01d","5f60e3c0a3b16e07647b2ff9","5f63802bb433440698b009e6","false","null","<div style=""align-items: center; display: flex; color: dodgerblue; font-size: 90px""><b>o</b></div>","null","","","","forget_cue","","","","","","","","","","","","","","","",""
"html-keyboard-response","247","691304","0.0-4.0-1.0-0.42","cztywpo5oy3x9n6","prime","5f29a219fd79260ef749a01d","5f60e3c0a3b16e07647b2ff9","5f63802bb433440698b009e6","false","null","<span style=""color: black; font-size: 48px"">N + M</span>","null","","","","resp_prompt","","","","","","","","","","","","","","","",""
"categorize-image","248","692263","0.0-4.0-1.0-1.42","cztywpo5oy3x9n6","prime","5f29a219fd79260ef749a01d","5f60e3c0a3b16e07647b2ff9","5f63802bb433440698b009e6","true","951.7699999851175","./Stimuli/SelectedImages/SN/SN128.bmp","76","","","","test","false","N + M","83","switch","SN","SN128.bmp","remember","","91","3","prime1","right","","","",""
"html-keyboard-response","249","692771","0.0-4.0-1.0-2.42-0.42","cztywpo5oy3x9n6","prime","5f29a219fd79260ef749a01d","5f60e3c0a3b16e07647b2ff9","5f63802bb433440698b009e6","false","null","<span style=""color: red; font-size: 48px"">Error!</span>","null","","","","feedback","","","","","","","","","","","","","","","",""
"html-keyboard-response","250","694775","0.0-4.0-1.0-3.42","cztywpo5oy3x9n6","prime","5f29a219fd79260ef749a01d","5f60e3c0a3b16e07647b2ff9","5f63802bb433440698b009e6","false","null","<div style=""align-items: center; display: flex; color: dodgerblue; font-size: 90px""><b>o</b></div>","null","","","","forget_cue","","","","","","","","","","","","","","","",""
"html-keyboard-response","251","695476","0.0-4.0-1.0-0.43","cztywpo5oy3x9n6","prime","5f29a219fd79260ef749a01d","5f60e3c0a3b16e07647b2ff9","5f63802bb433440698b009e6","false","null","<span style=""color: black; font-size: 48px"">M + N</span>","null","","","","resp_prompt","","","","","","","","","","","","","","","",""
"categorize-image","252","696255","0.0-4.0-1.0-1.43","cztywpo5oy3x9n6","prime","5f29a219fd79260ef749a01d","5f60e3c0a3b16e07647b2ff9","5f63802bb433440698b009e6","true","775.3900000243448","./Stimuli/SelectedImages/LM/LM129.bmp","83","","","","test","true","M + N","83","switch","LM","LM129.bmp","remember","","92","3","prime1","left","","","",""
