"trial_type","trial_index","time_elapsed","internal_node_id","subject","exp_part","prolific_PID","study_ID","session_ID","use","rt","stimulus","key_press","button_pressed","responses","question_order","trial_part","correct","resp_map","correct_resp","probe_condition","category","image","forget_condition","list","trial_num","block_num","block","response","test_part","n_span","sequence","num_spaces"
"pavlovia","0","2","0.0-0.0","xy62lkd6js3teu3","","5bfbff5763fc010001526679","5f5a55364e9b770ed21874ff","5f60d7ae0ef802052beba70c","false","","","","","","","","","","","","","","","","","","","","","","",""
"html-keyboard-response","1","24501","0.0-1.0-0.0-0.0","xy62lkd6js3teu3","welcome","5bfbff5763fc010001526679","5f5a55364e9b770ed21874ff","5f60d7ae0ef802052beba70c","false","24499.089999997523","<div align=left>Dear participant, <br> thank you for participating in an online study of the Cognition, Action, and Sustainability Unit of the University of Freiburg! <br> <br>The aim of this study is to examine our ability to remember previously learned information. <br>Our goal is to find out, whether our memory improves, when we only remember information that is relevant to us. <br>The experiment will take about 30 minutes to complete. <br> <br>Please, note that you can only participate in this study if you are using a device with a keyboard (PC, Laptop etc.) <br>and not if you are using a mobile device such as a tablet or smartphone.<br> <br>Press 'SPACE' to proceed to the experiment. </div>","32","","","","","","","","","","","","","","","","","","","",""
"html-keyboard-response","2","26367","0.0-1.0-0.0-1.0","xy62lkd6js3teu3","welcome","5bfbff5763fc010001526679","5f5a55364e9b770ed21874ff","5f60d7ae0ef802052beba70c","false","1865.0300000008428","<div align=left><strong> Time Course of this experiment: </strong> <br><br> <strong> 1.</strong>  First, please fill in some information regarding your demographic data. <br><br> <strong> 2.</strong>  Next, your task will be to classify everyday objects. <br>In addition, you will be asked to remember certain objects and recall them later. <br>Working on these tasks requires your undivided attention and concentration.<br>It is therefore essential that you eliminate any sources of distraction in your  <br>environment and ensure that you will not be disturbed. <br><br><strong> 3.</strong>  At the end of the experiment, you will be asked to answer a few additional questions. <br> <br><strong> Important:</strong> After finishing the experiment, only close the browser window <br> by clicking on the 'end the experiment'-button when you are asked to do so. <br>Closing the browser window prematurely will make the allocation of your participation credit impossible. <br><br> Press 'SPACE' to start the experiment. </div>","32","","","","","","","","","","","","","","","","","","","",""
"html-button-response","3","29149","0.0-1.0-0.0-2.0","xy62lkd6js3teu3","welcome","5bfbff5763fc010001526679","5f5a55364e9b770ed21874ff","5f60d7ae0ef802052beba70c","true","2781.364999988","<div align=left><strong> Informed consent </strong>  <br>The aim of our research is to better understand human behavior and mental processes. <br>In the following study your behavior (e.g. choices, reaction times) will be studied. <br> <br><strong> Voluntariness and Anonymity </strong> <br>Your participation in this study is  <strong> voluntary</strong>.<br>You may withdraw your consent to participate at any time without providing a reason for doing so and without fear of prejudice. <br><br>As no personal data will be collected, <strong>your data and your person cannot be connected after data collection</strong> – the data-set is anonymous. <br>Respectively, deletion of your data will not be possible after data collection has been completed, as we cannot retrace your data-set.<br>The results and anonymized data collected in this study will be published as a scientific publication. <br>This will happen in an <strong>anonymized format</strong>, so that no data can be traced back to a specific person. <br> <br>The anonymized data of this study will be made available to other researchers and/or in a data archive on the Internet as a means of transparency and to enable subsequent re-use. By doing so, this study follows the recommendations of the Deutsche Forschungsgemeinschaft (DFG, German Research Foundation) and Deutsche Gesellschaft für Psychologie (DGPS, German Psychological Society) regarding quality assurance in research.<br>If you have any questions now or after the experiment, please contact our team (experiments@cs.uni-freiburg.de).<br><br><br>I hereby declare, that I understand the above described conditions of participation and I agree to participate under these conditions. <br><br> </div>","","0","","","","","","","","","","","","","","","","","","",""
"html-keyboard-response","4","32545","0.0-1.0-0.0-3.0","xy62lkd6js3teu3","welcome","5bfbff5763fc010001526679","5f5a55364e9b770ed21874ff","5f60d7ae0ef802052beba70c","false","3394.994999995106","<div align=left><strong> General information concerning the experiment </strong>  <br> <br>Please follow the instructions:<ol> <li><strong> Do not leave this tab (your browser window) during the experiment and do not reload this tab! </strong>  <br>If you do switch tabs/windows during the experiment (to check your mail or visit another website, for example), <br>the experiment will end automatically and you will <strong>not receive credit</strong> for your participation. <br>Repeated participation or resumption of the experiment is impossible.</li> <br><li>Please close all other programs for the duration of your participation. </li> <br><li>Please mute or turn off your phone and put it out of your reach. </li> <br><li>Please also take off any disturbing accessories (such as wristwatches, bracelets, etc.). </li> <br><li>If you have music playing in the background, please turn it off now. </li> <br></ol>Thank you! <br>Press 'SPACE' to continue. </div>","32","","","","","","","","","","","","","","","","","","","",""
"survey-text","5","35581","0.0-1.0-1.0-0.0","xy62lkd6js3teu3","demographics","5bfbff5763fc010001526679","5f5a55364e9b770ed21874ff","5f60d7ae0ef802052beba70c","true","3033.6700000043493","","","","{""age"":""30""}","","","","","","","","","","","","","","","","","",""
"survey-multi-choice","6","47703","0.0-1.0-1.0-1.0","xy62lkd6js3teu3","demographics","5bfbff5763fc010001526679","5f5a55364e9b770ed21874ff","5f60d7ae0ef802052beba70c","true","12121.064999999362","","","","{""gender"":""female"",""school"":""others"",""education"":""Completed university degree or equivalent""}","[0,1,2]","","","","","","","","","","","","","","","","",""
"html-keyboard-response","7","50243","0.0-1.0-2.0","xy62lkd6js3teu3","instructions","5bfbff5763fc010001526679","5f5a55364e9b770ed21874ff","5f60d7ae0ef802052beba70c","false","2537.284999998519","<div align=left> The experiment is now about to start: <br> <br>In the following part, you will be presented pictures of everyday objects. <br>Your first task is to <strong>classify these objects. </strong> <br> <br> You will classify them either as mechanical or non-mechanical objects. <br> <br>Objects that include any kind of technical mechanism (for example, wheels, switches, levers, <br> electronic components) fall under the category of <strong>mechanical</strong> objects. <br>Only objects without any kind of technical mechanism should be classified as <strong>non-mechanical</strong>. <br><br>Press 'SPACE' to continue. </div>","32","","","","","","","","","","","","","","","","","","","",""
"html-keyboard-response","8","68458","0.0-2.0-0.0","xy62lkd6js3teu3","instructions","5bfbff5763fc010001526679","5f5a55364e9b770ed21874ff","5f60d7ae0ef802052beba70c","false","18214.689999993425","<div align=justify>You will classify the objects using the <strong>'S'</strong> and the <strong>'L'</strong> keys on your keyboard.<br>For doing so, please place your <strong>left index finger</strong> on the <strong>'S'</strong> key and place your <strong>right index finger</strong> on the <strong>'L'</strong> key. <br><br> Each trial starts with an instruction, indicating which key ('S'/'L') you need to press to classify <br>the object as mechanical (letter M) or non-mechanical (letter N).<br>The instruction <strong>M + N</strong> indicates that, in the current trial, by pressing the left key ('S') you classify the displayed object as mechanical (M) <br> and by pressing the right key ('L') you classify the object as non-mechanical (N). <br>The instruction <strong>N + M</strong> on the other hand indicates that by pressing the left key ('S') you classify the displayed object as non-mechanical (N) <br> and by pressing the right key ('L') you classify the object as mechanical (M). <br><br>Please press the key corresponding to the correct classification as fast as possible as soon as the object is displayed and try to avoid making mistakes.<br>If you do not respond within a 2 second window, a corresponding feedback will be displayed and the next trial will start.<br> The experiment is divided into multiple blocks to give you the opportunity to take a break after each block. <br>First, you can now practice this task. <br><br>Please place your <strong>LEFT INDEX FINGER</strong> on the 'S' key and your <strong>RIGHT INDEX FINGER</strong> on the 'L' key now. <br><br>Press SPACE to continue.</div>","32","","","","","","","","","","","","","","","","","","","",""
"html-keyboard-response","9","71074","0.0-2.0-1.0","xy62lkd6js3teu3","instructions","5bfbff5763fc010001526679","5f5a55364e9b770ed21874ff","5f60d7ae0ef802052beba70c","false","2615.174999998999","<div align=left> You will now have time to practice this task.<br><br>Remember: <br> <br><li>Please place your index fingers on the <strong>'S'</strong> and <strong>'L'</strong> keys <br>to respond as fast and accurately as possible.</li><li>Every picture can be classified as either mechanical or non-mechanical.</li><li>If you do not respond in time or commit an error, you will receive a corresponding feedback. </li><li> Please try to respond as <strong> fast </strong> and as <strong> accurately as possible </strong> .<br><li>To ensure optimal results, please minimize distractions and stay focused. </li><br><br>Press SPACE to continue.</div>","32","","","","","","","","","","","","","","","","","","","",""
"html-keyboard-response","10","71775","0.0-2.0-2.0-0.0","xy62lkd6js3teu3","practice_no_cue","5bfbff5763fc010001526679","5f5a55364e9b770ed21874ff","5f60d7ae0ef802052beba70c","false","null","<span style=""color: black; font-size: 48px"">N + M</span>","null","","","","resp_prompt","","","","","","","","","","","","","","","",""
"categorize-image","11","74278","0.0-2.0-2.0-1.0","xy62lkd6js3teu3","practice_no_cue","5bfbff5763fc010001526679","5f5a55364e9b770ed21874ff","5f60d7ae0ef802052beba70c","true","null","./Stimuli/ImagesPractice/SM35.jpg","null","","","","test","false","N + M","76","","SM","SM35.jpg","forget","old","1","1","start","too_slow","","","",""
"html-keyboard-response","12","74978","0.0-2.0-2.0-0.1","xy62lkd6js3teu3","practice_no_cue","5bfbff5763fc010001526679","5f5a55364e9b770ed21874ff","5f60d7ae0ef802052beba70c","false","null","<span style=""color: black; font-size: 48px"">M + N</span>","null","","","","resp_prompt","","","","","","","","","","","","","","","",""
"categorize-image","13","76594","0.0-2.0-2.0-1.1","xy62lkd6js3teu3","practice_no_cue","5bfbff5763fc010001526679","5f5a55364e9b770ed21874ff","5f60d7ae0ef802052beba70c","true","1113.375000000815","./Stimuli/ImagesPractice/LM224.jpg","76","","","","test","false","M + N","83","","LM","LM224.jpg","forget","old","2","1","start","right","","","",""
"html-keyboard-response","14","77294","0.0-2.0-2.0-0.2","xy62lkd6js3teu3","practice_no_cue","5bfbff5763fc010001526679","5f5a55364e9b770ed21874ff","5f60d7ae0ef802052beba70c","false","null","<span style=""color: black; font-size: 48px"">N + M</span>","null","","","","resp_prompt","","","","","","","","","","","","","","","",""
"categorize-image","15","78415","0.0-2.0-2.0-1.2","xy62lkd6js3teu3","practice_no_cue","5bfbff5763fc010001526679","5f5a55364e9b770ed21874ff","5f60d7ae0ef802052beba70c","true","619.1850000031991","./Stimuli/ImagesPractice/SM37.jpg","76","","","","test","true","N + M","76","","SM","SM37.jpg","remember","old","3","1","start","right","","","",""
"html-keyboard-response","16","79116","0.0-2.0-2.0-0.3","xy62lkd6js3teu3","practice_no_cue","5bfbff5763fc010001526679","5f5a55364e9b770ed21874ff","5f60d7ae0ef802052beba70c","false","null","<span style=""color: black; font-size: 48px"">M + N</span>","null","","","","resp_prompt","","","","","","","","","","","","","","","",""
"categorize-image","17","80431","0.0-2.0-2.0-1.3","xy62lkd6js3teu3","practice_no_cue","5bfbff5763fc010001526679","5f5a55364e9b770ed21874ff","5f60d7ae0ef802052beba70c","true","813.3149999921443","./Stimuli/ImagesPractice/LN4.jpg","83","","","","test","false","M + N","76","","LN","LN4.jpg","forget","old","4","1","start","left","","","",""
"html-keyboard-response","18","81131","0.0-2.0-2.0-0.4","xy62lkd6js3teu3","practice_no_cue","5bfbff5763fc010001526679","5f5a55364e9b770ed21874ff","5f60d7ae0ef802052beba70c","false","null","<span style=""color: black; font-size: 48px"">N + M</span>","null","","","","resp_prompt","","","","","","","","","","","","","","","",""
"categorize-image","19","82948","0.0-2.0-2.0-1.4","xy62lkd6js3teu3","practice_no_cue","5bfbff5763fc010001526679","5f5a55364e9b770ed21874ff","5f60d7ae0ef802052beba70c","true","1314.7849999950267","./Stimuli/ImagesPractice/SN220.jpg","83","","","","test","true","N + M","83","","SN","SN220.jpg","remember","old","5","1","start","left","","","",""
"html-keyboard-response","20","83648","0.0-2.0-2.0-0.5","xy62lkd6js3teu3","practice_no_cue","5bfbff5763fc010001526679","5f5a55364e9b770ed21874ff","5f60d7ae0ef802052beba70c","false","null","<span style=""color: black; font-size: 48px"">M + N</span>","null","","","","resp_prompt","","","","","","","","","","","","","","","",""
"categorize-image","21","85621","0.0-2.0-2.0-1.5","xy62lkd6js3teu3","practice_no_cue","5bfbff5763fc010001526679","5f5a55364e9b770ed21874ff","5f60d7ae0ef802052beba70c","true","1470.8749999990687","./Stimuli/ImagesPractice/LM143.jpg","83","","","","test","true","M + N","83","","LM","LM143.jpg","remember","old","6","1","start","left","","","",""
"html-keyboard-response","22","86323","0.0-2.0-2.0-0.6","xy62lkd6js3teu3","practice_no_cue","5bfbff5763fc010001526679","5f5a55364e9b770ed21874ff","5f60d7ae0ef802052beba70c","false","null","<span style=""color: black; font-size: 48px"">M + N</span>","null","","","","resp_prompt","","","","","","","","","","","","","","","",""
"categorize-image","23","87663","0.0-2.0-2.0-1.6","xy62lkd6js3teu3","practice_no_cue","5bfbff5763fc010001526679","5f5a55364e9b770ed21874ff","5f60d7ae0ef802052beba70c","true","838.610000006156","./Stimuli/ImagesPractice/LM239.jpg","76","","","","test","false","M + N","83","","LM","LM239.jpg","remember","old","7","1","start","right","","","",""
"html-keyboard-response","24","88365","0.0-2.0-2.0-0.7","xy62lkd6js3teu3","practice_no_cue","5bfbff5763fc010001526679","5f5a55364e9b770ed21874ff","5f60d7ae0ef802052beba70c","false","null","<span style=""color: black; font-size: 48px"">N + M</span>","null","","","","resp_prompt","","","","","","","","","","","","","","","",""
"categorize-image","25","89670","0.0-2.0-2.0-1.7","xy62lkd6js3teu3","practice_no_cue","5bfbff5763fc010001526679","5f5a55364e9b770ed21874ff","5f60d7ae0ef802052beba70c","true","804.6199999953387","./Stimuli/ImagesPractice/SN75.jpg","83","","","","test","true","N + M","83","","SN","SN75.jpg","forget","old","8","1","start","left","","","",""
"html-keyboard-response","26","90372","0.0-2.0-2.0-0.8","xy62lkd6js3teu3","practice_no_cue","5bfbff5763fc010001526679","5f5a55364e9b770ed21874ff","5f60d7ae0ef802052beba70c","false","null","<span style=""color: black; font-size: 48px"">N + M</span>","null","","","","resp_prompt","","","","","","","","","","","","","","","",""
"categorize-image","27","91672","0.0-2.0-2.0-1.8","xy62lkd6js3teu3","practice_no_cue","5bfbff5763fc010001526679","5f5a55364e9b770ed21874ff","5f60d7ae0ef802052beba70c","true","799.3350000033388","./Stimuli/ImagesPractice/LN72.jpg","83","","","","test","true","N + M","83","","LN","LN72.jpg","remember","old","9","1","start","left","","","",""
"html-keyboard-response","28","92373","0.0-2.0-2.0-0.9","xy62lkd6js3teu3","practice_no_cue","5bfbff5763fc010001526679","5f5a55364e9b770ed21874ff","5f60d7ae0ef802052beba70c","false","null","<span style=""color: black; font-size: 48px"">M + N</span>","null","","","","resp_prompt","","","","","","","","","","","","","","","",""
"categorize-image","29","93450","0.0-2.0-2.0-1.9","xy62lkd6js3teu3","practice_no_cue","5bfbff5763fc010001526679","5f5a55364e9b770ed21874ff","5f60d7ae0ef802052beba70c","true","575.2899999934016","./Stimuli/ImagesPractice/SN205.jpg","76","","","","test","true","M + N","76","","SN","SN205.jpg","forget","old","10","1","start","right","","","",""
"html-keyboard-response","30","94151","0.0-2.0-2.0-0.10","xy62lkd6js3teu3","practice_no_cue","5bfbff5763fc010001526679","5f5a55364e9b770ed21874ff","5f60d7ae0ef802052beba70c","false","null","<span style=""color: black; font-size: 48px"">N + M</span>","null","","","","resp_prompt","","","","","","","","","","","","","","","",""
"categorize-image","31","95865","0.0-2.0-2.0-1.10","xy62lkd6js3teu3","practice_no_cue","5bfbff5763fc010001526679","5f5a55364e9b770ed21874ff","5f60d7ae0ef802052beba70c","true","1212.9999999888241","./Stimuli/ImagesPractice/LN2.jpg","76","","","","test","false","N + M","83","","LN","LN2.jpg","remember","old","11","1","start","right","","","",""
"html-keyboard-response","32","96565","0.0-2.0-2.0-0.11","xy62lkd6js3teu3","practice_no_cue","5bfbff5763fc010001526679","5f5a55364e9b770ed21874ff","5f60d7ae0ef802052beba70c","false","null","<span style=""color: black; font-size: 48px"">M + N</span>","null","","","","resp_prompt","","","","","","","","","","","","","","","",""
"categorize-image","33","97932","0.0-2.0-2.0-1.11","xy62lkd6js3teu3","practice_no_cue","5bfbff5763fc010001526679","5f5a55364e9b770ed21874ff","5f60d7ae0ef802052beba70c","true","865.0449999986449","./Stimuli/ImagesPractice/LN109.jpg","76","","","","test","true","M + N","76","","LN","LN109.jpg","remember","old","12","1","start","right","","","",""
"html-keyboard-response","34","98633","0.0-2.0-2.0-0.12","xy62lkd6js3teu3","practice_no_cue","5bfbff5763fc010001526679","5f5a55364e9b770ed21874ff","5f60d7ae0ef802052beba70c","false","null","<span style=""color: black; font-size: 48px"">M + N</span>","null","","","","resp_prompt","","","","","","","","","","","","","","","",""
"categorize-image","35","101135","0.0-2.0-2.0-1.12","xy62lkd6js3teu3","practice_no_cue","5bfbff5763fc010001526679","5f5a55364e9b770ed21874ff","5f60d7ae0ef802052beba70c","true","null","./Stimuli/ImagesPractice/SM61.jpg","null","","","","test","false","M + N","83","","SM","SM61.jpg","forget","old","13","1","start","too_slow","","","",""
"html-keyboard-response","36","101836","0.0-2.0-2.0-0.13","xy62lkd6js3teu3","practice_no_cue","5bfbff5763fc010001526679","5f5a55364e9b770ed21874ff","5f60d7ae0ef802052beba70c","false","null","<span style=""color: black; font-size: 48px"">N + M</span>","null","","","","resp_prompt","","","","","","","","","","","","","","","",""
"categorize-image","37","102931","0.0-2.0-2.0-1.13","xy62lkd6js3teu3","practice_no_cue","5bfbff5763fc010001526679","5f5a55364e9b770ed21874ff","5f60d7ae0ef802052beba70c","true","593.8250000035623","./Stimuli/ImagesPractice/LN17.jpg","83","","","","test","true","N + M","83","","LN","LN17.jpg","forget","old","14","1","start","left","","","",""
"html-keyboard-response","38","103632","0.0-2.0-2.0-0.14","xy62lkd6js3teu3","practice_no_cue","5bfbff5763fc010001526679","5f5a55364e9b770ed21874ff","5f60d7ae0ef802052beba70c","false","null","<span style=""color: black; font-size: 48px"">M + N</span>","null","","","","resp_prompt","","","","","","","","","","","","","","","",""
"categorize-image","39","105186","0.0-2.0-2.0-1.14","xy62lkd6js3teu3","practice_no_cue","5bfbff5763fc010001526679","5f5a55364e9b770ed21874ff","5f60d7ae0ef802052beba70c","true","1053.5450000024866","./Stimuli/ImagesPractice/SM62.jpg","83","","","","test","true","M + N","83","","SM","SM62.jpg","remember","old","15","1","start","left","","","",""
"html-keyboard-response","40","105887","0.0-2.0-2.0-0.15","xy62lkd6js3teu3","practice_no_cue","5bfbff5763fc010001526679","5f5a55364e9b770ed21874ff","5f60d7ae0ef802052beba70c","false","null","<span style=""color: black; font-size: 48px"">N + M</span>","null","","","","resp_prompt","","","","","","","","","","","","","","","",""
"categorize-image","41","107337","0.0-2.0-2.0-1.15","xy62lkd6js3teu3","practice_no_cue","5bfbff5763fc010001526679","5f5a55364e9b770ed21874ff","5f60d7ae0ef802052beba70c","true","948.7999999983003","./Stimuli/ImagesPractice/SN222.jpg","83","","","","test","true","N + M","83","","SN","SN222.jpg","forget","old","16","1","start","left","","","",""
"html-keyboard-response","42","111865","0.0-2.0-3.0","xy62lkd6js3teu3","break","5bfbff5763fc010001526679","5f5a55364e9b770ed21874ff","5f60d7ae0ef802052beba70c","false","4527.0500000042375","<p style='font-size: 32px;'>Break</><br><br><br><br><br><p style='font-size: 24px;'>In the last block, you committed 4 errors and did not respond in time on 2 trials.
</p><p style='font-size: 24px;'>Try to respond as fast and accurately as possible in the next block as well! </p><p style='font-size: 24px;'>Press SPACE to continue.</p>","32","","","","","","","","","","","","","","","","","","","",""
"html-keyboard-response","43","115023","0.0-2.0-4.0","xy62lkd6js3teu3","instructions","5bfbff5763fc010001526679","5f5a55364e9b770ed21874ff","5f60d7ae0ef802052beba70c","false","3157.0800000044983","<div align=left> Great!<br><br>Are you ready to continue?<br><br>If you want to reread the instructions and redo the practice trials, <br>please press „Z“. <br><br>Press SPACE to CONTINUE with the experiment when you are ready. </div>","32","","","","","","","","","","","","","","","","","","","",""
"html-keyboard-response","44","126878","0.0-3.0-0.0","xy62lkd6js3teu3","instructions","5bfbff5763fc010001526679","5f5a55364e9b770ed21874ff","5f60d7ae0ef802052beba70c","false","11854.310000009718","<div align=left>Great!<br> <strong>Attention</strong>! You will now receive a second, additional task! <br><br>To this point it was you <strong>first task</strong> to correctly <strong>classify objects</strong>. <br><br>As mentioned in the beginning, we aim to examine how well humans can remember previously learned information.<br>We would like to find out whether our memory improves if we only remember information that is relevant to us. <br><br>Therefore, your <strong>second task</strong> will be to <strong>remember</strong> the pictures you are to categorize. <br> After the learning phase, there will be a memory test phase, in which you will be asked to indicate whether you have seen a picture before or not. <br>Some, but not all pictures shown in the learning phase will appear in the memory test phase.<br>After classifying a picture, you will be told whether you should remember it for the memory test phase or not. <br>Thus, some pictures can be forgotten, whereas others have to be remembered. <br><br>Note: From now on, feedback will only be displayed if you responded incorrectly or not in time.<br><br>Press SPACE to continue.</div>","32","","","","","","","","","","","","","","","","","","","",""
"html-keyboard-response","45","135508","0.0-3.0-1.0","xy62lkd6js3teu3","instructions","5bfbff5763fc010001526679","5f5a55364e9b770ed21874ff","5f60d7ae0ef802052beba70c","false","8630.170000004","<div align=left>In the following part, you will thus have to remember only some pictures. <br>Immediately after seeing and classifying the picture, a symbol will be displayed, indicating whether you should remember or forget the previous picture. <br><br>A <span style='color: dodgerblue; font-size: 28px'>O</span> indicates REMEMBER. That means, you have to remember this picture, because it will be tested later. <br><br>A <span style='color: darkorange; font-size:28px'>Ø</span> indicates FORGET. You do not have to remember this picture. <br><br> As you will have to remember a lot of pictures, it will be hard for you to remember all of them. <br>It will put you at an advantage if you instantly forget the pictures you are not asked to remember. <br> This will make it easier for you to remember the pictures that will be tested afterwards. <br><br>Press SPACE to continue.</div>","32","","","","","","","","","","","","","","","","","","","",""
"html-keyboard-response","46","144173","0.0-3.0-2.0","xy62lkd6js3teu3","instructions","5bfbff5763fc010001526679","5f5a55364e9b770ed21874ff","5f60d7ae0ef802052beba70c","false","8664.575000002515","<div align=left> Now you have the chance to practice both tasks together.<br><br>Remember: <br> <br><li>Please place your index fingers on the <strong>'S'</strong> and <strong>'L'</strong> keys <br>to respond as fast and accurately as possible.</li><li>Every picture can be classified as either mechanical or non-mechanical.</li><li>If you do not respond in time or commit an error, you will receive a corresponding feedback. <br>Please try to respond as <strong> fast </strong> and as <strong> accurately as possible </strong>.</li><li> Please remember only the to-be-remembered <span style='color: dodgerblue; font-size: 28px'>O</span> pictures. <br></li><li> Please minimize distractions and stay focused. </li><br><br>Press SPACE to START</div>","32","","","","","","","","","","","","","","","","","","","",""
"html-keyboard-response","47","144875","0.0-3.0-3.0-0.0","xy62lkd6js3teu3","practice_cue","5bfbff5763fc010001526679","5f5a55364e9b770ed21874ff","5f60d7ae0ef802052beba70c","false","null","<span style=""color: black; font-size: 48px"">N + M</span>","null","","","","resp_prompt","","","","","","","","","","","","","","","",""
"categorize-image","48","145525","0.0-3.0-3.0-1.0","xy62lkd6js3teu3","practice_cue","5bfbff5763fc010001526679","5f5a55364e9b770ed21874ff","5f60d7ae0ef802052beba70c","true","647.8950000018813","./Stimuli/ImagesPractice/SN222.jpg","83","","","","test","true","N + M","83","","SN","SN222.jpg","forget","old","17","2","practice_forget","left","","","",""
"html-keyboard-response","49","147527","0.0-3.0-3.0-3.0","xy62lkd6js3teu3","practice_cue","5bfbff5763fc010001526679","5f5a55364e9b770ed21874ff","5f60d7ae0ef802052beba70c","false","null","<div style=""align-items: center; display: flex; color: darkorange; font-size: 90px""><b>ø</b></div>","null","","","","forget_cue","","","","","","","","","","","","","","","",""
"html-keyboard-response","50","148228","0.0-3.0-3.0-0.1","xy62lkd6js3teu3","practice_cue","5bfbff5763fc010001526679","5f5a55364e9b770ed21874ff","5f60d7ae0ef802052beba70c","false","null","<span style=""color: black; font-size: 48px"">M + N</span>","null","","","","resp_prompt","","","","","","","","","","","","","","","",""
"categorize-image","51","149353","0.0-3.0-3.0-1.1","xy62lkd6js3teu3","practice_cue","5bfbff5763fc010001526679","5f5a55364e9b770ed21874ff","5f60d7ae0ef802052beba70c","true","1121.964999998454","./Stimuli/ImagesPractice/SM62.jpg","83","","","","test","true","M + N","83","","SM","SM62.jpg","remember","old","18","2","practice_forget","left","","","",""
"html-keyboard-response","52","151354","0.0-3.0-3.0-3.1","xy62lkd6js3teu3","practice_cue","5bfbff5763fc010001526679","5f5a55364e9b770ed21874ff","5f60d7ae0ef802052beba70c","false","null","<div style=""align-items: center; display: flex; color: dodgerblue; font-size: 90px""><b>o</b></div>","null","","","","forget_cue","","","","","","","","","","","","","","","",""
"html-keyboard-response","53","152055","0.0-3.0-3.0-0.2","xy62lkd6js3teu3","practice_cue","5bfbff5763fc010001526679","5f5a55364e9b770ed21874ff","5f60d7ae0ef802052beba70c","false","null","<span style=""color: black; font-size: 48px"">N + M</span>","null","","","","resp_prompt","","","","","","","","","","","","","","","",""
"categorize-image","54","153364","0.0-3.0-3.0-1.2","xy62lkd6js3teu3","practice_cue","5bfbff5763fc010001526679","5f5a55364e9b770ed21874ff","5f60d7ae0ef802052beba70c","true","1306.670000005397","./Stimuli/ImagesPractice/SM35.jpg","76","","","","test","true","N + M","76","","SM","SM35.jpg","forget","old","19","2","practice_forget","right","","","",""
"html-keyboard-response","55","155365","0.0-3.0-3.0-3.2","xy62lkd6js3teu3","practice_cue","5bfbff5763fc010001526679","5f5a55364e9b770ed21874ff","5f60d7ae0ef802052beba70c","false","null","<div style=""align-items: center; display: flex; color: darkorange; font-size: 90px""><b>ø</b></div>","null","","","","forget_cue","","","","","","","","","","","","","","","",""
"html-keyboard-response","56","156067","0.0-3.0-3.0-0.3","xy62lkd6js3teu3","practice_cue","5bfbff5763fc010001526679","5f5a55364e9b770ed21874ff","5f60d7ae0ef802052beba70c","false","null","<span style=""color: black; font-size: 48px"">N + M</span>","null","","","","resp_prompt","","","","","","","","","","","","","","","",""
"categorize-image","57","157278","0.0-3.0-3.0-1.3","xy62lkd6js3teu3","practice_cue","5bfbff5763fc010001526679","5f5a55364e9b770ed21874ff","5f60d7ae0ef802052beba70c","true","1208.664999998291","./Stimuli/ImagesPractice/LN72.jpg","83","","","","test","true","N + M","83","","LN","LN72.jpg","remember","old","20","2","practice_forget","left","","","",""
"html-keyboard-response","58","159279","0.0-3.0-3.0-3.3","xy62lkd6js3teu3","practice_cue","5bfbff5763fc010001526679","5f5a55364e9b770ed21874ff","5f60d7ae0ef802052beba70c","false","null","<div style=""align-items: center; display: flex; color: dodgerblue; font-size: 90px""><b>o</b></div>","null","","","","forget_cue","","","","","","","","","","","","","","","",""
"html-keyboard-response","59","159980","0.0-3.0-3.0-0.4","xy62lkd6js3teu3","practice_cue","5bfbff5763fc010001526679","5f5a55364e9b770ed21874ff","5f60d7ae0ef802052beba70c","false","null","<span style=""color: black; font-size: 48px"">M + N</span>","null","","","","resp_prompt","","","","","","","","","","","","","","","",""
"categorize-image","60","160841","0.0-3.0-3.0-1.4","xy62lkd6js3teu3","practice_cue","5bfbff5763fc010001526679","5f5a55364e9b770ed21874ff","5f60d7ae0ef802052beba70c","true","857.5100000016391","./Stimuli/ImagesPractice/LM239.jpg","76","","","","test","false","M + N","83","","LM","LM239.jpg","remember","old","21","2","practice_forget","right","","","",""
"html-keyboard-response","61","161342","0.0-3.0-3.0-2.4-0.4","xy62lkd6js3teu3","practice_cue","5bfbff5763fc010001526679","5f5a55364e9b770ed21874ff","5f60d7ae0ef802052beba70c","false","null","<span style=""color: red; font-size: 48px"">Error!</span>","null","","","","feedback","","","","","","","","","","","","","","","",""
"html-keyboard-response","62","163343","0.0-3.0-3.0-3.4","xy62lkd6js3teu3","practice_cue","5bfbff5763fc010001526679","5f5a55364e9b770ed21874ff","5f60d7ae0ef802052beba70c","false","null","<div style=""align-items: center; display: flex; color: dodgerblue; font-size: 90px""><b>o</b></div>","null","","","","forget_cue","","","","","","","","","","","","","","","",""
"html-keyboard-response","63","164045","0.0-3.0-3.0-0.5","xy62lkd6js3teu3","practice_cue","5bfbff5763fc010001526679","5f5a55364e9b770ed21874ff","5f60d7ae0ef802052beba70c","false","null","<span style=""color: black; font-size: 48px"">M + N</span>","null","","","","resp_prompt","","","","","","","","","","","","","","","",""
"categorize-image","64","164757","0.0-3.0-3.0-1.5","xy62lkd6js3teu3","practice_cue","5bfbff5763fc010001526679","5f5a55364e9b770ed21874ff","5f60d7ae0ef802052beba70c","true","709.0800000005402","./Stimuli/ImagesPractice/LN4.jpg","76","","","","test","true","M + N","76","","LN","LN4.jpg","forget","old","22","2","practice_forget","right","","","",""
"html-keyboard-response","65","166758","0.0-3.0-3.0-3.5","xy62lkd6js3teu3","practice_cue","5bfbff5763fc010001526679","5f5a55364e9b770ed21874ff","5f60d7ae0ef802052beba70c","false","null","<div style=""align-items: center; display: flex; color: darkorange; font-size: 90px""><b>ø</b></div>","null","","","","forget_cue","","","","","","","","","","","","","","","",""
"html-keyboard-response","66","167458","0.0-3.0-3.0-0.6","xy62lkd6js3teu3","practice_cue","5bfbff5763fc010001526679","5f5a55364e9b770ed21874ff","5f60d7ae0ef802052beba70c","false","null","<span style=""color: black; font-size: 48px"">M + N</span>","null","","","","resp_prompt","","","","","","","","","","","","","","","",""
"categorize-image","67","168027","0.0-3.0-3.0-1.6","xy62lkd6js3teu3","practice_cue","5bfbff5763fc010001526679","5f5a55364e9b770ed21874ff","5f60d7ae0ef802052beba70c","true","565.7449999998789","./Stimuli/ImagesPractice/LN109.jpg","76","","","","test","true","M + N","76","","LN","LN109.jpg","remember","old","23","2","practice_forget","right","","","",""
"html-keyboard-response","68","170028","0.0-3.0-3.0-3.6","xy62lkd6js3teu3","practice_cue","5bfbff5763fc010001526679","5f5a55364e9b770ed21874ff","5f60d7ae0ef802052beba70c","false","null","<div style=""align-items: center; display: flex; color: dodgerblue; font-size: 90px""><b>o</b></div>","null","","","","forget_cue","","","","","","","","","","","","","","","",""
"html-keyboard-response","69","170729","0.0-3.0-3.0-0.7","xy62lkd6js3teu3","practice_cue","5bfbff5763fc010001526679","5f5a55364e9b770ed21874ff","5f60d7ae0ef802052beba70c","false","null","<span style=""color: black; font-size: 48px"">N + M</span>","null","","","","resp_prompt","","","","","","","","","","","","","","","",""
"categorize-image","70","171926","0.0-3.0-3.0-1.7","xy62lkd6js3teu3","practice_cue","5bfbff5763fc010001526679","5f5a55364e9b770ed21874ff","5f60d7ae0ef802052beba70c","true","1194.1999999980908","./Stimuli/ImagesPractice/SN220.jpg","76","","","","test","false","N + M","83","","SN","SN220.jpg","remember","old","24","2","practice_forget","right","","","",""
"html-keyboard-response","71","172427","0.0-3.0-3.0-2.7-0.7","xy62lkd6js3teu3","practice_cue","5bfbff5763fc010001526679","5f5a55364e9b770ed21874ff","5f60d7ae0ef802052beba70c","false","null","<span style=""color: red; font-size: 48px"">Error!</span>","null","","","","feedback","","","","","","","","","","","","","","","",""
"html-keyboard-response","72","174428","0.0-3.0-3.0-3.7","xy62lkd6js3teu3","practice_cue","5bfbff5763fc010001526679","5f5a55364e9b770ed21874ff","5f60d7ae0ef802052beba70c","false","null","<div style=""align-items: center; display: flex; color: dodgerblue; font-size: 90px""><b>o</b></div>","null","","","","forget_cue","","","","","","","","","","","","","","","",""
"html-keyboard-response","73","175130","0.0-3.0-3.0-0.8","xy62lkd6js3teu3","practice_cue","5bfbff5763fc010001526679","5f5a55364e9b770ed21874ff","5f60d7ae0ef802052beba70c","false","null","<span style=""color: black; font-size: 48px"">M + N</span>","null","","","","resp_prompt","","","","","","","","","","","","","","","",""
"categorize-image","74","175888","0.0-3.0-3.0-1.8","xy62lkd6js3teu3","practice_cue","5bfbff5763fc010001526679","5f5a55364e9b770ed21874ff","5f60d7ae0ef802052beba70c","true","755.1649999950314","./Stimuli/ImagesPractice/LM224.jpg","83","","","","test","true","M + N","83","","LM","LM224.jpg","forget","old","25","2","practice_forget","left","","","",""
"html-keyboard-response","75","177889","0.0-3.0-3.0-3.8","xy62lkd6js3teu3","practice_cue","5bfbff5763fc010001526679","5f5a55364e9b770ed21874ff","5f60d7ae0ef802052beba70c","false","null","<div style=""align-items: center; display: flex; color: darkorange; font-size: 90px""><b>ø</b></div>","null","","","","forget_cue","","","","","","","","","","","","","","","",""
"html-keyboard-response","76","178590","0.0-3.0-3.0-0.9","xy62lkd6js3teu3","practice_cue","5bfbff5763fc010001526679","5f5a55364e9b770ed21874ff","5f60d7ae0ef802052beba70c","false","null","<span style=""color: black; font-size: 48px"">M + N</span>","null","","","","resp_prompt","","","","","","","","","","","","","","","",""
"categorize-image","77","179637","0.0-3.0-3.0-1.9","xy62lkd6js3teu3","practice_cue","5bfbff5763fc010001526679","5f5a55364e9b770ed21874ff","5f60d7ae0ef802052beba70c","true","1043.9250000054017","./Stimuli/ImagesPractice/LM143.jpg","83","","","","test","true","M + N","83","","LM","LM143.jpg","remember","old","26","2","practice_forget","left","","","",""
"html-keyboard-response","78","181639","0.0-3.0-3.0-3.9","xy62lkd6js3teu3","practice_cue","5bfbff5763fc010001526679","5f5a55364e9b770ed21874ff","5f60d7ae0ef802052beba70c","false","null","<div style=""align-items: center; display: flex; color: dodgerblue; font-size: 90px""><b>o</b></div>","null","","","","forget_cue","","","","","","","","","","","","","","","",""
"html-keyboard-response","79","182340","0.0-3.0-3.0-0.10","xy62lkd6js3teu3","practice_cue","5bfbff5763fc010001526679","5f5a55364e9b770ed21874ff","5f60d7ae0ef802052beba70c","false","null","<span style=""color: black; font-size: 48px"">N + M</span>","null","","","","resp_prompt","","","","","","","","","","","","","","","",""
"categorize-image","80","183564","0.0-3.0-3.0-1.10","xy62lkd6js3teu3","practice_cue","5bfbff5763fc010001526679","5f5a55364e9b770ed21874ff","5f60d7ae0ef802052beba70c","true","1221.1349999997765","./Stimuli/ImagesPractice/SM37.jpg","83","","","","test","false","N + M","76","","SM","SM37.jpg","remember","old","27","2","practice_forget","left","","","",""
"html-keyboard-response","81","184066","0.0-3.0-3.0-2.10-0.10","xy62lkd6js3teu3","practice_cue","5bfbff5763fc010001526679","5f5a55364e9b770ed21874ff","5f60d7ae0ef802052beba70c","false","null","<span style=""color: red; font-size: 48px"">Error!</span>","null","","","","feedback","","","","","","","","","","","","","","","",""
"html-keyboard-response","82","186066","0.0-3.0-3.0-3.10","xy62lkd6js3teu3","practice_cue","5bfbff5763fc010001526679","5f5a55364e9b770ed21874ff","5f60d7ae0ef802052beba70c","false","null","<div style=""align-items: center; display: flex; color: dodgerblue; font-size: 90px""><b>o</b></div>","null","","","","forget_cue","","","","","","","","","","","","","","","",""
"html-keyboard-response","83","186768","0.0-3.0-3.0-0.11","xy62lkd6js3teu3","practice_cue","5bfbff5763fc010001526679","5f5a55364e9b770ed21874ff","5f60d7ae0ef802052beba70c","false","null","<span style=""color: black; font-size: 48px"">N + M</span>","null","","","","resp_prompt","","","","","","","","","","","","","","","",""
"categorize-image","84","187532","0.0-3.0-3.0-1.11","xy62lkd6js3teu3","practice_cue","5bfbff5763fc010001526679","5f5a55364e9b770ed21874ff","5f60d7ae0ef802052beba70c","true","761.2799999915296","./Stimuli/ImagesPractice/SN75.jpg","83","","","","test","true","N + M","83","","SN","SN75.jpg","forget","old","28","2","practice_forget","left","","","",""
"html-keyboard-response","85","189533","0.0-3.0-3.0-3.11","xy62lkd6js3teu3","practice_cue","5bfbff5763fc010001526679","5f5a55364e9b770ed21874ff","5f60d7ae0ef802052beba70c","false","null","<div style=""align-items: center; display: flex; color: darkorange; font-size: 90px""><b>ø</b></div>","null","","","","forget_cue","","","","","","","","","","","","","","","",""
"html-keyboard-response","86","190234","0.0-3.0-3.0-0.12","xy62lkd6js3teu3","practice_cue","5bfbff5763fc010001526679","5f5a55364e9b770ed21874ff","5f60d7ae0ef802052beba70c","false","null","<span style=""color: black; font-size: 48px"">M + N</span>","null","","","","resp_prompt","","","","","","","","","","","","","","","",""
"categorize-image","87","191750","0.0-3.0-3.0-1.12","xy62lkd6js3teu3","practice_cue","5bfbff5763fc010001526679","5f5a55364e9b770ed21874ff","5f60d7ae0ef802052beba70c","true","1512.2750000009546","./Stimuli/ImagesPractice/SM61.jpg","76","","","","test","false","M + N","83","","SM","SM61.jpg","forget","old","29","2","practice_forget","right","","","",""
"html-keyboard-response","88","192251","0.0-3.0-3.0-2.12-0.12","xy62lkd6js3teu3","practice_cue","5bfbff5763fc010001526679","5f5a55364e9b770ed21874ff","5f60d7ae0ef802052beba70c","false","null","<span style=""color: red; font-size: 48px"">Error!</span>","null","","","","feedback","","","","","","","","","","","","","","","",""
"html-keyboard-response","89","194252","0.0-3.0-3.0-3.12","xy62lkd6js3teu3","practice_cue","5bfbff5763fc010001526679","5f5a55364e9b770ed21874ff","5f60d7ae0ef802052beba70c","false","null","<div style=""align-items: center; display: flex; color: darkorange; font-size: 90px""><b>ø</b></div>","null","","","","forget_cue","","","","","","","","","","","","","","","",""
"html-keyboard-response","90","194952","0.0-3.0-3.0-0.13","xy62lkd6js3teu3","practice_cue","5bfbff5763fc010001526679","5f5a55364e9b770ed21874ff","5f60d7ae0ef802052beba70c","false","null","<span style=""color: black; font-size: 48px"">N + M</span>","null","","","","resp_prompt","","","","","","","","","","","","","","","",""
"categorize-image","91","195894","0.0-3.0-3.0-1.13","xy62lkd6js3teu3","practice_cue","5bfbff5763fc010001526679","5f5a55364e9b770ed21874ff","5f60d7ae0ef802052beba70c","true","939.3349999882048","./Stimuli/ImagesPractice/LN17.jpg","83","","","","test","true","N + M","83","","LN","LN17.jpg","forget","old","30","2","practice_forget","left","","","",""
"html-keyboard-response","92","197895","0.0-3.0-3.0-3.13","xy62lkd6js3teu3","practice_cue","5bfbff5763fc010001526679","5f5a55364e9b770ed21874ff","5f60d7ae0ef802052beba70c","false","null","<div style=""align-items: center; display: flex; color: darkorange; font-size: 90px""><b>ø</b></div>","null","","","","forget_cue","","","","","","","","","","","","","","","",""
"html-keyboard-response","93","198596","0.0-3.0-3.0-0.14","xy62lkd6js3teu3","practice_cue","5bfbff5763fc010001526679","5f5a55364e9b770ed21874ff","5f60d7ae0ef802052beba70c","false","null","<span style=""color: black; font-size: 48px"">N + M</span>","null","","","","resp_prompt","","","","","","","","","","","","","","","",""
"categorize-image","94","199494","0.0-3.0-3.0-1.14","xy62lkd6js3teu3","practice_cue","5bfbff5763fc010001526679","5f5a55364e9b770ed21874ff","5f60d7ae0ef802052beba70c","true","895.7299999892712","./Stimuli/ImagesPractice/LN2.jpg","83","","","","test","true","N + M","83","","LN","LN2.jpg","remember","old","31","2","practice_forget","left","","","",""
"html-keyboard-response","95","201495","0.0-3.0-3.0-3.14","xy62lkd6js3teu3","practice_cue","5bfbff5763fc010001526679","5f5a55364e9b770ed21874ff","5f60d7ae0ef802052beba70c","false","null","<div style=""align-items: center; display: flex; color: dodgerblue; font-size: 90px""><b>o</b></div>","null","","","","forget_cue","","","","","","","","","","","","","","","",""
"html-keyboard-response","96","202196","0.0-3.0-3.0-0.15","xy62lkd6js3teu3","practice_cue","5bfbff5763fc010001526679","5f5a55364e9b770ed21874ff","5f60d7ae0ef802052beba70c","false","null","<span style=""color: black; font-size: 48px"">M + N</span>","null","","","","resp_prompt","","","","","","","","","","","","","","","",""
"categorize-image","97","203218","0.0-3.0-3.0-1.15","xy62lkd6js3teu3","practice_cue","5bfbff5763fc010001526679","5f5a55364e9b770ed21874ff","5f60d7ae0ef802052beba70c","true","1018.0800000089221","./Stimuli/ImagesPractice/SN205.jpg","76","","","","test","true","M + N","76","","SN","SN205.jpg","forget","old","32","2","practice_forget","right","","","",""
"html-keyboard-response","98","205218","0.0-3.0-3.0-3.15","xy62lkd6js3teu3","practice_cue","5bfbff5763fc010001526679","5f5a55364e9b770ed21874ff","5f60d7ae0ef802052beba70c","false","null","<div style=""align-items: center; display: flex; color: darkorange; font-size: 90px""><b>ø</b></div>","null","","","","forget_cue","","","","","","","","","","","","","","","",""
"html-keyboard-response","99","209594","0.0-3.0-4.0","xy62lkd6js3teu3","break","5bfbff5763fc010001526679","5f5a55364e9b770ed21874ff","5f60d7ae0ef802052beba70c","false","4375.564999994822","<p style='font-size: 32px;'>Break</><br><br><br><br><br><p style='font-size: 24px;'>In the last block, you committed 4 errors and did not respond in time on 0 trials.
</p><p style='font-size: 24px;'>Try to respond as fast and accurately as possible in the next block as well! </p><p style='font-size: 24px;'>Press SPACE to continue.</p>","32","","","","","","","","","","","","","","","","","","","",""
"html-keyboard-response","100","211006","0.0-3.0-5.0","xy62lkd6js3teu3","instructions","5bfbff5763fc010001526679","5f5a55364e9b770ed21874ff","5f60d7ae0ef802052beba70c","false","1411.0700000019278","<div align=left> Now, to practice, we kindly ask you to remember as many of the to-be-remembered pictures<br>of the previous learning phase as possible.<br><br>The pictures you were instructed to remember were the pictures followed by a <span style='color: dodgerblue; font-size: 28px'>O</span>.<br><br>In this memory test phase, you will also see some new pictures.<br>It is your task to remember whether you were presented with this specific picture in this study so far or not.<br>If you recognize an object (you have already seen it in this study), it is an OLD object. <br>If you do not recognize an object (you have NOT seen it in this study), it is a NEW object. <br><strong> Attention</strong>: As already mentioned, <span style='color: darkorange; font-size:28px'>Ø</span>-pictures will <strong>never</strong> appear in this memory test (neither as new objects). <br><br>Press SPACE to continue. </div>","32","","","","","","","","","","","","","","","","","","","",""
"html-keyboard-response","101","237776","0.0-3.0-6.0","xy62lkd6js3teu3","instructions","5bfbff5763fc010001526679","5f5a55364e9b770ed21874ff","5f60d7ae0ef802052beba70c","false","26768.859999996494","<div align=left> M and N no longer will appear on the left/right of the fixation cross. <br>Instead there will be a note at the bottom of the left or right side  <br>indicating which key you should press for an old or new object:  <br> <br>Press the <strong>right</strong> key to classify an object as <strong>old</strong> and press the <strong>left</strong>, to classify an object as <strong>new</strong>.<br>Please classify the objects as new/old by again placing your index finger on the 'S' and 'L' keys <br>and press them accordingly.<br><br><strong>Old:</strong> This object has been presented before. <br><strong>New:</strong> This object has <strong>not</strong> been presented.<br><br>Now please put your right and left index fingers on the 'S' and 'L' keys of your keyboard. <br>Please respond as fast and as accurately as possible!<br><br>Press SPACE to continue. </div>","32","","","","","","","","","","","","","","","","","","","",""
"categorize-image","102","239763","0.0-3.0-7.0-0.0","xy62lkd6js3teu3","practice_recog","5bfbff5763fc010001526679","5f5a55364e9b770ed21874ff","5f60d7ae0ef802052beba70c","true","1485.2600000012899","./Stimuli/ImagesPractice/SN221.jpg","83","","","","test","true","","83","","SN","SN221.jpg","","new","33","3","practice_recog","left","","","",""
"categorize-image","103","241056","0.0-3.0-7.0-0.1","xy62lkd6js3teu3","practice_recog","5bfbff5763fc010001526679","5f5a55364e9b770ed21874ff","5f60d7ae0ef802052beba70c","true","792.3500000033528","./Stimuli/ImagesPractice/LM239.jpg","76","","","","test","true","","76","","LM","LM239.jpg","","old","34","3","practice_recog","right","","","",""
"categorize-image","104","242269","0.0-3.0-7.0-0.2","xy62lkd6js3teu3","practice_recog","5bfbff5763fc010001526679","5f5a55364e9b770ed21874ff","5f60d7ae0ef802052beba70c","true","710.9550000022864","./Stimuli/ImagesPractice/LM55.jpg","76","","","","test","false","","83","","LM","LM55.jpg","","new","35","3","practice_recog","right","","","",""
"categorize-image","105","243728","0.0-3.0-7.0-0.3","xy62lkd6js3teu3","practice_recog","5bfbff5763fc010001526679","5f5a55364e9b770ed21874ff","5f60d7ae0ef802052beba70c","true","956.5749999892432","./Stimuli/ImagesPractice/LM230.jpg","83","","","","test","true","","83","","LM","LM230.jpg","","new","36","3","practice_recog","left","","","",""
"categorize-image","106","244786","0.0-3.0-7.0-0.4","xy62lkd6js3teu3","practice_recog","5bfbff5763fc010001526679","5f5a55364e9b770ed21874ff","5f60d7ae0ef802052beba70c","true","557.1249999920838","./Stimuli/ImagesPractice/SN220.jpg","76","","","","test","true","","76","","SN","SN220.jpg","","old","37","3","practice_recog","right","","","",""
"categorize-image","107","246110","0.0-3.0-7.0-0.5","xy62lkd6js3teu3","practice_recog","5bfbff5763fc010001526679","5f5a55364e9b770ed21874ff","5f60d7ae0ef802052beba70c","true","823.3250000048429","./Stimuli/ImagesPractice/SM98.jpg","83","","","","test","true","","83","","SM","SM98.jpg","","new","38","3","practice_recog","left","","","",""
"categorize-image","108","247335","0.0-3.0-7.0-0.6","xy62lkd6js3teu3","practice_recog","5bfbff5763fc010001526679","5f5a55364e9b770ed21874ff","5f60d7ae0ef802052beba70c","true","723.7350000068545","./Stimuli/ImagesPractice/LM147.jpg","83","","","","test","true","","83","","LM","LM147.jpg","","new","39","3","practice_recog","left","","","",""
"categorize-image","109","248397","0.0-3.0-7.0-0.7","xy62lkd6js3teu3","practice_recog","5bfbff5763fc010001526679","5f5a55364e9b770ed21874ff","5f60d7ae0ef802052beba70c","true","559.1649999987567","./Stimuli/ImagesPractice/SN76.jpg","83","","","","test","true","","83","","SN","SN76.jpg","","new","40","3","practice_recog","left","","","",""
"categorize-image","110","249571","0.0-3.0-7.0-0.8","xy62lkd6js3teu3","practice_recog","5bfbff5763fc010001526679","5f5a55364e9b770ed21874ff","5f60d7ae0ef802052beba70c","true","673.4699999942677","./Stimuli/ImagesPractice/SM62.jpg","76","","","","test","true","","76","","SM","SM62.jpg","","old","41","3","practice_recog","right","","","",""
"categorize-image","111","250787","0.0-3.0-7.0-0.9","xy62lkd6js3teu3","practice_recog","5bfbff5763fc010001526679","5f5a55364e9b770ed21874ff","5f60d7ae0ef802052beba70c","true","714.7150000091642","./Stimuli/ImagesPractice/LN2.jpg","76","","","","test","true","","76","","LN","LN2.jpg","","old","42","3","practice_recog","right","","","",""
"categorize-image","112","252012","0.0-3.0-7.0-0.10","xy62lkd6js3teu3","practice_recog","5bfbff5763fc010001526679","5f5a55364e9b770ed21874ff","5f60d7ae0ef802052beba70c","true","724.4150000042282","./Stimuli/ImagesPractice/LN15.jpg","83","","","","test","true","","83","","LN","LN15.jpg","","new","43","3","practice_recog","left","","","",""
"categorize-image","113","253431","0.0-3.0-7.0-0.11","xy62lkd6js3teu3","practice_recog","5bfbff5763fc010001526679","5f5a55364e9b770ed21874ff","5f60d7ae0ef802052beba70c","true","916.7900000029476","./Stimuli/ImagesPractice/LN72.jpg","76","","","","test","true","","76","","LN","LN72.jpg","","old","44","3","practice_recog","right","","","",""
"categorize-image","114","254639","0.0-3.0-7.0-0.12","xy62lkd6js3teu3","practice_recog","5bfbff5763fc010001526679","5f5a55364e9b770ed21874ff","5f60d7ae0ef802052beba70c","true","706.3149999885354","./Stimuli/ImagesPractice/LM143.jpg","76","","","","test","true","","76","","LM","LM143.jpg","","old","45","3","practice_recog","right","","","",""
"categorize-image","115","255679","0.0-3.0-7.0-0.13","xy62lkd6js3teu3","practice_recog","5bfbff5763fc010001526679","5f5a55364e9b770ed21874ff","5f60d7ae0ef802052beba70c","true","539.1649999946821","./Stimuli/ImagesPractice/LN109.jpg","76","","","","test","true","","76","","LN","LN109.jpg","","old","46","3","practice_recog","right","","","",""
"categorize-image","116","256745","0.0-3.0-7.0-0.14","xy62lkd6js3teu3","practice_recog","5bfbff5763fc010001526679","5f5a55364e9b770ed21874ff","5f60d7ae0ef802052beba70c","true","564.5099999965169","./Stimuli/ImagesPractice/SM37.jpg","76","","","","test","true","","76","","SM","SM37.jpg","","old","47","3","practice_recog","right","","","",""
"categorize-image","117","257907","0.0-3.0-7.0-0.15","xy62lkd6js3teu3","practice_recog","5bfbff5763fc010001526679","5f5a55364e9b770ed21874ff","5f60d7ae0ef802052beba70c","true","659.8400000075344","./Stimuli/ImagesPractice/SM97.jpg","83","","","","test","true","","83","","SM","SM97.jpg","","new","48","3","practice_recog","left","","","",""
"html-keyboard-response","118","261004","0.0-3.0-8.0","xy62lkd6js3teu3","instructions","5bfbff5763fc010001526679","5f5a55364e9b770ed21874ff","5f60d7ae0ef802052beba70c","false","3096.739999993588","<div align=left> Great!<br><br>Are you ready to continue?<br>If you want to reread the instructions and redo the practice trials, please <br>press „Z“.<br><br>You can proceed when you are ready.<br><br>After the presentation of each object, you will receive an instruction whether to <br>remember or to forget the object.<br>We will test your memory of the following pictures only at the very end of <br>the experiment after all learning blocks are completed. <br><br>Press SPACE to CONTINUE when you are ready. </div>","32","","","","","","","","","","","","","","","","","","","",""
"html-keyboard-response","119","266522","0.0-4.0-0.0","xy62lkd6js3teu3","instructions","5bfbff5763fc010001526679","5f5a55364e9b770ed21874ff","5f60d7ae0ef802052beba70c","false","5517.570000010892","<div align=left> The actual experiment is about to start.<br>The practice trials are over!<br><br>Please always respond both fast and accurately!<br><br>Remember: <br> <br><li> Please place your index fingers on the <strong>'S'</strong> and <strong>'L'</strong> keys <br>to respond as fast and accurately as possible.</li><li> Every picture can be classified as either mechanical or non-mechanical.</li><li> If you do not respond in time or commit an error, you will receive a corresponding feedback.<br> Please try to respond as <strong> fast </strong> and as <strong> accurately as possible </strong>.</li><li> Remember the <span style='color: dodgerblue; font-size: 28px'>O</span> pictures. <br></li><li> Please minimize distractions and stay focused. </li><br><br>Press SPACE to START.</div>","32","","","","","","","","","","","","","","","","","","","",""
"html-keyboard-response","120","267223","0.0-4.0-1.0-0.0","xy62lkd6js3teu3","prime","5bfbff5763fc010001526679","5f5a55364e9b770ed21874ff","5f60d7ae0ef802052beba70c","false","null","<span style=""color: black; font-size: 48px"">M + N</span>","null","","","","resp_prompt","","","","","","","","","","","","","","","",""
"categorize-image","121","267979","0.0-4.0-1.0-1.0","xy62lkd6js3teu3","prime","5bfbff5763fc010001526679","5f5a55364e9b770ed21874ff","5f60d7ae0ef802052beba70c","true","753.0299999925774","./Stimuli/SelectedImages/SM/SM213.bmp","83","","","","test","true","M + N","83","switch","SM","SM213.bmp","forget","","49","3","prime1","left","","","",""
"html-keyboard-response","122","269980","0.0-4.0-1.0-3.0","xy62lkd6js3teu3","prime","5bfbff5763fc010001526679","5f5a55364e9b770ed21874ff","5f60d7ae0ef802052beba70c","false","null","<div style=""align-items: center; display: flex; color: darkorange; font-size: 90px""><b>ø</b></div>","null","","","","forget_cue","","","","","","","","","","","","","","","",""
"html-keyboard-response","123","270681","0.0-4.0-1.0-0.1","xy62lkd6js3teu3","prime","5bfbff5763fc010001526679","5f5a55364e9b770ed21874ff","5f60d7ae0ef802052beba70c","false","null","<span style=""color: black; font-size: 48px"">M + N</span>","null","","","","resp_prompt","","","","","","","","","","","","","","","",""
"categorize-image","124","271453","0.0-4.0-1.0-1.1","xy62lkd6js3teu3","prime","5bfbff5763fc010001526679","5f5a55364e9b770ed21874ff","5f60d7ae0ef802052beba70c","true","768.3150000084424","./Stimuli/SelectedImages/SM/SM76.bmp","83","","","","test","true","M + N","83","repetition","SM","SM76.bmp","remember","","50","3","prime1","left","","","",""
"html-keyboard-response","125","273454","0.0-4.0-1.0-3.1","xy62lkd6js3teu3","prime","5bfbff5763fc010001526679","5f5a55364e9b770ed21874ff","5f60d7ae0ef802052beba70c","false","null","<div style=""align-items: center; display: flex; color: dodgerblue; font-size: 90px""><b>o</b></div>","null","","","","forget_cue","","","","","","","","","","","","","","","",""
"html-keyboard-response","126","274155","0.0-4.0-1.0-0.2","xy62lkd6js3teu3","prime","5bfbff5763fc010001526679","5f5a55364e9b770ed21874ff","5f60d7ae0ef802052beba70c","false","null","<span style=""color: black; font-size: 48px"">M + N</span>","null","","","","resp_prompt","","","","","","","","","","","","","","","",""
"categorize-image","127","274933","0.0-4.0-1.0-1.2","xy62lkd6js3teu3","prime","5bfbff5763fc010001526679","5f5a55364e9b770ed21874ff","5f60d7ae0ef802052beba70c","true","774.2200000066077","./Stimuli/SelectedImages/LN/LN9.bmp","76","","","","test","true","M + N","76","switch","LN","LN9.bmp","remember","","51","3","prime1","right","","","",""
"html-keyboard-response","128","276933","0.0-4.0-1.0-3.2","xy62lkd6js3teu3","prime","5bfbff5763fc010001526679","5f5a55364e9b770ed21874ff","5f60d7ae0ef802052beba70c","false","null","<div style=""align-items: center; display: flex; color: dodgerblue; font-size: 90px""><b>o</b></div>","null","","","","forget_cue","","","","","","","","","","","","","","","",""
"html-keyboard-response","129","277634","0.0-4.0-1.0-0.3","xy62lkd6js3teu3","prime","5bfbff5763fc010001526679","5f5a55364e9b770ed21874ff","5f60d7ae0ef802052beba70c","false","null","<span style=""color: black; font-size: 48px"">M + N</span>","null","","","","resp_prompt","","","","","","","","","","","","","","","",""
"categorize-image","130","278364","0.0-4.0-1.0-1.3","xy62lkd6js3teu3","prime","5bfbff5763fc010001526679","5f5a55364e9b770ed21874ff","5f60d7ae0ef802052beba70c","true","726.6999999992549","./Stimuli/SelectedImages/SM/SM108.bmp","83","","","","test","true","M + N","83","switch","SM","SM108.bmp","remember","","52","3","prime1","left","","","",""
"html-keyboard-response","131","280365","0.0-4.0-1.0-3.3","xy62lkd6js3teu3","prime","5bfbff5763fc010001526679","5f5a55364e9b770ed21874ff","5f60d7ae0ef802052beba70c","false","null","<div style=""align-items: center; display: flex; color: dodgerblue; font-size: 90px""><b>o</b></div>","null","","","","forget_cue","","","","","","","","","","","","","","","",""
"html-keyboard-response","132","281066","0.0-4.0-1.0-0.4","xy62lkd6js3teu3","prime","5bfbff5763fc010001526679","5f5a55364e9b770ed21874ff","5f60d7ae0ef802052beba70c","false","null","<span style=""color: black; font-size: 48px"">N + M</span>","null","","","","resp_prompt","","","","","","","","","","","","","","","",""
"categorize-image","133","282489","0.0-4.0-1.0-1.4","xy62lkd6js3teu3","prime","5bfbff5763fc010001526679","5f5a55364e9b770ed21874ff","5f60d7ae0ef802052beba70c","true","1420.7100000057835","./Stimuli/SelectedImages/LM/LM59.bmp","76","","","","test","true","N + M","76","switch","LM","LM59.bmp","forget","","53","3","prime1","right","","","",""
"html-keyboard-response","134","284491","0.0-4.0-1.0-3.4","xy62lkd6js3teu3","prime","5bfbff5763fc010001526679","5f5a55364e9b770ed21874ff","5f60d7ae0ef802052beba70c","false","null","<div style=""align-items: center; display: flex; color: darkorange; font-size: 90px""><b>ø</b></div>","null","","","","forget_cue","","","","","","","","","","","","","","","",""
"html-keyboard-response","135","285192","0.0-4.0-1.0-0.5","xy62lkd6js3teu3","prime","5bfbff5763fc010001526679","5f5a55364e9b770ed21874ff","5f60d7ae0ef802052beba70c","false","null","<span style=""color: black; font-size: 48px"">M + N</span>","null","","","","resp_prompt","","","","","","","","","","","","","","","",""
"categorize-image","136","285837","0.0-4.0-1.0-1.5","xy62lkd6js3teu3","prime","5bfbff5763fc010001526679","5f5a55364e9b770ed21874ff","5f60d7ae0ef802052beba70c","true","642.3049999866635","./Stimuli/SelectedImages/SM/SM207.bmp","83","","","","test","true","M + N","83","switch","SM","SM207.bmp","remember","","54","3","prime1","left","","","",""
"html-keyboard-response","137","287837","0.0-4.0-1.0-3.5","xy62lkd6js3teu3","prime","5bfbff5763fc010001526679","5f5a55364e9b770ed21874ff","5f60d7ae0ef802052beba70c","false","null","<div style=""align-items: center; display: flex; color: dodgerblue; font-size: 90px""><b>o</b></div>","null","","","","forget_cue","","","","","","","","","","","","","","","",""
"html-keyboard-response","138","288538","0.0-4.0-1.0-0.6","xy62lkd6js3teu3","prime","5bfbff5763fc010001526679","5f5a55364e9b770ed21874ff","5f60d7ae0ef802052beba70c","false","null","<span style=""color: black; font-size: 48px"">M + N</span>","null","","","","resp_prompt","","","","","","","","","","","","","","","",""
"categorize-image","139","289061","0.0-4.0-1.0-1.6","xy62lkd6js3teu3","prime","5bfbff5763fc010001526679","5f5a55364e9b770ed21874ff","5f60d7ae0ef802052beba70c","true","520.1300000044284","./Stimuli/SelectedImages/SN/SN240.bmp","76","","","","test","true","M + N","76","switch","SN","SN240.bmp","forget","","55","3","prime1","right","","","",""
"html-keyboard-response","140","291062","0.0-4.0-1.0-3.6","xy62lkd6js3teu3","prime","5bfbff5763fc010001526679","5f5a55364e9b770ed21874ff","5f60d7ae0ef802052beba70c","false","null","<div style=""align-items: center; display: flex; color: darkorange; font-size: 90px""><b>ø</b></div>","null","","","","forget_cue","","","","","","","","","","","","","","","",""
"html-keyboard-response","141","291764","0.0-4.0-1.0-0.7","xy62lkd6js3teu3","prime","5bfbff5763fc010001526679","5f5a55364e9b770ed21874ff","5f60d7ae0ef802052beba70c","false","null","<span style=""color: black; font-size: 48px"">N + M</span>","null","","","","resp_prompt","","","","","","","","","","","","","","","",""
"categorize-image","142","292559","0.0-4.0-1.0-1.7","xy62lkd6js3teu3","prime","5bfbff5763fc010001526679","5f5a55364e9b770ed21874ff","5f60d7ae0ef802052beba70c","true","791.880000004312","./Stimuli/SelectedImages/SM/SM106.bmp","76","","","","test","true","N + M","76","repetition","SM","SM106.bmp","remember","","56","3","prime1","right","","","",""
"html-keyboard-response","143","294559","0.0-4.0-1.0-3.7","xy62lkd6js3teu3","prime","5bfbff5763fc010001526679","5f5a55364e9b770ed21874ff","5f60d7ae0ef802052beba70c","false","null","<div style=""align-items: center; display: flex; color: dodgerblue; font-size: 90px""><b>o</b></div>","null","","","","forget_cue","","","","","","","","","","","","","","","",""
"html-keyboard-response","144","295261","0.0-4.0-1.0-0.8","xy62lkd6js3teu3","prime","5bfbff5763fc010001526679","5f5a55364e9b770ed21874ff","5f60d7ae0ef802052beba70c","false","null","<span style=""color: black; font-size: 48px"">M + N</span>","null","","","","resp_prompt","","","","","","","","","","","","","","","",""
"categorize-image","145","295869","0.0-4.0-1.0-1.8","xy62lkd6js3teu3","prime","5bfbff5763fc010001526679","5f5a55364e9b770ed21874ff","5f60d7ae0ef802052beba70c","true","604.4999999867287","./Stimuli/SelectedImages/SN/SN182.bmp","76","","","","test","true","M + N","76","repetition","SN","SN182.bmp","remember","","57","3","prime1","right","","","",""
"html-keyboard-response","146","297870","0.0-4.0-1.0-3.8","xy62lkd6js3teu3","prime","5bfbff5763fc010001526679","5f5a55364e9b770ed21874ff","5f60d7ae0ef802052beba70c","false","null","<div style=""align-items: center; display: flex; color: dodgerblue; font-size: 90px""><b>o</b></div>","null","","","","forget_cue","","","","","","","","","","","","","","","",""
"html-keyboard-response","147","298570","0.0-4.0-1.0-0.9","xy62lkd6js3teu3","prime","5bfbff5763fc010001526679","5f5a55364e9b770ed21874ff","5f60d7ae0ef802052beba70c","false","null","<span style=""color: black; font-size: 48px"">N + M</span>","null","","","","resp_prompt","","","","","","","","","","","","","","","",""
"categorize-image","148","299717","0.0-4.0-1.0-1.9","xy62lkd6js3teu3","prime","5bfbff5763fc010001526679","5f5a55364e9b770ed21874ff","5f60d7ae0ef802052beba70c","true","1143.7000000005355","./Stimuli/SelectedImages/SM/SM24.bmp","76","","","","test","true","N + M","76","switch","SM","SM24.bmp","forget","","58","3","prime1","right","","","",""
"html-keyboard-response","149","301718","0.0-4.0-1.0-3.9","xy62lkd6js3teu3","prime","5bfbff5763fc010001526679","5f5a55364e9b770ed21874ff","5f60d7ae0ef802052beba70c","false","null","<div style=""align-items: center; display: flex; color: darkorange; font-size: 90px""><b>ø</b></div>","null","","","","forget_cue","","","","","","","","","","","","","","","",""
"html-keyboard-response","150","302419","0.0-4.0-1.0-0.10","xy62lkd6js3teu3","prime","5bfbff5763fc010001526679","5f5a55364e9b770ed21874ff","5f60d7ae0ef802052beba70c","false","null","<span style=""color: black; font-size: 48px"">M + N</span>","null","","","","resp_prompt","","","","","","","","","","","","","","","",""
"categorize-image","151","303541","0.0-4.0-1.0-1.10","xy62lkd6js3teu3","prime","5bfbff5763fc010001526679","5f5a55364e9b770ed21874ff","5f60d7ae0ef802052beba70c","true","1118.9100000046892","./Stimuli/SelectedImages/LN/LN166.bmp","76","","","","test","true","M + N","76","repetition","LN","LN166.bmp","forget","","59","3","prime1","right","","","",""
"html-keyboard-response","152","305541","0.0-4.0-1.0-3.10","xy62lkd6js3teu3","prime","5bfbff5763fc010001526679","5f5a55364e9b770ed21874ff","5f60d7ae0ef802052beba70c","false","null","<div style=""align-items: center; display: flex; color: darkorange; font-size: 90px""><b>ø</b></div>","null","","","","forget_cue","","","","","","","","","","","","","","","",""
"html-keyboard-response","153","306243","0.0-4.0-1.0-0.11","xy62lkd6js3teu3","prime","5bfbff5763fc010001526679","5f5a55364e9b770ed21874ff","5f60d7ae0ef802052beba70c","false","null","<span style=""color: black; font-size: 48px"">M + N</span>","null","","","","resp_prompt","","","","","","","","","","","","","","","",""
"categorize-image","154","306938","0.0-4.0-1.0-1.11","xy62lkd6js3teu3","prime","5bfbff5763fc010001526679","5f5a55364e9b770ed21874ff","5f60d7ae0ef802052beba70c","true","691.7149999935646","./Stimuli/SelectedImages/LN/LN28.bmp","76","","","","test","true","M + N","76","switch","LN","LN28.bmp","forget","","60","3","prime1","right","","","",""
"html-keyboard-response","155","308938","0.0-4.0-1.0-3.11","xy62lkd6js3teu3","prime","5bfbff5763fc010001526679","5f5a55364e9b770ed21874ff","5f60d7ae0ef802052beba70c","false","null","<div style=""align-items: center; display: flex; color: darkorange; font-size: 90px""><b>ø</b></div>","null","","","","forget_cue","","","","","","","","","","","","","","","",""
"html-keyboard-response","156","309639","0.0-4.0-1.0-0.12","xy62lkd6js3teu3","prime","5bfbff5763fc010001526679","5f5a55364e9b770ed21874ff","5f60d7ae0ef802052beba70c","false","null","<span style=""color: black; font-size: 48px"">M + N</span>","null","","","","resp_prompt","","","","","","","","","","","","","","","",""
"categorize-image","157","310708","0.0-4.0-1.0-1.12","xy62lkd6js3teu3","prime","5bfbff5763fc010001526679","5f5a55364e9b770ed21874ff","5f60d7ae0ef802052beba70c","true","1065.3000000020256","./Stimuli/SelectedImages/LM/LM129.bmp","83","","","","test","true","M + N","83","switch","LM","LM129.bmp","forget","","61","3","prime1","left","","","",""
"html-keyboard-response","158","312709","0.0-4.0-1.0-3.12","xy62lkd6js3teu3","prime","5bfbff5763fc010001526679","5f5a55364e9b770ed21874ff","5f60d7ae0ef802052beba70c","false","null","<div style=""align-items: center; display: flex; color: darkorange; font-size: 90px""><b>ø</b></div>","null","","","","forget_cue","","","","","","","","","","","","","","","",""
"html-keyboard-response","159","313409","0.0-4.0-1.0-0.13","xy62lkd6js3teu3","prime","5bfbff5763fc010001526679","5f5a55364e9b770ed21874ff","5f60d7ae0ef802052beba70c","false","null","<span style=""color: black; font-size: 48px"">N + M</span>","null","","","","resp_prompt","","","","","","","","","","","","","","","",""
"categorize-image","160","314212","0.0-4.0-1.0-1.13","xy62lkd6js3teu3","prime","5bfbff5763fc010001526679","5f5a55364e9b770ed21874ff","5f60d7ae0ef802052beba70c","true","799.2400000075577","./Stimuli/SelectedImages/SM/SM78.bmp","76","","","","test","true","N + M","76","switch","SM","SM78.bmp","remember","","62","3","prime1","right","","","",""
"html-keyboard-response","161","316212","0.0-4.0-1.0-3.13","xy62lkd6js3teu3","prime","5bfbff5763fc010001526679","5f5a55364e9b770ed21874ff","5f60d7ae0ef802052beba70c","false","null","<div style=""align-items: center; display: flex; color: dodgerblue; font-size: 90px""><b>o</b></div>","null","","","","forget_cue","","","","","","","","","","","","","","","",""
"html-keyboard-response","162","316914","0.0-4.0-1.0-0.14","xy62lkd6js3teu3","prime","5bfbff5763fc010001526679","5f5a55364e9b770ed21874ff","5f60d7ae0ef802052beba70c","false","null","<span style=""color: black; font-size: 48px"">M + N</span>","null","","","","resp_prompt","","","","","","","","","","","","","","","",""
"categorize-image","163","317774","0.0-4.0-1.0-1.14","xy62lkd6js3teu3","prime","5bfbff5763fc010001526679","5f5a55364e9b770ed21874ff","5f60d7ae0ef802052beba70c","true","857.9900000040652","./Stimuli/SelectedImages/LM/LM216.bmp","83","","","","test","true","M + N","83","repetition","LM","LM216.bmp","forget","","63","3","prime1","left","","","",""
"html-keyboard-response","164","319775","0.0-4.0-1.0-3.14","xy62lkd6js3teu3","prime","5bfbff5763fc010001526679","5f5a55364e9b770ed21874ff","5f60d7ae0ef802052beba70c","false","null","<div style=""align-items: center; display: flex; color: darkorange; font-size: 90px""><b>ø</b></div>","null","","","","forget_cue","","","","","","","","","","","","","","","",""
"html-keyboard-response","165","320476","0.0-4.0-1.0-0.15","xy62lkd6js3teu3","prime","5bfbff5763fc010001526679","5f5a55364e9b770ed21874ff","5f60d7ae0ef802052beba70c","false","null","<span style=""color: black; font-size: 48px"">N + M</span>","null","","","","resp_prompt","","","","","","","","","","","","","","","",""
"categorize-image","166","321756","0.0-4.0-1.0-1.15","xy62lkd6js3teu3","prime","5bfbff5763fc010001526679","5f5a55364e9b770ed21874ff","5f60d7ae0ef802052beba70c","true","1277.5600000022678","./Stimuli/SelectedImages/SM/SM195.bmp","76","","","","test","true","N + M","76","switch","SM","SM195.bmp","forget","","64","3","prime1","right","","","",""
"html-keyboard-response","167","323758","0.0-4.0-1.0-3.15","xy62lkd6js3teu3","prime","5bfbff5763fc010001526679","5f5a55364e9b770ed21874ff","5f60d7ae0ef802052beba70c","false","null","<div style=""align-items: center; display: flex; color: darkorange; font-size: 90px""><b>ø</b></div>","null","","","","forget_cue","","","","","","","","","","","","","","","",""
"html-keyboard-response","168","324459","0.0-4.0-1.0-0.16","xy62lkd6js3teu3","prime","5bfbff5763fc010001526679","5f5a55364e9b770ed21874ff","5f60d7ae0ef802052beba70c","false","null","<span style=""color: black; font-size: 48px"">N + M</span>","null","","","","resp_prompt","","","","","","","","","","","","","","","",""
"categorize-image","169","325319","0.0-4.0-1.0-1.16","xy62lkd6js3teu3","prime","5bfbff5763fc010001526679","5f5a55364e9b770ed21874ff","5f60d7ae0ef802052beba70c","true","857.2799999965355","./Stimuli/SelectedImages/LN/LN82.bmp","83","","","","test","true","N + M","83","switch","LN","LN82.bmp","remember","","65","3","prime1","left","","","",""
"html-keyboard-response","170","327321","0.0-4.0-1.0-3.16","xy62lkd6js3teu3","prime","5bfbff5763fc010001526679","5f5a55364e9b770ed21874ff","5f60d7ae0ef802052beba70c","false","null","<div style=""align-items: center; display: flex; color: dodgerblue; font-size: 90px""><b>o</b></div>","null","","","","forget_cue","","","","","","","","","","","","","","","",""
"html-keyboard-response","171","328022","0.0-4.0-1.0-0.17","xy62lkd6js3teu3","prime","5bfbff5763fc010001526679","5f5a55364e9b770ed21874ff","5f60d7ae0ef802052beba70c","false","null","<span style=""color: black; font-size: 48px"">N + M</span>","null","","","","resp_prompt","","","","","","","","","","","","","","","",""
"categorize-image","172","329398","0.0-4.0-1.0-1.17","xy62lkd6js3teu3","prime","5bfbff5763fc010001526679","5f5a55364e9b770ed21874ff","5f60d7ae0ef802052beba70c","true","1373.7750000000233","./Stimuli/SelectedImages/LN/LN92.bmp","83","","","","test","true","N + M","83","switch","LN","LN92.bmp","forget","","66","3","prime1","left","","","",""
"html-keyboard-response","173","331398","0.0-4.0-1.0-3.17","xy62lkd6js3teu3","prime","5bfbff5763fc010001526679","5f5a55364e9b770ed21874ff","5f60d7ae0ef802052beba70c","false","null","<div style=""align-items: center; display: flex; color: darkorange; font-size: 90px""><b>ø</b></div>","null","","","","forget_cue","","","","","","","","","","","","","","","",""
"html-keyboard-response","174","332100","0.0-4.0-1.0-0.18","xy62lkd6js3teu3","prime","5bfbff5763fc010001526679","5f5a55364e9b770ed21874ff","5f60d7ae0ef802052beba70c","false","null","<span style=""color: black; font-size: 48px"">N + M</span>","null","","","","resp_prompt","","","","","","","","","","","","","","","",""
"categorize-image","175","332901","0.0-4.0-1.0-1.18","xy62lkd6js3teu3","prime","5bfbff5763fc010001526679","5f5a55364e9b770ed21874ff","5f60d7ae0ef802052beba70c","true","798.5749999934342","./Stimuli/SelectedImages/LM/LM100.bmp","76","","","","test","true","N + M","76","repetition","LM","LM100.bmp","forget","","67","3","prime1","right","","","",""
"html-keyboard-response","176","334903","0.0-4.0-1.0-3.18","xy62lkd6js3teu3","prime","5bfbff5763fc010001526679","5f5a55364e9b770ed21874ff","5f60d7ae0ef802052beba70c","false","null","<div style=""align-items: center; display: flex; color: darkorange; font-size: 90px""><b>ø</b></div>","null","","","","forget_cue","","","","","","","","","","","","","","","",""
"html-keyboard-response","177","335604","0.0-4.0-1.0-0.19","xy62lkd6js3teu3","prime","5bfbff5763fc010001526679","5f5a55364e9b770ed21874ff","5f60d7ae0ef802052beba70c","false","null","<span style=""color: black; font-size: 48px"">M + N</span>","null","","","","resp_prompt","","","","","","","","","","","","","","","",""
"categorize-image","178","336280","0.0-4.0-1.0-1.19","xy62lkd6js3teu3","prime","5bfbff5763fc010001526679","5f5a55364e9b770ed21874ff","5f60d7ae0ef802052beba70c","true","673.1399999989662","./Stimuli/SelectedImages/SN/SN111.bmp","76","","","","test","true","M + N","76","repetition","SN","SN111.bmp","forget","","68","3","prime1","right","","","",""
"html-keyboard-response","179","338281","0.0-4.0-1.0-3.19","xy62lkd6js3teu3","prime","5bfbff5763fc010001526679","5f5a55364e9b770ed21874ff","5f60d7ae0ef802052beba70c","false","null","<div style=""align-items: center; display: flex; color: darkorange; font-size: 90px""><b>ø</b></div>","null","","","","forget_cue","","","","","","","","","","","","","","","",""
"html-keyboard-response","180","338982","0.0-4.0-1.0-0.20","xy62lkd6js3teu3","prime","5bfbff5763fc010001526679","5f5a55364e9b770ed21874ff","5f60d7ae0ef802052beba70c","false","null","<span style=""color: black; font-size: 48px"">N + M</span>","null","","","","resp_prompt","","","","","","","","","","","","","","","",""
"categorize-image","181","339952","0.0-4.0-1.0-1.20","xy62lkd6js3teu3","prime","5bfbff5763fc010001526679","5f5a55364e9b770ed21874ff","5f60d7ae0ef802052beba70c","true","967.6999999937834","./Stimuli/SelectedImages/SM/SM73.bmp","76","","","","test","true","N + M","76","repetition","SM","SM73.bmp","forget","","69","3","prime1","right","","","",""
"html-keyboard-response","182","341953","0.0-4.0-1.0-3.20","xy62lkd6js3teu3","prime","5bfbff5763fc010001526679","5f5a55364e9b770ed21874ff","5f60d7ae0ef802052beba70c","false","null","<div style=""align-items: center; display: flex; color: darkorange; font-size: 90px""><b>ø</b></div>","null","","","","forget_cue","","","","","","","","","","","","","","","",""
"html-keyboard-response","183","342655","0.0-4.0-1.0-0.21","xy62lkd6js3teu3","prime","5bfbff5763fc010001526679","5f5a55364e9b770ed21874ff","5f60d7ae0ef802052beba70c","false","null","<span style=""color: black; font-size: 48px"">M + N</span>","null","","","","resp_prompt","","","","","","","","","","","","","","","",""
"categorize-image","184","343277","0.0-4.0-1.0-1.21","xy62lkd6js3teu3","prime","5bfbff5763fc010001526679","5f5a55364e9b770ed21874ff","5f60d7ae0ef802052beba70c","true","619.635000010021","./Stimuli/SelectedImages/SN/SN49.bmp","76","","","","test","true","M + N","76","switch","SN","SN49.bmp","remember","","70","3","prime1","right","","","",""
"html-keyboard-response","185","345278","0.0-4.0-1.0-3.21","xy62lkd6js3teu3","prime","5bfbff5763fc010001526679","5f5a55364e9b770ed21874ff","5f60d7ae0ef802052beba70c","false","null","<div style=""align-items: center; display: flex; color: dodgerblue; font-size: 90px""><b>o</b></div>","null","","","","forget_cue","","","","","","","","","","","","","","","",""
"html-keyboard-response","186","345979","0.0-4.0-1.0-0.22","xy62lkd6js3teu3","prime","5bfbff5763fc010001526679","5f5a55364e9b770ed21874ff","5f60d7ae0ef802052beba70c","false","null","<span style=""color: black; font-size: 48px"">N + M</span>","null","","","","resp_prompt","","","","","","","","","","","","","","","",""
"categorize-image","187","347004","0.0-4.0-1.0-1.22","xy62lkd6js3teu3","prime","5bfbff5763fc010001526679","5f5a55364e9b770ed21874ff","5f60d7ae0ef802052beba70c","true","1022.160000007716","./Stimuli/SelectedImages/SM/SM148.bmp","83","","","","test","false","N + M","76","repetition","SM","SM148.bmp","forget","","71","3","prime1","left","","","",""
"html-keyboard-response","188","347505","0.0-4.0-1.0-2.22-0.22","xy62lkd6js3teu3","prime","5bfbff5763fc010001526679","5f5a55364e9b770ed21874ff","5f60d7ae0ef802052beba70c","false","null","<span style=""color: red; font-size: 48px"">Error!</span>","null","","","","feedback","","","","","","","","","","","","","","","",""
"html-keyboard-response","189","349506","0.0-4.0-1.0-3.22","xy62lkd6js3teu3","prime","5bfbff5763fc010001526679","5f5a55364e9b770ed21874ff","5f60d7ae0ef802052beba70c","false","null","<div style=""align-items: center; display: flex; color: darkorange; font-size: 90px""><b>ø</b></div>","null","","","","forget_cue","","","","","","","","","","","","","","","",""
"html-keyboard-response","190","350207","0.0-4.0-1.0-0.23","xy62lkd6js3teu3","prime","5bfbff5763fc010001526679","5f5a55364e9b770ed21874ff","5f60d7ae0ef802052beba70c","false","null","<span style=""color: black; font-size: 48px"">N + M</span>","null","","","","resp_prompt","","","","","","","","","","","","","","","",""
"categorize-image","191","350934","0.0-4.0-1.0-1.23","xy62lkd6js3teu3","prime","5bfbff5763fc010001526679","5f5a55364e9b770ed21874ff","5f60d7ae0ef802052beba70c","true","724.4650000066031","./Stimuli/SelectedImages/LM/LM57.bmp","76","","","","test","true","N + M","76","repetition","LM","LM57.bmp","forget","","72","3","prime1","right","","","",""
"html-keyboard-response","192","352935","0.0-4.0-1.0-3.23","xy62lkd6js3teu3","prime","5bfbff5763fc010001526679","5f5a55364e9b770ed21874ff","5f60d7ae0ef802052beba70c","false","null","<div style=""align-items: center; display: flex; color: darkorange; font-size: 90px""><b>ø</b></div>","null","","","","forget_cue","","","","","","","","","","","","","","","",""
"html-keyboard-response","193","353636","0.0-4.0-1.0-0.24","xy62lkd6js3teu3","prime","5bfbff5763fc010001526679","5f5a55364e9b770ed21874ff","5f60d7ae0ef802052beba70c","false","null","<span style=""color: black; font-size: 48px"">M + N</span>","null","","","","resp_prompt","","","","","","","","","","","","","","","",""
"categorize-image","194","354218","0.0-4.0-1.0-1.24","xy62lkd6js3teu3","prime","5bfbff5763fc010001526679","5f5a55364e9b770ed21874ff","5f60d7ae0ef802052beba70c","true","579.0549999946961","./Stimuli/SelectedImages/LM/LM179.bmp","83","","","","test","true","M + N","83","repetition","LM","LM179.bmp","remember","","73","3","prime1","left","","","",""
"html-keyboard-response","195","356219","0.0-4.0-1.0-3.24","xy62lkd6js3teu3","prime","5bfbff5763fc010001526679","5f5a55364e9b770ed21874ff","5f60d7ae0ef802052beba70c","false","null","<div style=""align-items: center; display: flex; color: dodgerblue; font-size: 90px""><b>o</b></div>","null","","","","forget_cue","","","","","","","","","","","","","","","",""
"html-keyboard-response","196","356920","0.0-4.0-1.0-0.25","xy62lkd6js3teu3","prime","5bfbff5763fc010001526679","5f5a55364e9b770ed21874ff","5f60d7ae0ef802052beba70c","false","null","<span style=""color: black; font-size: 48px"">M + N</span>","null","","","","resp_prompt","","","","","","","","","","","","","","","",""
"categorize-image","197","357854","0.0-4.0-1.0-1.25","xy62lkd6js3teu3","prime","5bfbff5763fc010001526679","5f5a55364e9b770ed21874ff","5f60d7ae0ef802052beba70c","true","931.7449999944074","./Stimuli/SelectedImages/SM/SM128.bmp","83","","","","test","true","M + N","83","switch","SM","SM128.bmp","forget","","74","3","prime1","left","","","",""
"html-keyboard-response","198","359854","0.0-4.0-1.0-3.25","xy62lkd6js3teu3","prime","5bfbff5763fc010001526679","5f5a55364e9b770ed21874ff","5f60d7ae0ef802052beba70c","false","null","<div style=""align-items: center; display: flex; color: darkorange; font-size: 90px""><b>ø</b></div>","null","","","","forget_cue","","","","","","","","","","","","","","","",""
"html-keyboard-response","199","360555","0.0-4.0-1.0-0.26","xy62lkd6js3teu3","prime","5bfbff5763fc010001526679","5f5a55364e9b770ed21874ff","5f60d7ae0ef802052beba70c","false","null","<span style=""color: black; font-size: 48px"">N + M</span>","null","","","","resp_prompt","","","","","","","","","","","","","","","",""
"categorize-image","200","361184","0.0-4.0-1.0-1.26","xy62lkd6js3teu3","prime","5bfbff5763fc010001526679","5f5a55364e9b770ed21874ff","5f60d7ae0ef802052beba70c","true","626.1700000031851","./Stimuli/SelectedImages/SN/SN128.bmp","83","","","","test","true","N + M","83","repetition","SN","SN128.bmp","remember","","75","3","prime1","left","","","",""
"html-keyboard-response","201","363186","0.0-4.0-1.0-3.26","xy62lkd6js3teu3","prime","5bfbff5763fc010001526679","5f5a55364e9b770ed21874ff","5f60d7ae0ef802052beba70c","false","null","<div style=""align-items: center; display: flex; color: dodgerblue; font-size: 90px""><b>o</b></div>","null","","","","forget_cue","","","","","","","","","","","","","","","",""
"html-keyboard-response","202","363887","0.0-4.0-1.0-0.27","xy62lkd6js3teu3","prime","5bfbff5763fc010001526679","5f5a55364e9b770ed21874ff","5f60d7ae0ef802052beba70c","false","null","<span style=""color: black; font-size: 48px"">M + N</span>","null","","","","resp_prompt","","","","","","","","","","","","","","","",""
"categorize-image","203","365339","0.0-4.0-1.0-1.27","xy62lkd6js3teu3","prime","5bfbff5763fc010001526679","5f5a55364e9b770ed21874ff","5f60d7ae0ef802052beba70c","true","1449.160000003758","./Stimuli/SelectedImages/SM/SM74.bmp","83","","","","test","true","M + N","83","repetition","SM","SM74.bmp","remember","","76","3","prime1","left","","","",""
"html-keyboard-response","204","367340","0.0-4.0-1.0-3.27","xy62lkd6js3teu3","prime","5bfbff5763fc010001526679","5f5a55364e9b770ed21874ff","5f60d7ae0ef802052beba70c","false","null","<div style=""align-items: center; display: flex; color: dodgerblue; font-size: 90px""><b>o</b></div>","null","","","","forget_cue","","","","","","","","","","","","","","","",""
"html-keyboard-response","205","368040","0.0-4.0-1.0-0.28","xy62lkd6js3teu3","prime","5bfbff5763fc010001526679","5f5a55364e9b770ed21874ff","5f60d7ae0ef802052beba70c","false","null","<span style=""color: black; font-size: 48px"">M + N</span>","null","","","","resp_prompt","","","","","","","","","","","","","","","",""
"categorize-image","206","368800","0.0-4.0-1.0-1.28","xy62lkd6js3teu3","prime","5bfbff5763fc010001526679","5f5a55364e9b770ed21874ff","5f60d7ae0ef802052beba70c","true","756.584999995539","./Stimuli/SelectedImages/SN/SN155.bmp","76","","","","test","true","M + N","76","repetition","SN","SN155.bmp","remember","","77","3","prime1","right","","","",""
"html-keyboard-response","207","370801","0.0-4.0-1.0-3.28","xy62lkd6js3teu3","prime","5bfbff5763fc010001526679","5f5a55364e9b770ed21874ff","5f60d7ae0ef802052beba70c","false","null","<div style=""align-items: center; display: flex; color: dodgerblue; font-size: 90px""><b>o</b></div>","null","","","","forget_cue","","","","","","","","","","","","","","","",""
"html-keyboard-response","208","371501","0.0-4.0-1.0-0.29","xy62lkd6js3teu3","prime","5bfbff5763fc010001526679","5f5a55364e9b770ed21874ff","5f60d7ae0ef802052beba70c","false","null","<span style=""color: black; font-size: 48px"">N + M</span>","null","","","","resp_prompt","","","","","","","","","","","","","","","",""
"categorize-image","209","372106","0.0-4.0-1.0-1.29","xy62lkd6js3teu3","prime","5bfbff5763fc010001526679","5f5a55364e9b770ed21874ff","5f60d7ae0ef802052beba70c","true","601.9999999989523","./Stimuli/SelectedImages/SN/SN179.bmp","83","","","","test","true","N + M","83","switch","SN","SN179.bmp","remember","","78","3","prime1","left","","","",""
"html-keyboard-response","210","374107","0.0-4.0-1.0-3.29","xy62lkd6js3teu3","prime","5bfbff5763fc010001526679","5f5a55364e9b770ed21874ff","5f60d7ae0ef802052beba70c","false","null","<div style=""align-items: center; display: flex; color: dodgerblue; font-size: 90px""><b>o</b></div>","null","","","","forget_cue","","","","","","","","","","","","","","","",""
"html-keyboard-response","211","374808","0.0-4.0-1.0-0.30","xy62lkd6js3teu3","prime","5bfbff5763fc010001526679","5f5a55364e9b770ed21874ff","5f60d7ae0ef802052beba70c","false","null","<span style=""color: black; font-size: 48px"">M + N</span>","null","","","","resp_prompt","","","","","","","","","","","","","","","",""
"categorize-image","212","375482","0.0-4.0-1.0-1.30","xy62lkd6js3teu3","prime","5bfbff5763fc010001526679","5f5a55364e9b770ed21874ff","5f60d7ae0ef802052beba70c","true","671.3899999886053","./Stimuli/SelectedImages/LN/LN111.bmp","76","","","","test","true","M + N","76","repetition","LN","LN111.bmp","forget","","79","3","prime1","right","","","",""
"html-keyboard-response","213","377483","0.0-4.0-1.0-3.30","xy62lkd6js3teu3","prime","5bfbff5763fc010001526679","5f5a55364e9b770ed21874ff","5f60d7ae0ef802052beba70c","false","null","<div style=""align-items: center; display: flex; color: darkorange; font-size: 90px""><b>ø</b></div>","null","","","","forget_cue","","","","","","","","","","","","","","","",""
"html-keyboard-response","214","378184","0.0-4.0-1.0-0.31","xy62lkd6js3teu3","prime","5bfbff5763fc010001526679","5f5a55364e9b770ed21874ff","5f60d7ae0ef802052beba70c","false","null","<span style=""color: black; font-size: 48px"">N + M</span>","null","","","","resp_prompt","","","","","","","","","","","","","","","",""
"categorize-image","215","379001","0.0-4.0-1.0-1.31","xy62lkd6js3teu3","prime","5bfbff5763fc010001526679","5f5a55364e9b770ed21874ff","5f60d7ae0ef802052beba70c","true","814.8550000041723","./Stimuli/SelectedImages/LN/LN149.bmp","83","","","","test","true","N + M","83","repetition","LN","LN149.bmp","forget","","80","3","prime1","left","","","",""
"html-keyboard-response","216","381002","0.0-4.0-1.0-3.31","xy62lkd6js3teu3","prime","5bfbff5763fc010001526679","5f5a55364e9b770ed21874ff","5f60d7ae0ef802052beba70c","false","null","<div style=""align-items: center; display: flex; color: darkorange; font-size: 90px""><b>ø</b></div>","null","","","","forget_cue","","","","","","","","","","","","","","","",""
"html-keyboard-response","217","381702","0.0-4.0-1.0-0.32","xy62lkd6js3teu3","prime","5bfbff5763fc010001526679","5f5a55364e9b770ed21874ff","5f60d7ae0ef802052beba70c","false","null","<span style=""color: black; font-size: 48px"">M + N</span>","null","","","","resp_prompt","","","","","","","","","","","","","","","",""
"categorize-image","218","382966","0.0-4.0-1.0-1.32","xy62lkd6js3teu3","prime","5bfbff5763fc010001526679","5f5a55364e9b770ed21874ff","5f60d7ae0ef802052beba70c","true","1261.2200000003213","./Stimuli/SelectedImages/LM/LM103.bmp","83","","","","test","true","M + N","83","switch","LM","LM103.bmp","forget","","81","3","prime1","left","","","",""
"html-keyboard-response","219","384967","0.0-4.0-1.0-3.32","xy62lkd6js3teu3","prime","5bfbff5763fc010001526679","5f5a55364e9b770ed21874ff","5f60d7ae0ef802052beba70c","false","null","<div style=""align-items: center; display: flex; color: darkorange; font-size: 90px""><b>ø</b></div>","null","","","","forget_cue","","","","","","","","","","","","","","","",""
"html-keyboard-response","220","385668","0.0-4.0-1.0-0.33","xy62lkd6js3teu3","prime","5bfbff5763fc010001526679","5f5a55364e9b770ed21874ff","5f60d7ae0ef802052beba70c","false","null","<span style=""color: black; font-size: 48px"">M + N</span>","null","","","","resp_prompt","","","","","","","","","","","","","","","",""
"categorize-image","221","386709","0.0-4.0-1.0-1.33","xy62lkd6js3teu3","prime","5bfbff5763fc010001526679","5f5a55364e9b770ed21874ff","5f60d7ae0ef802052beba70c","true","1038.3900000015274","./Stimuli/SelectedImages/LM/LM150.bmp","83","","","","test","true","M + N","83","switch","LM","LM150.bmp","remember","","82","3","prime1","left","","","",""
"html-keyboard-response","222","388710","0.0-4.0-1.0-3.33","xy62lkd6js3teu3","prime","5bfbff5763fc010001526679","5f5a55364e9b770ed21874ff","5f60d7ae0ef802052beba70c","false","null","<div style=""align-items: center; display: flex; color: dodgerblue; font-size: 90px""><b>o</b></div>","null","","","","forget_cue","","","","","","","","","","","","","","","",""
"html-keyboard-response","223","389411","0.0-4.0-1.0-0.34","xy62lkd6js3teu3","prime","5bfbff5763fc010001526679","5f5a55364e9b770ed21874ff","5f60d7ae0ef802052beba70c","false","null","<span style=""color: black; font-size: 48px"">N + M</span>","null","","","","resp_prompt","","","","","","","","","","","","","","","",""
"categorize-image","224","390177","0.0-4.0-1.0-1.34","xy62lkd6js3teu3","prime","5bfbff5763fc010001526679","5f5a55364e9b770ed21874ff","5f60d7ae0ef802052beba70c","true","763.1549999932759","./Stimuli/SelectedImages/LM/LM167.bmp","76","","","","test","true","N + M","76","repetition","LM","LM167.bmp","remember","","83","3","prime1","right","","","",""
"html-keyboard-response","225","392179","0.0-4.0-1.0-3.34","xy62lkd6js3teu3","prime","5bfbff5763fc010001526679","5f5a55364e9b770ed21874ff","5f60d7ae0ef802052beba70c","false","null","<div style=""align-items: center; display: flex; color: dodgerblue; font-size: 90px""><b>o</b></div>","null","","","","forget_cue","","","","","","","","","","","","","","","",""
"html-keyboard-response","226","392880","0.0-4.0-1.0-0.35","xy62lkd6js3teu3","prime","5bfbff5763fc010001526679","5f5a55364e9b770ed21874ff","5f60d7ae0ef802052beba70c","false","null","<span style=""color: black; font-size: 48px"">M + N</span>","null","","","","resp_prompt","","","","","","","","","","","","","","","",""
"categorize-image","227","393973","0.0-4.0-1.0-1.35","xy62lkd6js3teu3","prime","5bfbff5763fc010001526679","5f5a55364e9b770ed21874ff","5f60d7ae0ef802052beba70c","true","1090.3699999907985","./Stimuli/SelectedImages/LN/LN177.bmp","76","","","","test","true","M + N","76","switch","LN","LN177.bmp","forget","","84","3","prime1","right","","","",""
"html-keyboard-response","228","395974","0.0-4.0-1.0-3.35","xy62lkd6js3teu3","prime","5bfbff5763fc010001526679","5f5a55364e9b770ed21874ff","5f60d7ae0ef802052beba70c","false","null","<div style=""align-items: center; display: flex; color: darkorange; font-size: 90px""><b>ø</b></div>","null","","","","forget_cue","","","","","","","","","","","","","","","",""
"html-keyboard-response","229","396675","0.0-4.0-1.0-0.36","xy62lkd6js3teu3","prime","5bfbff5763fc010001526679","5f5a55364e9b770ed21874ff","5f60d7ae0ef802052beba70c","false","null","<span style=""color: black; font-size: 48px"">M + N</span>","null","","","","resp_prompt","","","","","","","","","","","","","","","",""
"categorize-image","230","397366","0.0-4.0-1.0-1.36","xy62lkd6js3teu3","prime","5bfbff5763fc010001526679","5f5a55364e9b770ed21874ff","5f60d7ae0ef802052beba70c","true","688.4100000024773","./Stimuli/SelectedImages/SN/SN60.bmp","76","","","","test","true","M + N","76","switch","SN","SN60.bmp","remember","","85","3","prime1","right","","","",""
"html-keyboard-response","231","399367","0.0-4.0-1.0-3.36","xy62lkd6js3teu3","prime","5bfbff5763fc010001526679","5f5a55364e9b770ed21874ff","5f60d7ae0ef802052beba70c","false","null","<div style=""align-items: center; display: flex; color: dodgerblue; font-size: 90px""><b>o</b></div>","null","","","","forget_cue","","","","","","","","","","","","","","","",""
"html-keyboard-response","232","400068","0.0-4.0-1.0-0.37","xy62lkd6js3teu3","prime","5bfbff5763fc010001526679","5f5a55364e9b770ed21874ff","5f60d7ae0ef802052beba70c","false","null","<span style=""color: black; font-size: 48px"">N + M</span>","null","","","","resp_prompt","","","","","","","","","","","","","","","",""
"categorize-image","233","400703","0.0-4.0-1.0-1.37","xy62lkd6js3teu3","prime","5bfbff5763fc010001526679","5f5a55364e9b770ed21874ff","5f60d7ae0ef802052beba70c","true","631.455000009737","./Stimuli/SelectedImages/LN/LN13.bmp","83","","","","test","true","N + M","83","switch","LN","LN13.bmp","forget","","86","3","prime1","left","","","",""
"html-keyboard-response","234","402704","0.0-4.0-1.0-3.37","xy62lkd6js3teu3","prime","5bfbff5763fc010001526679","5f5a55364e9b770ed21874ff","5f60d7ae0ef802052beba70c","false","null","<div style=""align-items: center; display: flex; color: darkorange; font-size: 90px""><b>ø</b></div>","null","","","","forget_cue","","","","","","","","","","","","","","","",""
"html-keyboard-response","235","403405","0.0-4.0-1.0-0.38","xy62lkd6js3teu3","prime","5bfbff5763fc010001526679","5f5a55364e9b770ed21874ff","5f60d7ae0ef802052beba70c","false","null","<span style=""color: black; font-size: 48px"">N + M</span>","null","","","","resp_prompt","","","","","","","","","","","","","","","",""
"categorize-image","236","403936","0.0-4.0-1.0-1.38","xy62lkd6js3teu3","prime","5bfbff5763fc010001526679","5f5a55364e9b770ed21874ff","5f60d7ae0ef802052beba70c","true","528.9199999970151","./Stimuli/SelectedImages/LN/LN12.bmp","83","","","","test","true","N + M","83","repetition","LN","LN12.bmp","forget","","87","3","prime1","left","","","",""
"html-keyboard-response","237","405937","0.0-4.0-1.0-3.38","xy62lkd6js3teu3","prime","5bfbff5763fc010001526679","5f5a55364e9b770ed21874ff","5f60d7ae0ef802052beba70c","false","null","<div style=""align-items: center; display: flex; color: darkorange; font-size: 90px""><b>ø</b></div>","null","","","","forget_cue","","","","","","","","","","","","","","","",""
"html-keyboard-response","238","406637","0.0-4.0-1.0-0.39","xy62lkd6js3teu3","prime","5bfbff5763fc010001526679","5f5a55364e9b770ed21874ff","5f60d7ae0ef802052beba70c","false","null","<span style=""color: black; font-size: 48px"">M + N</span>","null","","","","resp_prompt","","","","","","","","","","","","","","","",""
"categorize-image","239","407149","0.0-4.0-1.0-1.39","xy62lkd6js3teu3","prime","5bfbff5763fc010001526679","5f5a55364e9b770ed21874ff","5f60d7ae0ef802052beba70c","true","508.8700000051176","./Stimuli/SelectedImages/LN/LN59.bmp","76","","","","test","true","M + N","76","switch","LN","LN59.bmp","remember","","88","3","prime1","right","","","",""
"html-keyboard-response","240","409150","0.0-4.0-1.0-3.39","xy62lkd6js3teu3","prime","5bfbff5763fc010001526679","5f5a55364e9b770ed21874ff","5f60d7ae0ef802052beba70c","false","null","<div style=""align-items: center; display: flex; color: dodgerblue; font-size: 90px""><b>o</b></div>","null","","","","forget_cue","","","","","","","","","","","","","","","",""
"html-keyboard-response","241","409851","0.0-4.0-1.0-0.40","xy62lkd6js3teu3","prime","5bfbff5763fc010001526679","5f5a55364e9b770ed21874ff","5f60d7ae0ef802052beba70c","false","null","<span style=""color: black; font-size: 48px"">M + N</span>","null","","","","resp_prompt","","","","","","","","","","","","","","","",""
"categorize-image","242","410599","0.0-4.0-1.0-1.40","xy62lkd6js3teu3","prime","5bfbff5763fc010001526679","5f5a55364e9b770ed21874ff","5f60d7ae0ef802052beba70c","true","745.1350000046659","./Stimuli/SelectedImages/LM/LM157.bmp","83","","","","test","true","M + N","83","repetition","LM","LM157.bmp","forget","","89","3","prime1","left","","","",""
"html-keyboard-response","243","412600","0.0-4.0-1.0-3.40","xy62lkd6js3teu3","prime","5bfbff5763fc010001526679","5f5a55364e9b770ed21874ff","5f60d7ae0ef802052beba70c","false","null","<div style=""align-items: center; display: flex; color: darkorange; font-size: 90px""><b>ø</b></div>","null","","","","forget_cue","","","","","","","","","","","","","","","",""
"html-keyboard-response","244","413300","0.0-4.0-1.0-0.41","xy62lkd6js3teu3","prime","5bfbff5763fc010001526679","5f5a55364e9b770ed21874ff","5f60d7ae0ef802052beba70c","false","null","<span style=""color: black; font-size: 48px"">M + N</span>","null","","","","resp_prompt","","","","","","","","","","","","","","","",""
"categorize-image","245","413752","0.0-4.0-1.0-1.41","xy62lkd6js3teu3","prime","5bfbff5763fc010001526679","5f5a55364e9b770ed21874ff","5f60d7ae0ef802052beba70c","true","449.16999999259133","./Stimuli/SelectedImages/LN/LN101.bmp","76","","","","test","true","M + N","76","repetition","LN","LN101.bmp","remember","","90","3","prime1","right","","","",""
"html-keyboard-response","246","415754","0.0-4.0-1.0-3.41","xy62lkd6js3teu3","prime","5bfbff5763fc010001526679","5f5a55364e9b770ed21874ff","5f60d7ae0ef802052beba70c","false","null","<div style=""align-items: center; display: flex; color: dodgerblue; font-size: 90px""><b>o</b></div>","null","","","","forget_cue","","","","","","","","","","","","","","","",""
"html-keyboard-response","247","416455","0.0-4.0-1.0-0.42","xy62lkd6js3teu3","prime","5bfbff5763fc010001526679","5f5a55364e9b770ed21874ff","5f60d7ae0ef802052beba70c","false","null","<span style=""color: black; font-size: 48px"">M + N</span>","null","","","","resp_prompt","","","","","","","","","","","","","","","",""
"categorize-image","248","417385","0.0-4.0-1.0-1.42","xy62lkd6js3teu3","prime","5bfbff5763fc010001526679","5f5a55364e9b770ed21874ff","5f60d7ae0ef802052beba70c","true","927.4900000018533","./Stimuli/SelectedImages/LM/LM48.bmp","76","","","","test","false","M + N","83","switch","LM","LM48.bmp","remember","","91","3","prime1","right","","","",""
"html-keyboard-response","249","417887","0.0-4.0-1.0-2.42-0.42","xy62lkd6js3teu3","prime","5bfbff5763fc010001526679","5f5a55364e9b770ed21874ff","5f60d7ae0ef802052beba70c","false","null","<span style=""color: red; font-size: 48px"">Error!</span>","null","","","","feedback","","","","","","","","","","","","","","","",""
"html-keyboard-response","250","419888","0.0-4.0-1.0-3.42","xy62lkd6js3teu3","prime","5bfbff5763fc010001526679","5f5a55364e9b770ed21874ff","5f60d7ae0ef802052beba70c","false","null","<div style=""align-items: center; display: flex; color: dodgerblue; font-size: 90px""><b>o</b></div>","null","","","","forget_cue","","","","","","","","","","","","","","","",""
"html-keyboard-response","251","420589","0.0-4.0-1.0-0.43","xy62lkd6js3teu3","prime","5bfbff5763fc010001526679","5f5a55364e9b770ed21874ff","5f60d7ae0ef802052beba70c","false","null","<span style=""color: black; font-size: 48px"">N + M</span>","null","","","","resp_prompt","","","","","","","","","","","","","","","",""
"categorize-image","252","421673","0.0-4.0-1.0-1.43","xy62lkd6js3teu3","prime","5bfbff5763fc010001526679","5f5a55364e9b770ed21874ff","5f60d7ae0ef802052beba70c","true","1081.2600000062957","./Stimuli/SelectedImages/LM/LM51.bmp","83","","","","test","false","N + M","76","repetition","LM","LM51.bmp","remember","","92","3","prime1","left","","","",""
