"trial_type","trial_index","time_elapsed","internal_node_id","subject","exp_part","prolific_PID","study_ID","session_ID","use","rt","stimulus","key_press","button_pressed","responses","question_order","trial_part","correct","resp_map","correct_resp","probe_condition","category","image","forget_condition","list","trial_num","block_num","block","response","test_part","n_span","sequence","num_spaces"
"pavlovia","0","9","0.0-0.0","y5pkhqk0a5c6t0q","","5f605d6e23a6c714d670ec5d","5f60e3c0a3b16e07647b2ff9","5f60eb803707fa000a774481","false","","","","","","","","","","","","","","","","","","","","","","",""
"html-keyboard-response","1","8676","0.0-1.0-0.0-0.0","y5pkhqk0a5c6t0q","welcome","5f605d6e23a6c714d670ec5d","5f60e3c0a3b16e07647b2ff9","5f60eb803707fa000a774481","false","8663.990000000013","<div align=left>Dear participant, <br> thank you for participating in an online study of the Cognition, Action, and Sustainability Unit of the University of Freiburg! <br> <br>The aim of this study is to examine our ability to remember previously learned information. <br>Our goal is to find out, whether our memory improves, when we only remember information that is relevant to us. <br>The experiment will take about 35 minutes to complete. <br> <br>Please, note that you can only participate in this study if you are using a device with a keyboard (PC, Laptop etc.) <br>and not if you are using a mobile device such as a tablet or smartphone.<br> <br>Press 'SPACE' to proceed to the experiment. </div>","32","","","","","","","","","","","","","","","","","","","",""
"html-keyboard-response","2","27906","0.0-1.0-0.0-1.0","y5pkhqk0a5c6t0q","welcome","5f605d6e23a6c714d670ec5d","5f60e3c0a3b16e07647b2ff9","5f60eb803707fa000a774481","false","19227.614999999783","<div align=left><strong> Time Course of this experiment: </strong> <br><br> <strong> 1.</strong>  First, please fill in some information regarding your demographic data. <br><br> <strong> 2.</strong>  Next, your task will be to classify everyday objects. <br>In addition, you will be asked to remember certain objects and recall them later. <br>Working on these tasks requires your undivided attention and concentration.<br>It is therefore essential that you eliminate any sources of distraction in your  <br>environment and ensure that you will not be disturbed. <br><br><strong> 3.</strong>  At the end of the experiment, you will be asked to answer a few additional questions. <br> <br><strong> Important:</strong> After finishing the experiment, only close the browser window <br> by clicking on the 'end the experiment'-button when you are asked to do so. <br>Closing the browser window prematurely will make the allocation of your participation credit impossible. <br><br> Press 'SPACE' to start the experiment. </div>","32","","","","","","","","","","","","","","","","","","","",""
"html-button-response","3","31817","0.0-1.0-0.0-2.0","y5pkhqk0a5c6t0q","welcome","5f605d6e23a6c714d670ec5d","5f60e3c0a3b16e07647b2ff9","5f60eb803707fa000a774481","true","3907.199999999648","<div align=left><strong> Informed consent </strong>  <br>The aim of our research is to better understand human behavior and mental processes. <br>In the following study your behavior (e.g. choices, reaction times) will be studied. <br> <br><strong> Voluntariness and Anonymity </strong> <br>Your participation in this study is  <strong> voluntary</strong>.<br>You may withdraw your consent to participate at any time without providing a reason for doing so and without fear of prejudice. <br><br>As no personal data will be collected, <strong>your data and your person cannot be connected after data collection</strong> – the data-set is anonymous. <br>Respectively, deletion of your data will not be possible after data collection has been completed, as we cannot retrace your data-set.<br>The results and anonymized data collected in this study will be published as a scientific publication. <br>This will happen in an <strong>anonymized format</strong>, so that no data can be traced back to a specific person. <br> <br>The anonymized data of this study will be made available to other researchers and/or in a data archive on the Internet as a means of transparency and to enable subsequent re-use. By doing so, this study follows the recommendations of the Deutsche Forschungsgemeinschaft (DFG, German Research Foundation) and Deutsche Gesellschaft für Psychologie (DGPS, German Psychological Society) regarding quality assurance in research.<br>If you have any questions now or after the experiment, please contact our team (experiments@cs.uni-freiburg.de).<br><br><br>I hereby declare, that I understand the above described conditions of participation and I agree to participate under these conditions. <br><br> </div>","","0","","","","","","","","","","","","","","","","","","",""
"html-keyboard-response","4","65139","0.0-1.0-0.0-3.0","y5pkhqk0a5c6t0q","welcome","5f605d6e23a6c714d670ec5d","5f60e3c0a3b16e07647b2ff9","5f60eb803707fa000a774481","false","33319.28000000016","<div align=left><strong> General information concerning the experiment </strong>  <br> <br>Please follow the instructions:<ol> <li><strong> Do not leave this tab (your browser window) during the experiment and do not reload this tab! </strong>  <br>If you do switch tabs/windows during the experiment (to check your mail or visit another website, for example), <br>the experiment will end automatically and you will <strong>not receive credit</strong> for your participation. <br>Repeated participation or resumption of the experiment is impossible.</li> <br><li>Please close all other programs for the duration of your participation. </li> <br><li>Please mute or turn off your phone and put it out of your reach. </li> <br><li>Please also take off any disturbing accessories (such as wristwatches, bracelets, etc.). </li> <br><li>If you have music playing in the background, please turn it off now. </li> <br></ol>Thank you! <br>Press 'SPACE' to continue. </div>","32","","","","","","","","","","","","","","","","","","","",""
"survey-text","5","68491","0.0-1.0-1.0-0.0","y5pkhqk0a5c6t0q","demographics","5f605d6e23a6c714d670ec5d","5f60e3c0a3b16e07647b2ff9","5f60eb803707fa000a774481","true","3343.6899999996967","","","","{""age"":""19""}","","","","","","","","","","","","","","","","","",""
"survey-multi-choice","6","79693","0.0-1.0-1.0-1.0","y5pkhqk0a5c6t0q","demographics","5f605d6e23a6c714d670ec5d","5f60e3c0a3b16e07647b2ff9","5f60eb803707fa000a774481","true","11198.225000000093","","","","{""gender"":""male"",""school"":""high school"",""education"":""High school graduate, diploma or equivalent""}","[0,1,2]","","","","","","","","","","","","","","","","",""
"html-keyboard-response","7","94299","0.0-1.0-2.0","y5pkhqk0a5c6t0q","instructions","5f605d6e23a6c714d670ec5d","5f60e3c0a3b16e07647b2ff9","5f60eb803707fa000a774481","false","14603.660000000207","<div align=left> The experiment is now about to start: <br> <br>In the following part, you will be presented pictures of everyday objects. <br>Your first task is to <strong>classify these objects. </strong> <br> <br> You will classify them either as mechanical or non-mechanical objects. <br> <br>Objects that include any kind of technical mechanism (for example, wheels, switches, levers, <br> electronic components) fall under the category of <strong>mechanical</strong> objects. <br>Only objects without any kind of technical mechanism should be classified as <strong>non-mechanical</strong>. <br><br>Press 'SPACE' to continue. </div>","32","","","","","","","","","","","","","","","","","","","",""
"html-keyboard-response","8","162323","0.0-2.0-0.0","y5pkhqk0a5c6t0q","instructions","5f605d6e23a6c714d670ec5d","5f60e3c0a3b16e07647b2ff9","5f60eb803707fa000a774481","false","68022.5300000002","<div align=justify>You will classify the objects using the <strong>'S'</strong> and the <strong>'L'</strong> keys on your keyboard.<br>For doing so, please place your <strong>left index finger</strong> on the <strong>'S'</strong> key and place your <strong>right index finger</strong> on the <strong>'L'</strong> key. <br><br> Each trial starts with an instruction, indicating which key ('S'/'L') you need to press to classify <br>the object as mechanical (letter M) or non-mechanical (letter N).<br>The instruction <strong>M + N</strong> indicates that, in the current trial, by pressing the left key ('S') you classify the displayed object as mechanical (M) <br> and by pressing the right key ('L') you classify the object as non-mechanical (N). <br>The instruction <strong>N + M</strong> on the other hand indicates that by pressing the left key ('S') you classify the displayed object as non-mechanical (N) <br> and by pressing the right key ('L') you classify the object as mechanical (M). <br><br>Please press the key corresponding to the correct classification as fast as possible as soon as the object is displayed and try to avoid making mistakes.<br>If you do not respond within a 2 second window, a corresponding feedback will be displayed and the next trial will start.<br> The experiment is divided into multiple blocks to give you the opportunity to take a break after each block. <br>First, you can now practice this task. <br><br>Please place your <strong>LEFT INDEX FINGER</strong> on the 'S' key and your <strong>RIGHT INDEX FINGER</strong> on the 'L' key now. <br><br>Press SPACE to continue.</div>","32","","","","","","","","","","","","","","","","","","","",""
"html-keyboard-response","9","172443","0.0-2.0-1.0","y5pkhqk0a5c6t0q","instructions","5f605d6e23a6c714d670ec5d","5f60e3c0a3b16e07647b2ff9","5f60eb803707fa000a774481","false","10117.800000000425","<div align=left> You will now have time to practice this task.<br><br>Remember: <br> <br><li>Please place your index fingers on the <strong>'S'</strong> and <strong>'L'</strong> keys <br>to respond as fast and accurately as possible.</li><li>Every picture can be classified as either mechanical or non-mechanical.</li><li>If you do not respond in time or commit an error, you will receive a corresponding feedback. </li><li> Please try to respond as <strong> fast </strong> and as <strong> accurately as possible </strong> .<br><li>To ensure optimal results, please minimize distractions and stay focused. </li><br><br>Press SPACE to continue.</div>","32","","","","","","","","","","","","","","","","","","","",""
"html-keyboard-response","10","173145","0.0-2.0-2.0-0.0","y5pkhqk0a5c6t0q","practice_no_cue","5f605d6e23a6c714d670ec5d","5f60e3c0a3b16e07647b2ff9","5f60eb803707fa000a774481","false","null","<span style=""color: black; font-size: 48px"">N + M</span>","null","","","","resp_prompt","","","","","","","","","","","","","","","",""
"categorize-image","11","174409","0.0-2.0-2.0-1.0","y5pkhqk0a5c6t0q","practice_no_cue","5f605d6e23a6c714d670ec5d","5f60e3c0a3b16e07647b2ff9","5f60eb803707fa000a774481","true","758.8599999999278","./Stimuli/ImagesPractice/LM147.jpg","83","","","","test","false","N + M","76","","LM","LM147.jpg","remember","old","1","1","start","left","","","",""
"html-keyboard-response","12","175111","0.0-2.0-2.0-0.1","y5pkhqk0a5c6t0q","practice_no_cue","5f605d6e23a6c714d670ec5d","5f60e3c0a3b16e07647b2ff9","5f60eb803707fa000a774481","false","null","<span style=""color: black; font-size: 48px"">N + M</span>","null","","","","resp_prompt","","","","","","","","","","","","","","","",""
"categorize-image","13","176567","0.0-2.0-2.0-1.1","y5pkhqk0a5c6t0q","practice_no_cue","5f605d6e23a6c714d670ec5d","5f60e3c0a3b16e07647b2ff9","5f60eb803707fa000a774481","true","952.9250000000466","./Stimuli/ImagesPractice/SN220.jpg","76","","","","test","false","N + M","83","","SN","SN220.jpg","forget","old","2","1","start","right","","","",""
"html-keyboard-response","14","177269","0.0-2.0-2.0-0.2","y5pkhqk0a5c6t0q","practice_no_cue","5f605d6e23a6c714d670ec5d","5f60e3c0a3b16e07647b2ff9","5f60eb803707fa000a774481","false","null","<span style=""color: black; font-size: 48px"">N + M</span>","null","","","","resp_prompt","","","","","","","","","","","","","","","",""
"categorize-image","15","178959","0.0-2.0-2.0-1.2","y5pkhqk0a5c6t0q","practice_no_cue","5f605d6e23a6c714d670ec5d","5f60e3c0a3b16e07647b2ff9","5f60eb803707fa000a774481","true","1187.2600000001548","./Stimuli/ImagesPractice/LN109.jpg","76","","","","test","false","N + M","83","","LN","LN109.jpg","remember","old","3","1","start","right","","","",""
"html-keyboard-response","16","179661","0.0-2.0-2.0-0.3","y5pkhqk0a5c6t0q","practice_no_cue","5f605d6e23a6c714d670ec5d","5f60e3c0a3b16e07647b2ff9","5f60eb803707fa000a774481","false","null","<span style=""color: black; font-size: 48px"">N + M</span>","null","","","","resp_prompt","","","","","","","","","","","","","","","",""
"categorize-image","17","181038","0.0-2.0-2.0-1.3","y5pkhqk0a5c6t0q","practice_no_cue","5f605d6e23a6c714d670ec5d","5f60e3c0a3b16e07647b2ff9","5f60eb803707fa000a774481","true","874.6850000002305","./Stimuli/ImagesPractice/LN15.jpg","76","","","","test","false","N + M","83","","LN","LN15.jpg","forget","old","4","1","start","right","","","",""
"html-keyboard-response","18","181740","0.0-2.0-2.0-0.4","y5pkhqk0a5c6t0q","practice_no_cue","5f605d6e23a6c714d670ec5d","5f60e3c0a3b16e07647b2ff9","5f60eb803707fa000a774481","false","null","<span style=""color: black; font-size: 48px"">M + N</span>","null","","","","resp_prompt","","","","","","","","","","","","","","","",""
"categorize-image","19","183609","0.0-2.0-2.0-1.4","y5pkhqk0a5c6t0q","practice_no_cue","5f605d6e23a6c714d670ec5d","5f60e3c0a3b16e07647b2ff9","5f60eb803707fa000a774481","true","1364.7900000000955","./Stimuli/ImagesPractice/LM230.jpg","83","","","","test","true","M + N","83","","LM","LM230.jpg","forget","old","5","1","start","left","","","",""
"html-keyboard-response","20","184311","0.0-2.0-2.0-0.5","y5pkhqk0a5c6t0q","practice_no_cue","5f605d6e23a6c714d670ec5d","5f60e3c0a3b16e07647b2ff9","5f60eb803707fa000a774481","false","null","<span style=""color: black; font-size: 48px"">M + N</span>","null","","","","resp_prompt","","","","","","","","","","","","","","","",""
"categorize-image","21","185728","0.0-2.0-2.0-1.5","y5pkhqk0a5c6t0q","practice_no_cue","5f605d6e23a6c714d670ec5d","5f60e3c0a3b16e07647b2ff9","5f60eb803707fa000a774481","true","913.0350000000326","./Stimuli/ImagesPractice/SM37.jpg","83","","","","test","true","M + N","83","","SM","SM37.jpg","remember","old","6","1","start","left","","","",""
"html-keyboard-response","22","186430","0.0-2.0-2.0-0.6","y5pkhqk0a5c6t0q","practice_no_cue","5f605d6e23a6c714d670ec5d","5f60e3c0a3b16e07647b2ff9","5f60eb803707fa000a774481","false","null","<span style=""color: black; font-size: 48px"">M + N</span>","null","","","","resp_prompt","","","","","","","","","","","","","","","",""
"categorize-image","23","188127","0.0-2.0-2.0-1.6","y5pkhqk0a5c6t0q","practice_no_cue","5f605d6e23a6c714d670ec5d","5f60e3c0a3b16e07647b2ff9","5f60eb803707fa000a774481","true","1194.6700000003038","./Stimuli/ImagesPractice/SN205.jpg","83","","","","test","false","M + N","76","","SN","SN205.jpg","forget","old","7","1","start","left","","","",""
"html-keyboard-response","24","188831","0.0-2.0-2.0-0.7","y5pkhqk0a5c6t0q","practice_no_cue","5f605d6e23a6c714d670ec5d","5f60e3c0a3b16e07647b2ff9","5f60eb803707fa000a774481","false","null","<span style=""color: black; font-size: 48px"">N + M</span>","null","","","","resp_prompt","","","","","","","","","","","","","","","",""
"categorize-image","25","190535","0.0-2.0-2.0-1.7","y5pkhqk0a5c6t0q","practice_no_cue","5f605d6e23a6c714d670ec5d","5f60e3c0a3b16e07647b2ff9","5f60eb803707fa000a774481","true","1200.6150000001944","./Stimuli/ImagesPractice/LN72.jpg","76","","","","test","false","N + M","83","","LN","LN72.jpg","forget","old","8","1","start","right","","","",""
"html-keyboard-response","26","191237","0.0-2.0-2.0-0.8","y5pkhqk0a5c6t0q","practice_no_cue","5f605d6e23a6c714d670ec5d","5f60e3c0a3b16e07647b2ff9","5f60eb803707fa000a774481","false","null","<span style=""color: black; font-size: 48px"">M + N</span>","null","","","","resp_prompt","","","","","","","","","","","","","","","",""
"categorize-image","27","193743","0.0-2.0-2.0-1.8","y5pkhqk0a5c6t0q","practice_no_cue","5f605d6e23a6c714d670ec5d","5f60e3c0a3b16e07647b2ff9","5f60eb803707fa000a774481","true","null","./Stimuli/ImagesPractice/LM239.jpg","null","","","","test","false","M + N","83","","LM","LM239.jpg","remember","old","9","1","start","too_slow","","","",""
"html-keyboard-response","28","194445","0.0-2.0-2.0-0.9","y5pkhqk0a5c6t0q","practice_no_cue","5f605d6e23a6c714d670ec5d","5f60e3c0a3b16e07647b2ff9","5f60eb803707fa000a774481","false","null","<span style=""color: black; font-size: 48px"">N + M</span>","null","","","","resp_prompt","","","","","","","","","","","","","","","",""
"categorize-image","29","195758","0.0-2.0-2.0-1.9","y5pkhqk0a5c6t0q","practice_no_cue","5f605d6e23a6c714d670ec5d","5f60e3c0a3b16e07647b2ff9","5f60eb803707fa000a774481","true","811.7349999997823","./Stimuli/ImagesPractice/SN222.jpg","76","","","","test","false","N + M","83","","SN","SN222.jpg","forget","old","10","1","start","right","","","",""
"html-keyboard-response","30","196461","0.0-2.0-2.0-0.10","y5pkhqk0a5c6t0q","practice_no_cue","5f605d6e23a6c714d670ec5d","5f60e3c0a3b16e07647b2ff9","5f60eb803707fa000a774481","false","null","<span style=""color: black; font-size: 48px"">N + M</span>","null","","","","resp_prompt","","","","","","","","","","","","","","","",""
"categorize-image","31","198047","0.0-2.0-2.0-1.10","y5pkhqk0a5c6t0q","practice_no_cue","5f605d6e23a6c714d670ec5d","5f60e3c0a3b16e07647b2ff9","5f60eb803707fa000a774481","true","1083.5600000000268","./Stimuli/ImagesPractice/SM98.jpg","83","","","","test","false","N + M","76","","SM","SM98.jpg","remember","old","11","1","start","left","","","",""
"html-keyboard-response","32","198749","0.0-2.0-2.0-0.11","y5pkhqk0a5c6t0q","practice_no_cue","5f605d6e23a6c714d670ec5d","5f60e3c0a3b16e07647b2ff9","5f60eb803707fa000a774481","false","null","<span style=""color: black; font-size: 48px"">M + N</span>","null","","","","resp_prompt","","","","","","","","","","","","","","","",""
"categorize-image","33","199952","0.0-2.0-2.0-1.11","y5pkhqk0a5c6t0q","practice_no_cue","5f605d6e23a6c714d670ec5d","5f60e3c0a3b16e07647b2ff9","5f60eb803707fa000a774481","true","698.9349999999104","./Stimuli/ImagesPractice/SN75.jpg","83","","","","test","false","M + N","76","","SN","SN75.jpg","remember","old","12","1","start","left","","","",""
"html-keyboard-response","34","200654","0.0-2.0-2.0-0.12","y5pkhqk0a5c6t0q","practice_no_cue","5f605d6e23a6c714d670ec5d","5f60e3c0a3b16e07647b2ff9","5f60eb803707fa000a774481","false","null","<span style=""color: black; font-size: 48px"">N + M</span>","null","","","","resp_prompt","","","","","","","","","","","","","","","",""
"categorize-image","35","202456","0.0-2.0-2.0-1.12","y5pkhqk0a5c6t0q","practice_no_cue","5f605d6e23a6c714d670ec5d","5f60e3c0a3b16e07647b2ff9","5f60eb803707fa000a774481","true","1298.8299999997253","./Stimuli/ImagesPractice/LM143.jpg","83","","","","test","false","N + M","76","","LM","LM143.jpg","remember","old","13","1","start","left","","","",""
"html-keyboard-response","36","203158","0.0-2.0-2.0-0.13","y5pkhqk0a5c6t0q","practice_no_cue","5f605d6e23a6c714d670ec5d","5f60e3c0a3b16e07647b2ff9","5f60eb803707fa000a774481","false","null","<span style=""color: black; font-size: 48px"">M + N</span>","null","","","","resp_prompt","","","","","","","","","","","","","","","",""
"categorize-image","37","203680","0.0-2.0-2.0-1.13","y5pkhqk0a5c6t0q","practice_no_cue","5f605d6e23a6c714d670ec5d","5f60e3c0a3b16e07647b2ff9","5f60eb803707fa000a774481","true","19.045000000012806","./Stimuli/ImagesPractice/LN17.jpg","76","","","","test","true","M + N","76","","LN","LN17.jpg","remember","old","14","1","start","right","","","",""
"html-keyboard-response","38","204382","0.0-2.0-2.0-0.14","y5pkhqk0a5c6t0q","practice_no_cue","5f605d6e23a6c714d670ec5d","5f60e3c0a3b16e07647b2ff9","5f60eb803707fa000a774481","false","null","<span style=""color: black; font-size: 48px"">M + N</span>","null","","","","resp_prompt","","","","","","","","","","","","","","","",""
"categorize-image","39","206519","0.0-2.0-2.0-1.14","y5pkhqk0a5c6t0q","practice_no_cue","5f605d6e23a6c714d670ec5d","5f60e3c0a3b16e07647b2ff9","5f60eb803707fa000a774481","true","1634.7399999999616","./Stimuli/ImagesPractice/LM55.jpg","83","","","","test","true","M + N","83","","LM","LM55.jpg","forget","old","15","1","start","left","","","",""
"html-keyboard-response","40","207220","0.0-2.0-2.0-0.15","y5pkhqk0a5c6t0q","practice_no_cue","5f605d6e23a6c714d670ec5d","5f60e3c0a3b16e07647b2ff9","5f60eb803707fa000a774481","false","null","<span style=""color: black; font-size: 48px"">M + N</span>","null","","","","resp_prompt","","","","","","","","","","","","","","","",""
"categorize-image","41","208622","0.0-2.0-2.0-1.15","y5pkhqk0a5c6t0q","practice_no_cue","5f605d6e23a6c714d670ec5d","5f60e3c0a3b16e07647b2ff9","5f60eb803707fa000a774481","true","899.904999999766","./Stimuli/ImagesPractice/SM61.jpg","83","","","","test","true","M + N","83","","SM","SM61.jpg","forget","old","16","1","start","left","","","",""
"html-keyboard-response","42","212802","0.0-2.0-3.0","y5pkhqk0a5c6t0q","break","5f605d6e23a6c714d670ec5d","5f60e3c0a3b16e07647b2ff9","5f60eb803707fa000a774481","false","4176.965000000113","<p style='font-size: 32px;'>Break</><br><br><br><br><br><p style='font-size: 24px;'>In the last block, you committed 10 errors and did not respond in time on 1 trials.
</p><p style='font-size: 24px;'>Try to respond as fast and accurately as possible in the next block as well! </p><p style='font-size: 24px;'>Press SPACE to continue.</p>","32","","","","","","","","","","","","","","","","","","","",""
"html-keyboard-response","43","217771","0.0-2.0-4.0","y5pkhqk0a5c6t0q","instructions","5f605d6e23a6c714d670ec5d","5f60e3c0a3b16e07647b2ff9","5f60eb803707fa000a774481","false","4967.5500000003085","<div align=left> Great!<br><br>Are you ready to continue?<br><br>If you want to reread the instructions and redo the practice trials, <br>please press „Z“. <br><br>Press SPACE to CONTINUE with the experiment when you are ready. </div>","90","","","","","","","","","","","","","","","","","","","",""
"html-keyboard-response","44","218866","0.0-2.1-0.1","y5pkhqk0a5c6t0q","instructions","5f605d6e23a6c714d670ec5d","5f60e3c0a3b16e07647b2ff9","5f60eb803707fa000a774481","false","1092.215000000113","<div align=justify>You will classify the objects using the <strong>'S'</strong> and the <strong>'L'</strong> keys on your keyboard.<br>For doing so, please place your <strong>left index finger</strong> on the <strong>'S'</strong> key and place your <strong>right index finger</strong> on the <strong>'L'</strong> key. <br><br> Each trial starts with an instruction, indicating which key ('S'/'L') you need to press to classify <br>the object as mechanical (letter M) or non-mechanical (letter N).<br>The instruction <strong>M + N</strong> indicates that, in the current trial, by pressing the left key ('S') you classify the displayed object as mechanical (M) <br> and by pressing the right key ('L') you classify the object as non-mechanical (N). <br>The instruction <strong>N + M</strong> on the other hand indicates that by pressing the left key ('S') you classify the displayed object as non-mechanical (N) <br> and by pressing the right key ('L') you classify the object as mechanical (M). <br><br>Please press the key corresponding to the correct classification as fast as possible as soon as the object is displayed and try to avoid making mistakes.<br>If you do not respond within a 2 second window, a corresponding feedback will be displayed and the next trial will start.<br> The experiment is divided into multiple blocks to give you the opportunity to take a break after each block. <br>First, you can now practice this task. <br><br>Please place your <strong>LEFT INDEX FINGER</strong> on the 'S' key and your <strong>RIGHT INDEX FINGER</strong> on the 'L' key now. <br><br>Press SPACE to continue.</div>","32","","","","","","","","","","","","","","","","","","","",""
"html-keyboard-response","45","219690","0.0-2.1-1.1","y5pkhqk0a5c6t0q","instructions","5f605d6e23a6c714d670ec5d","5f60e3c0a3b16e07647b2ff9","5f60eb803707fa000a774481","false","822.8500000000058","<div align=left> You will now have time to practice this task.<br><br>Remember: <br> <br><li>Please place your index fingers on the <strong>'S'</strong> and <strong>'L'</strong> keys <br>to respond as fast and accurately as possible.</li><li>Every picture can be classified as either mechanical or non-mechanical.</li><li>If you do not respond in time or commit an error, you will receive a corresponding feedback. </li><li> Please try to respond as <strong> fast </strong> and as <strong> accurately as possible </strong> .<br><li>To ensure optimal results, please minimize distractions and stay focused. </li><br><br>Press SPACE to continue.</div>","32","","","","","","","","","","","","","","","","","","","",""
"html-keyboard-response","46","220393","0.0-2.1-2.1-0.16","y5pkhqk0a5c6t0q","practice_no_cue","5f605d6e23a6c714d670ec5d","5f60e3c0a3b16e07647b2ff9","5f60eb803707fa000a774481","false","null","<span style=""color: black; font-size: 48px"">M + N</span>","null","","","","resp_prompt","","","","","","","","","","","","","","","",""
"categorize-image","47","221088","0.0-2.1-2.1-1.16","y5pkhqk0a5c6t0q","practice_no_cue","5f605d6e23a6c714d670ec5d","5f60e3c0a3b16e07647b2ff9","5f60eb803707fa000a774481","true","191.4000000001688","./Stimuli/ImagesPractice/LM230.jpg","83","","","","test","true","M + N","83","","LM","LM230.jpg","forget","old","17","2","practice_forget","left","","","",""
"html-keyboard-response","48","221790","0.0-2.1-2.1-0.17","y5pkhqk0a5c6t0q","practice_no_cue","5f605d6e23a6c714d670ec5d","5f60e3c0a3b16e07647b2ff9","5f60eb803707fa000a774481","false","null","<span style=""color: black; font-size: 48px"">M + N</span>","null","","","","resp_prompt","","","","","","","","","","","","","","","",""
"categorize-image","49","222312","0.0-2.1-2.1-1.17","y5pkhqk0a5c6t0q","practice_no_cue","5f605d6e23a6c714d670ec5d","5f60e3c0a3b16e07647b2ff9","5f60eb803707fa000a774481","true","18.819999999774154","./Stimuli/ImagesPractice/SN75.jpg","83","","","","test","false","M + N","76","","SN","SN75.jpg","remember","old","18","2","practice_forget","left","","","",""
"html-keyboard-response","50","223013","0.0-2.1-2.1-0.18","y5pkhqk0a5c6t0q","practice_no_cue","5f605d6e23a6c714d670ec5d","5f60e3c0a3b16e07647b2ff9","5f60eb803707fa000a774481","false","null","<span style=""color: black; font-size: 48px"">N + M</span>","null","","","","resp_prompt","","","","","","","","","","","","","","","",""
"categorize-image","51","223662","0.0-2.1-2.1-1.18","y5pkhqk0a5c6t0q","practice_no_cue","5f605d6e23a6c714d670ec5d","5f60e3c0a3b16e07647b2ff9","5f60eb803707fa000a774481","true","146.82499999983702","./Stimuli/ImagesPractice/LN109.jpg","83","","","","test","true","N + M","83","","LN","LN109.jpg","remember","old","19","2","practice_forget","left","","","",""
"html-keyboard-response","52","224363","0.0-2.1-2.1-0.19","y5pkhqk0a5c6t0q","practice_no_cue","5f605d6e23a6c714d670ec5d","5f60e3c0a3b16e07647b2ff9","5f60eb803707fa000a774481","false","null","<span style=""color: black; font-size: 48px"">N + M</span>","null","","","","resp_prompt","","","","","","","","","","","","","","","",""
"categorize-image","53","226032","0.0-2.1-2.1-1.19","y5pkhqk0a5c6t0q","practice_no_cue","5f605d6e23a6c714d670ec5d","5f60e3c0a3b16e07647b2ff9","5f60eb803707fa000a774481","true","1164.7450000000244","./Stimuli/ImagesPractice/LM143.jpg","76","","","","test","true","N + M","76","","LM","LM143.jpg","remember","old","20","2","practice_forget","right","","","",""
"html-keyboard-response","54","226734","0.0-2.1-2.1-0.20","y5pkhqk0a5c6t0q","practice_no_cue","5f605d6e23a6c714d670ec5d","5f60e3c0a3b16e07647b2ff9","5f60eb803707fa000a774481","false","null","<span style=""color: black; font-size: 48px"">N + M</span>","null","","","","resp_prompt","","","","","","","","","","","","","","","",""
"categorize-image","55","227408","0.0-2.1-2.1-1.20","y5pkhqk0a5c6t0q","practice_no_cue","5f605d6e23a6c714d670ec5d","5f60e3c0a3b16e07647b2ff9","5f60eb803707fa000a774481","true","169.66999999977998","./Stimuli/ImagesPractice/SN222.jpg","83","","","","test","true","N + M","83","","SN","SN222.jpg","forget","old","21","2","practice_forget","left","","","",""
"html-keyboard-response","56","228110","0.0-2.1-2.1-0.21","y5pkhqk0a5c6t0q","practice_no_cue","5f605d6e23a6c714d670ec5d","5f60e3c0a3b16e07647b2ff9","5f60eb803707fa000a774481","false","null","<span style=""color: black; font-size: 48px"">N + M</span>","null","","","","resp_prompt","","","","","","","","","","","","","","","",""
"categorize-image","57","229305","0.0-2.1-2.1-1.21","y5pkhqk0a5c6t0q","practice_no_cue","5f605d6e23a6c714d670ec5d","5f60e3c0a3b16e07647b2ff9","5f60eb803707fa000a774481","true","691.4650000003458","./Stimuli/ImagesPractice/SN220.jpg","76","","","","test","false","N + M","83","","SN","SN220.jpg","forget","old","22","2","practice_forget","right","","","",""
"html-keyboard-response","58","230006","0.0-2.1-2.1-0.22","y5pkhqk0a5c6t0q","practice_no_cue","5f605d6e23a6c714d670ec5d","5f60e3c0a3b16e07647b2ff9","5f60eb803707fa000a774481","false","null","<span style=""color: black; font-size: 48px"">N + M</span>","null","","","","resp_prompt","","","","","","","","","","","","","","","",""
"categorize-image","59","231246","0.0-2.1-2.1-1.22","y5pkhqk0a5c6t0q","practice_no_cue","5f605d6e23a6c714d670ec5d","5f60e3c0a3b16e07647b2ff9","5f60eb803707fa000a774481","true","737.6399999998393","./Stimuli/ImagesPractice/LN15.jpg","76","","","","test","false","N + M","83","","LN","LN15.jpg","forget","old","23","2","practice_forget","right","","","",""
"html-keyboard-response","60","231947","0.0-2.1-2.1-0.23","y5pkhqk0a5c6t0q","practice_no_cue","5f605d6e23a6c714d670ec5d","5f60e3c0a3b16e07647b2ff9","5f60eb803707fa000a774481","false","null","<span style=""color: black; font-size: 48px"">M + N</span>","null","","","","resp_prompt","","","","","","","","","","","","","","","",""
"categorize-image","61","233790","0.0-2.1-2.1-1.23","y5pkhqk0a5c6t0q","practice_no_cue","5f605d6e23a6c714d670ec5d","5f60e3c0a3b16e07647b2ff9","5f60eb803707fa000a774481","true","1340.5299999999406","./Stimuli/ImagesPractice/LM55.jpg","76","","","","test","false","M + N","83","","LM","LM55.jpg","forget","old","24","2","practice_forget","right","","","",""
"html-keyboard-response","62","234493","0.0-2.1-2.1-0.24","y5pkhqk0a5c6t0q","practice_no_cue","5f605d6e23a6c714d670ec5d","5f60e3c0a3b16e07647b2ff9","5f60eb803707fa000a774481","false","null","<span style=""color: black; font-size: 48px"">M + N</span>","null","","","","resp_prompt","","","","","","","","","","","","","","","",""
"categorize-image","63","236278","0.0-2.1-2.1-1.24","y5pkhqk0a5c6t0q","practice_no_cue","5f605d6e23a6c714d670ec5d","5f60e3c0a3b16e07647b2ff9","5f60eb803707fa000a774481","true","1282.4500000001572","./Stimuli/ImagesPractice/LN17.jpg","76","","","","test","true","M + N","76","","LN","LN17.jpg","remember","old","25","2","practice_forget","right","","","",""
"html-keyboard-response","64","236980","0.0-2.1-2.1-0.25","y5pkhqk0a5c6t0q","practice_no_cue","5f605d6e23a6c714d670ec5d","5f60e3c0a3b16e07647b2ff9","5f60eb803707fa000a774481","false","null","<span style=""color: black; font-size: 48px"">M + N</span>","null","","","","resp_prompt","","","","","","","","","","","","","","","",""
"categorize-image","65","238431","0.0-2.1-2.1-1.25","y5pkhqk0a5c6t0q","practice_no_cue","5f605d6e23a6c714d670ec5d","5f60e3c0a3b16e07647b2ff9","5f60eb803707fa000a774481","true","948.4400000001187","./Stimuli/ImagesPractice/LM239.jpg","83","","","","test","true","M + N","83","","LM","LM239.jpg","remember","old","26","2","practice_forget","left","","","",""
"html-keyboard-response","66","239133","0.0-2.1-2.1-0.26","y5pkhqk0a5c6t0q","practice_no_cue","5f605d6e23a6c714d670ec5d","5f60e3c0a3b16e07647b2ff9","5f60eb803707fa000a774481","false","null","<span style=""color: black; font-size: 48px"">N + M</span>","null","","","","resp_prompt","","","","","","","","","","","","","","","",""
"categorize-image","67","240296","0.0-2.1-2.1-1.26","y5pkhqk0a5c6t0q","practice_no_cue","5f605d6e23a6c714d670ec5d","5f60e3c0a3b16e07647b2ff9","5f60eb803707fa000a774481","true","658.9300000000512","./Stimuli/ImagesPractice/LN72.jpg","76","","","","test","false","N + M","83","","LN","LN72.jpg","forget","old","27","2","practice_forget","right","","","",""
"html-keyboard-response","68","240998","0.0-2.1-2.1-0.27","y5pkhqk0a5c6t0q","practice_no_cue","5f605d6e23a6c714d670ec5d","5f60e3c0a3b16e07647b2ff9","5f60eb803707fa000a774481","false","null","<span style=""color: black; font-size: 48px"">N + M</span>","null","","","","resp_prompt","","","","","","","","","","","","","","","",""
"categorize-image","69","242248","0.0-2.1-2.1-1.27","y5pkhqk0a5c6t0q","practice_no_cue","5f605d6e23a6c714d670ec5d","5f60e3c0a3b16e07647b2ff9","5f60eb803707fa000a774481","true","746.3050000001385","./Stimuli/ImagesPractice/SM98.jpg","83","","","","test","false","N + M","76","","SM","SM98.jpg","remember","old","28","2","practice_forget","left","","","",""
"html-keyboard-response","70","242949","0.0-2.1-2.1-0.28","y5pkhqk0a5c6t0q","practice_no_cue","5f605d6e23a6c714d670ec5d","5f60e3c0a3b16e07647b2ff9","5f60eb803707fa000a774481","false","null","<span style=""color: black; font-size: 48px"">M + N</span>","null","","","","resp_prompt","","","","","","","","","","","","","","","",""
"categorize-image","71","244063","0.0-2.1-2.1-1.28","y5pkhqk0a5c6t0q","practice_no_cue","5f605d6e23a6c714d670ec5d","5f60e3c0a3b16e07647b2ff9","5f60eb803707fa000a774481","true","610.9949999999953","./Stimuli/ImagesPractice/SN205.jpg","76","","","","test","true","M + N","76","","SN","SN205.jpg","forget","old","29","2","practice_forget","right","","","",""
"html-keyboard-response","72","244764","0.0-2.1-2.1-0.29","y5pkhqk0a5c6t0q","practice_no_cue","5f605d6e23a6c714d670ec5d","5f60e3c0a3b16e07647b2ff9","5f60eb803707fa000a774481","false","null","<span style=""color: black; font-size: 48px"">M + N</span>","null","","","","resp_prompt","","","","","","","","","","","","","","","",""
"categorize-image","73","245958","0.0-2.1-2.1-1.29","y5pkhqk0a5c6t0q","practice_no_cue","5f605d6e23a6c714d670ec5d","5f60e3c0a3b16e07647b2ff9","5f60eb803707fa000a774481","true","692.1400000001013","./Stimuli/ImagesPractice/SM61.jpg","83","","","","test","true","M + N","83","","SM","SM61.jpg","forget","old","30","2","practice_forget","left","","","",""
"html-keyboard-response","74","246660","0.0-2.1-2.1-0.30","y5pkhqk0a5c6t0q","practice_no_cue","5f605d6e23a6c714d670ec5d","5f60e3c0a3b16e07647b2ff9","5f60eb803707fa000a774481","false","null","<span style=""color: black; font-size: 48px"">M + N</span>","null","","","","resp_prompt","","","","","","","","","","","","","","","",""
"categorize-image","75","248136","0.0-2.1-2.1-1.30","y5pkhqk0a5c6t0q","practice_no_cue","5f605d6e23a6c714d670ec5d","5f60e3c0a3b16e07647b2ff9","5f60eb803707fa000a774481","true","971.7200000004668","./Stimuli/ImagesPractice/SM37.jpg","83","","","","test","true","M + N","83","","SM","SM37.jpg","remember","old","31","2","practice_forget","left","","","",""
"html-keyboard-response","76","248838","0.0-2.1-2.1-0.31","y5pkhqk0a5c6t0q","practice_no_cue","5f605d6e23a6c714d670ec5d","5f60e3c0a3b16e07647b2ff9","5f60eb803707fa000a774481","false","null","<span style=""color: black; font-size: 48px"">N + M</span>","null","","","","resp_prompt","","","","","","","","","","","","","","","",""
"categorize-image","77","250808","0.0-2.1-2.1-1.31","y5pkhqk0a5c6t0q","practice_no_cue","5f605d6e23a6c714d670ec5d","5f60e3c0a3b16e07647b2ff9","5f60eb803707fa000a774481","true","1467.4899999999907","./Stimuli/ImagesPractice/LM147.jpg","83","","","","test","false","N + M","76","","LM","LM147.jpg","remember","old","32","2","practice_forget","left","","","",""
"html-keyboard-response","78","252699","0.0-2.1-3.1","y5pkhqk0a5c6t0q","break","5f605d6e23a6c714d670ec5d","5f60e3c0a3b16e07647b2ff9","5f60eb803707fa000a774481","false","1885.5299999995623","<p style='font-size: 32px;'>Break</><br><br><br><br><br><p style='font-size: 24px;'>In the last block, you committed 7 errors and did not respond in time on 0 trials.
</p><p style='font-size: 24px;'>Try to respond as fast and accurately as possible in the next block as well! </p><p style='font-size: 24px;'>Press SPACE to continue.</p>","32","","","","","","","","","","","","","","","","","","","",""
"html-keyboard-response","79","254786","0.0-2.1-4.1","y5pkhqk0a5c6t0q","instructions","5f605d6e23a6c714d670ec5d","5f60e3c0a3b16e07647b2ff9","5f60eb803707fa000a774481","false","2085.2750000003725","<div align=left> Great!<br><br>Are you ready to continue?<br><br>If you want to reread the instructions and redo the practice trials, <br>please press „Z“. <br><br>Press SPACE to CONTINUE with the experiment when you are ready. </div>","90","","","","","","","","","","","","","","","","","","","",""
"html-keyboard-response","80","255570","0.0-2.2-0.2","y5pkhqk0a5c6t0q","instructions","5f605d6e23a6c714d670ec5d","5f60e3c0a3b16e07647b2ff9","5f60eb803707fa000a774481","false","782.6549999999697","<div align=justify>You will classify the objects using the <strong>'S'</strong> and the <strong>'L'</strong> keys on your keyboard.<br>For doing so, please place your <strong>left index finger</strong> on the <strong>'S'</strong> key and place your <strong>right index finger</strong> on the <strong>'L'</strong> key. <br><br> Each trial starts with an instruction, indicating which key ('S'/'L') you need to press to classify <br>the object as mechanical (letter M) or non-mechanical (letter N).<br>The instruction <strong>M + N</strong> indicates that, in the current trial, by pressing the left key ('S') you classify the displayed object as mechanical (M) <br> and by pressing the right key ('L') you classify the object as non-mechanical (N). <br>The instruction <strong>N + M</strong> on the other hand indicates that by pressing the left key ('S') you classify the displayed object as non-mechanical (N) <br> and by pressing the right key ('L') you classify the object as mechanical (M). <br><br>Please press the key corresponding to the correct classification as fast as possible as soon as the object is displayed and try to avoid making mistakes.<br>If you do not respond within a 2 second window, a corresponding feedback will be displayed and the next trial will start.<br> The experiment is divided into multiple blocks to give you the opportunity to take a break after each block. <br>First, you can now practice this task. <br><br>Please place your <strong>LEFT INDEX FINGER</strong> on the 'S' key and your <strong>RIGHT INDEX FINGER</strong> on the 'L' key now. <br><br>Press SPACE to continue.</div>","32","","","","","","","","","","","","","","","","","","","",""
"html-keyboard-response","81","256377","0.0-2.2-1.2","y5pkhqk0a5c6t0q","instructions","5f605d6e23a6c714d670ec5d","5f60e3c0a3b16e07647b2ff9","5f60eb803707fa000a774481","false","806.6099999996368","<div align=left> You will now have time to practice this task.<br><br>Remember: <br> <br><li>Please place your index fingers on the <strong>'S'</strong> and <strong>'L'</strong> keys <br>to respond as fast and accurately as possible.</li><li>Every picture can be classified as either mechanical or non-mechanical.</li><li>If you do not respond in time or commit an error, you will receive a corresponding feedback. </li><li> Please try to respond as <strong> fast </strong> and as <strong> accurately as possible </strong> .<br><li>To ensure optimal results, please minimize distractions and stay focused. </li><br><br>Press SPACE to continue.</div>","32","","","","","","","","","","","","","","","","","","","",""
"html-keyboard-response","82","257079","0.0-2.2-2.2-0.32","y5pkhqk0a5c6t0q","practice_no_cue","5f605d6e23a6c714d670ec5d","5f60e3c0a3b16e07647b2ff9","5f60eb803707fa000a774481","false","null","<span style=""color: black; font-size: 48px"">M + N</span>","null","","","","resp_prompt","","","","","","","","","","","","","","","",""
"categorize-image","83","258575","0.0-2.2-2.2-1.32","y5pkhqk0a5c6t0q","practice_no_cue","5f605d6e23a6c714d670ec5d","5f60e3c0a3b16e07647b2ff9","5f60eb803707fa000a774481","true","992.8749999998836","./Stimuli/ImagesPractice/LM230.jpg","83","","","","test","true","M + N","83","","LM","LM230.jpg","forget","old","33","3","practice_forget","left","","","",""
"html-keyboard-response","84","259276","0.0-2.2-2.2-0.33","y5pkhqk0a5c6t0q","practice_no_cue","5f605d6e23a6c714d670ec5d","5f60e3c0a3b16e07647b2ff9","5f60eb803707fa000a774481","false","null","<span style=""color: black; font-size: 48px"">N + M</span>","null","","","","resp_prompt","","","","","","","","","","","","","","","",""
"categorize-image","85","260407","0.0-2.2-2.2-1.33","y5pkhqk0a5c6t0q","practice_no_cue","5f605d6e23a6c714d670ec5d","5f60e3c0a3b16e07647b2ff9","5f60eb803707fa000a774481","true","627.9000000004307","./Stimuli/ImagesPractice/LM147.jpg","83","","","","test","false","N + M","76","","LM","LM147.jpg","remember","old","34","3","practice_forget","left","","","",""
"html-keyboard-response","86","261109","0.0-2.2-2.2-0.34","y5pkhqk0a5c6t0q","practice_no_cue","5f605d6e23a6c714d670ec5d","5f60e3c0a3b16e07647b2ff9","5f60eb803707fa000a774481","false","null","<span style=""color: black; font-size: 48px"">N + M</span>","null","","","","resp_prompt","","","","","","","","","","","","","","","",""
"categorize-image","87","262224","0.0-2.2-2.2-1.34","y5pkhqk0a5c6t0q","practice_no_cue","5f605d6e23a6c714d670ec5d","5f60e3c0a3b16e07647b2ff9","5f60eb803707fa000a774481","true","611.3599999998696","./Stimuli/ImagesPractice/LM143.jpg","83","","","","test","false","N + M","76","","LM","LM143.jpg","remember","old","35","3","practice_forget","left","","","",""
"html-keyboard-response","88","262926","0.0-2.2-2.2-0.35","y5pkhqk0a5c6t0q","practice_no_cue","5f605d6e23a6c714d670ec5d","5f60e3c0a3b16e07647b2ff9","5f60eb803707fa000a774481","false","null","<span style=""color: black; font-size: 48px"">M + N</span>","null","","","","resp_prompt","","","","","","","","","","","","","","","",""
"categorize-image","89","263431","0.0-2.2-2.2-1.35","y5pkhqk0a5c6t0q","practice_no_cue","5f605d6e23a6c714d670ec5d","5f60e3c0a3b16e07647b2ff9","5f60eb803707fa000a774481","true","2.9649999996763654","./Stimuli/ImagesPractice/LM239.jpg","83","","","","test","true","M + N","83","","LM","LM239.jpg","remember","old","36","3","practice_forget","left","","","",""
"html-keyboard-response","90","264133","0.0-2.2-2.2-0.36","y5pkhqk0a5c6t0q","practice_no_cue","5f605d6e23a6c714d670ec5d","5f60e3c0a3b16e07647b2ff9","5f60eb803707fa000a774481","false","null","<span style=""color: black; font-size: 48px"">M + N</span>","null","","","","resp_prompt","","","","","","","","","","","","","","","",""
"categorize-image","91","264751","0.0-2.2-2.2-1.36","y5pkhqk0a5c6t0q","practice_no_cue","5f605d6e23a6c714d670ec5d","5f60e3c0a3b16e07647b2ff9","5f60eb803707fa000a774481","true","114.47499999939464","./Stimuli/ImagesPractice/SM61.jpg","83","","","","test","true","M + N","83","","SM","SM61.jpg","forget","old","37","3","practice_forget","left","","","",""
"html-keyboard-response","92","265453","0.0-2.2-2.2-0.37","y5pkhqk0a5c6t0q","practice_no_cue","5f605d6e23a6c714d670ec5d","5f60e3c0a3b16e07647b2ff9","5f60eb803707fa000a774481","false","null","<span style=""color: black; font-size: 48px"">M + N</span>","null","","","","resp_prompt","","","","","","","","","","","","","","","",""
"categorize-image","93","266760","0.0-2.2-2.2-1.37","y5pkhqk0a5c6t0q","practice_no_cue","5f605d6e23a6c714d670ec5d","5f60e3c0a3b16e07647b2ff9","5f60eb803707fa000a774481","true","802.8349999994971","./Stimuli/ImagesPractice/LM55.jpg","83","","","","test","true","M + N","83","","LM","LM55.jpg","forget","old","38","3","practice_forget","left","","","",""
"html-keyboard-response","94","267461","0.0-2.2-2.2-0.38","y5pkhqk0a5c6t0q","practice_no_cue","5f605d6e23a6c714d670ec5d","5f60e3c0a3b16e07647b2ff9","5f60eb803707fa000a774481","false","null","<span style=""color: black; font-size: 48px"">N + M</span>","null","","","","resp_prompt","","","","","","","","","","","","","","","",""
"categorize-image","95","269207","0.0-2.2-2.2-1.38","y5pkhqk0a5c6t0q","practice_no_cue","5f605d6e23a6c714d670ec5d","5f60e3c0a3b16e07647b2ff9","5f60eb803707fa000a774481","true","1242.6199999999953","./Stimuli/ImagesPractice/SM98.jpg","83","","","","test","false","N + M","76","","SM","SM98.jpg","remember","old","39","3","practice_forget","left","","","",""
"html-keyboard-response","96","269909","0.0-2.2-2.2-0.39","y5pkhqk0a5c6t0q","practice_no_cue","5f605d6e23a6c714d670ec5d","5f60e3c0a3b16e07647b2ff9","5f60eb803707fa000a774481","false","null","<span style=""color: black; font-size: 48px"">M + N</span>","null","","","","resp_prompt","","","","","","","","","","","","","","","",""
"categorize-image","97","271039","0.0-2.2-2.2-1.39","y5pkhqk0a5c6t0q","practice_no_cue","5f605d6e23a6c714d670ec5d","5f60e3c0a3b16e07647b2ff9","5f60eb803707fa000a774481","true","626.7400000005728","./Stimuli/ImagesPractice/SN205.jpg","76","","","","test","true","M + N","76","","SN","SN205.jpg","forget","old","40","3","practice_forget","right","","","",""
"html-keyboard-response","98","271741","0.0-2.2-2.2-0.40","y5pkhqk0a5c6t0q","practice_no_cue","5f605d6e23a6c714d670ec5d","5f60e3c0a3b16e07647b2ff9","5f60eb803707fa000a774481","false","null","<span style=""color: black; font-size: 48px"">M + N</span>","null","","","","resp_prompt","","","","","","","","","","","","","","","",""
"categorize-image","99","272462","0.0-2.2-2.2-1.40","y5pkhqk0a5c6t0q","practice_no_cue","5f605d6e23a6c714d670ec5d","5f60e3c0a3b16e07647b2ff9","5f60eb803707fa000a774481","true","218.95500000024913","./Stimuli/ImagesPractice/SM37.jpg","83","","","","test","true","M + N","83","","SM","SM37.jpg","remember","old","41","3","practice_forget","left","","","",""
"html-keyboard-response","100","273164","0.0-2.2-2.2-0.41","y5pkhqk0a5c6t0q","practice_no_cue","5f605d6e23a6c714d670ec5d","5f60e3c0a3b16e07647b2ff9","5f60eb803707fa000a774481","false","null","<span style=""color: black; font-size: 48px"">M + N</span>","null","","","","resp_prompt","","","","","","","","","","","","","","","",""
"categorize-image","101","274527","0.0-2.2-2.2-1.41","y5pkhqk0a5c6t0q","practice_no_cue","5f605d6e23a6c714d670ec5d","5f60e3c0a3b16e07647b2ff9","5f60eb803707fa000a774481","true","859.9799999992829","./Stimuli/ImagesPractice/SN75.jpg","76","","","","test","true","M + N","76","","SN","SN75.jpg","remember","old","42","3","practice_forget","right","","","",""
"html-keyboard-response","102","275229","0.0-2.2-2.2-0.42","y5pkhqk0a5c6t0q","practice_no_cue","5f605d6e23a6c714d670ec5d","5f60e3c0a3b16e07647b2ff9","5f60eb803707fa000a774481","false","null","<span style=""color: black; font-size: 48px"">N + M</span>","null","","","","resp_prompt","","","","","","","","","","","","","","","",""
"categorize-image","103","276334","0.0-2.2-2.2-1.42","y5pkhqk0a5c6t0q","practice_no_cue","5f605d6e23a6c714d670ec5d","5f60e3c0a3b16e07647b2ff9","5f60eb803707fa000a774481","true","603.3099999994738","./Stimuli/ImagesPractice/LN15.jpg","76","","","","test","false","N + M","83","","LN","LN15.jpg","forget","old","43","3","practice_forget","right","","","",""
"html-keyboard-response","104","277036","0.0-2.2-2.2-0.43","y5pkhqk0a5c6t0q","practice_no_cue","5f605d6e23a6c714d670ec5d","5f60e3c0a3b16e07647b2ff9","5f60eb803707fa000a774481","false","null","<span style=""color: black; font-size: 48px"">N + M</span>","null","","","","resp_prompt","","","","","","","","","","","","","","","",""
"categorize-image","105","278215","0.0-2.2-2.2-1.43","y5pkhqk0a5c6t0q","practice_no_cue","5f605d6e23a6c714d670ec5d","5f60e3c0a3b16e07647b2ff9","5f60eb803707fa000a774481","true","676.1599999999744","./Stimuli/ImagesPractice/SN222.jpg","83","","","","test","true","N + M","83","","SN","SN222.jpg","forget","old","44","3","practice_forget","left","","","",""
"html-keyboard-response","106","278917","0.0-2.2-2.2-0.44","y5pkhqk0a5c6t0q","practice_no_cue","5f605d6e23a6c714d670ec5d","5f60e3c0a3b16e07647b2ff9","5f60eb803707fa000a774481","false","null","<span style=""color: black; font-size: 48px"">N + M</span>","null","","","","resp_prompt","","","","","","","","","","","","","","","",""
"categorize-image","107","279609","0.0-2.2-2.2-1.44","y5pkhqk0a5c6t0q","practice_no_cue","5f605d6e23a6c714d670ec5d","5f60e3c0a3b16e07647b2ff9","5f60eb803707fa000a774481","true","188.23000000062166","./Stimuli/ImagesPractice/LN109.jpg","83","","","","test","true","N + M","83","","LN","LN109.jpg","remember","old","45","3","practice_forget","left","","","",""
"html-keyboard-response","108","280311","0.0-2.2-2.2-0.45","y5pkhqk0a5c6t0q","practice_no_cue","5f605d6e23a6c714d670ec5d","5f60e3c0a3b16e07647b2ff9","5f60eb803707fa000a774481","false","null","<span style=""color: black; font-size: 48px"">N + M</span>","null","","","","resp_prompt","","","","","","","","","","","","","","","",""
"categorize-image","109","281824","0.0-2.2-2.2-1.45","y5pkhqk0a5c6t0q","practice_no_cue","5f605d6e23a6c714d670ec5d","5f60e3c0a3b16e07647b2ff9","5f60eb803707fa000a774481","true","1010.3300000000745","./Stimuli/ImagesPractice/LN72.jpg","76","","","","test","false","N + M","83","","LN","LN72.jpg","forget","old","46","3","practice_forget","right","","","",""
"html-keyboard-response","110","282527","0.0-2.2-2.2-0.46","y5pkhqk0a5c6t0q","practice_no_cue","5f605d6e23a6c714d670ec5d","5f60e3c0a3b16e07647b2ff9","5f60eb803707fa000a774481","false","null","<span style=""color: black; font-size: 48px"">M + N</span>","null","","","","resp_prompt","","","","","","","","","","","","","","","",""
"categorize-image","111","283241","0.0-2.2-2.2-1.46","y5pkhqk0a5c6t0q","practice_no_cue","5f605d6e23a6c714d670ec5d","5f60e3c0a3b16e07647b2ff9","5f60eb803707fa000a774481","true","209.0749999997788","./Stimuli/ImagesPractice/LN17.jpg","83","","","","test","false","M + N","76","","LN","LN17.jpg","remember","old","47","3","practice_forget","left","","","",""
"html-keyboard-response","112","283943","0.0-2.2-2.2-0.47","y5pkhqk0a5c6t0q","practice_no_cue","5f605d6e23a6c714d670ec5d","5f60e3c0a3b16e07647b2ff9","5f60eb803707fa000a774481","false","null","<span style=""color: black; font-size: 48px"">N + M</span>","null","","","","resp_prompt","","","","","","","","","","","","","","","",""
"categorize-image","113","285087","0.0-2.2-2.2-1.47","y5pkhqk0a5c6t0q","practice_no_cue","5f605d6e23a6c714d670ec5d","5f60e3c0a3b16e07647b2ff9","5f60eb803707fa000a774481","true","641.2449999997625","./Stimuli/ImagesPractice/SN220.jpg","76","","","","test","false","N + M","83","","SN","SN220.jpg","forget","old","48","3","practice_forget","right","","","",""
"html-keyboard-response","114","286554","0.0-2.2-3.2","y5pkhqk0a5c6t0q","break","5f605d6e23a6c714d670ec5d","5f60e3c0a3b16e07647b2ff9","5f60eb803707fa000a774481","false","1465.7900000001537","<p style='font-size: 32px;'>Break</><br><br><br><br><br><p style='font-size: 24px;'>In the last block, you committed 7 errors and did not respond in time on 0 trials.
</p><p style='font-size: 24px;'>Try to respond as fast and accurately as possible in the next block as well! </p><p style='font-size: 24px;'>Press SPACE to continue.</p>","32","","","","","","","","","","","","","","","","","","","",""
"html-keyboard-response","115","288770","0.0-2.2-4.2","y5pkhqk0a5c6t0q","instructions","5f605d6e23a6c714d670ec5d","5f60e3c0a3b16e07647b2ff9","5f60eb803707fa000a774481","false","2215.005000000063","<div align=left> Great!<br><br>Are you ready to continue?<br><br>If you want to reread the instructions and redo the practice trials, <br>please press „Z“. <br><br>Press SPACE to CONTINUE with the experiment when you are ready. </div>","32","","","","","","","","","","","","","","","","","","","",""
"html-keyboard-response","116","303707","0.0-3.0-0.0","y5pkhqk0a5c6t0q","instructions","5f605d6e23a6c714d670ec5d","5f60e3c0a3b16e07647b2ff9","5f60eb803707fa000a774481","false","14935.28000000061","<div align=left>Great!<br> <strong>Attention</strong>! You will now receive a second, additional task! <br><br>To this point it was you <strong>first task</strong> to correctly <strong>classify objects</strong>. <br><br>As mentioned in the beginning, we aim to examine how well humans can remember previously learned information.<br>We would like to find out whether our memory improves if we only remember information that is relevant to us. <br><br>Therefore, your <strong>second task</strong> will be to <strong>remember</strong> the pictures you are to categorize. <br> After the learning phase, there will be a memory test phase, in which you will be asked to indicate whether you have seen a picture before or not. <br>Some, but not all pictures shown in the learning phase will appear in the memory test phase.<br>After classifying a picture, you will be told whether you should remember it for the memory test phase or not. <br>Thus, some pictures can be forgotten, whereas others have to be remembered. <br><br>Note: From now on, feedback will only be displayed if you responded incorrectly or not in time.<br><br>Press SPACE to continue.</div>","32","","","","","","","","","","","","","","","","","","","",""
"html-keyboard-response","117","324371","0.0-3.0-1.0","y5pkhqk0a5c6t0q","instructions","5f605d6e23a6c714d670ec5d","5f60e3c0a3b16e07647b2ff9","5f60eb803707fa000a774481","false","20662.454999999667","<div align=left>In the following part, you will thus have to remember only some pictures. <br>Immediately after seeing and classifying the picture, a symbol will be displayed, indicating whether you should remember or forget the previous picture. <br><br>A <span style='color: dodgerblue; font-size: 28px'>O</span> indicates REMEMBER. That means, you have to remember this picture, because it will be tested later. <br><br>A <span style='color: darkorange; font-size:28px'>Ø</span> indicates FORGET. You do not have to remember this picture. <br><br> As you will have to remember a lot of pictures, it will be hard for you to remember all of them. <br>It will put you at an advantage if you instantly forget the pictures you are not asked to remember. <br> This will make it easier for you to remember the pictures that will be tested afterwards. <br><br>Press SPACE to continue.</div>","32","","","","","","","","","","","","","","","","","","","",""
"html-keyboard-response","118","334819","0.0-3.0-2.0","y5pkhqk0a5c6t0q","instructions","5f605d6e23a6c714d670ec5d","5f60e3c0a3b16e07647b2ff9","5f60eb803707fa000a774481","false","10446.68499999994","<div align=left> Now you have the chance to practice both tasks together.<br><br>Remember: <br> <br><li>Please place your index fingers on the <strong>'S'</strong> and <strong>'L'</strong> keys <br>to respond as fast and accurately as possible.</li><li>Every picture can be classified as either mechanical or non-mechanical.</li><li>If you do not respond in time or commit an error, you will receive a corresponding feedback. <br>Please try to respond as <strong> fast </strong> and as <strong> accurately as possible </strong>.</li><li> Please remember only the to-be-remembered <span style='color: dodgerblue; font-size: 28px'>O</span> pictures. <br></li><li> Please minimize distractions and stay focused. </li><br><br>Press SPACE to START</div>","32","","","","","","","","","","","","","","","","","","","",""
"html-keyboard-response","119","335521","0.0-3.0-3.0-0.0","y5pkhqk0a5c6t0q","practice_cue","5f605d6e23a6c714d670ec5d","5f60e3c0a3b16e07647b2ff9","5f60eb803707fa000a774481","false","null","<span style=""color: black; font-size: 48px"">M + N</span>","null","","","","resp_prompt","","","","","","","","","","","","","","","",""
"categorize-image","120","336204","0.0-3.0-3.0-1.0","y5pkhqk0a5c6t0q","practice_cue","5f605d6e23a6c714d670ec5d","5f60e3c0a3b16e07647b2ff9","5f60eb803707fa000a774481","true","678.3649999997579","./Stimuli/ImagesPractice/SM37.jpg","76","","","","test","false","M + N","83","","SM","SM37.jpg","remember","old","49","4","practice_forget","right","","","",""
"html-keyboard-response","121","336707","0.0-3.0-3.0-2.0-0.0","y5pkhqk0a5c6t0q","practice_cue","5f605d6e23a6c714d670ec5d","5f60e3c0a3b16e07647b2ff9","5f60eb803707fa000a774481","false","null","<span style=""color: red; font-size: 48px"">Error!</span>","null","","","","feedback","","","","","","","","","","","","","","","",""
"html-keyboard-response","122","338710","0.0-3.0-3.0-3.0","y5pkhqk0a5c6t0q","practice_cue","5f605d6e23a6c714d670ec5d","5f60e3c0a3b16e07647b2ff9","5f60eb803707fa000a774481","false","null","<div style=""align-items: center; display: flex; color: dodgerblue; font-size: 90px""><b>o</b></div>","null","","","","forget_cue","","","","","","","","","","","","","","","",""
"html-keyboard-response","123","339411","0.0-3.0-3.0-0.1","y5pkhqk0a5c6t0q","practice_cue","5f605d6e23a6c714d670ec5d","5f60e3c0a3b16e07647b2ff9","5f60eb803707fa000a774481","false","null","<span style=""color: black; font-size: 48px"">N + M</span>","null","","","","resp_prompt","","","","","","","","","","","","","","","",""
"categorize-image","124","340140","0.0-3.0-3.0-1.1","y5pkhqk0a5c6t0q","practice_cue","5f605d6e23a6c714d670ec5d","5f60e3c0a3b16e07647b2ff9","5f60eb803707fa000a774481","true","725.6699999998091","./Stimuli/ImagesPractice/LM143.jpg","76","","","","test","true","N + M","76","","LM","LM143.jpg","remember","old","50","4","practice_forget","right","","","",""
"html-keyboard-response","125","342142","0.0-3.0-3.0-3.1","y5pkhqk0a5c6t0q","practice_cue","5f605d6e23a6c714d670ec5d","5f60e3c0a3b16e07647b2ff9","5f60eb803707fa000a774481","false","null","<div style=""align-items: center; display: flex; color: dodgerblue; font-size: 90px""><b>o</b></div>","null","","","","forget_cue","","","","","","","","","","","","","","","",""
"html-keyboard-response","126","342844","0.0-3.0-3.0-0.2","y5pkhqk0a5c6t0q","practice_cue","5f605d6e23a6c714d670ec5d","5f60e3c0a3b16e07647b2ff9","5f60eb803707fa000a774481","false","null","<span style=""color: black; font-size: 48px"">M + N</span>","null","","","","resp_prompt","","","","","","","","","","","","","","","",""
"categorize-image","127","343492","0.0-3.0-3.0-1.2","y5pkhqk0a5c6t0q","practice_cue","5f605d6e23a6c714d670ec5d","5f60e3c0a3b16e07647b2ff9","5f60eb803707fa000a774481","true","643.9250000003376","./Stimuli/ImagesPractice/SM61.jpg","83","","","","test","true","M + N","83","","SM","SM61.jpg","forget","old","51","4","practice_forget","left","","","",""
"html-keyboard-response","128","345494","0.0-3.0-3.0-3.2","y5pkhqk0a5c6t0q","practice_cue","5f605d6e23a6c714d670ec5d","5f60e3c0a3b16e07647b2ff9","5f60eb803707fa000a774481","false","null","<div style=""align-items: center; display: flex; color: darkorange; font-size: 90px""><b>ø</b></div>","null","","","","forget_cue","","","","","","","","","","","","","","","",""
"html-keyboard-response","129","346196","0.0-3.0-3.0-0.3","y5pkhqk0a5c6t0q","practice_cue","5f605d6e23a6c714d670ec5d","5f60e3c0a3b16e07647b2ff9","5f60eb803707fa000a774481","false","null","<span style=""color: black; font-size: 48px"">M + N</span>","null","","","","resp_prompt","","","","","","","","","","","","","","","",""
"categorize-image","130","346796","0.0-3.0-3.0-1.3","y5pkhqk0a5c6t0q","practice_cue","5f605d6e23a6c714d670ec5d","5f60e3c0a3b16e07647b2ff9","5f60eb803707fa000a774481","true","596.8899999997811","./Stimuli/ImagesPractice/LN17.jpg","76","","","","test","true","M + N","76","","LN","LN17.jpg","remember","old","52","4","practice_forget","right","","","",""
"html-keyboard-response","131","348798","0.0-3.0-3.0-3.3","y5pkhqk0a5c6t0q","practice_cue","5f605d6e23a6c714d670ec5d","5f60e3c0a3b16e07647b2ff9","5f60eb803707fa000a774481","false","null","<div style=""align-items: center; display: flex; color: dodgerblue; font-size: 90px""><b>o</b></div>","null","","","","forget_cue","","","","","","","","","","","","","","","",""
"html-keyboard-response","132","349501","0.0-3.0-3.0-0.4","y5pkhqk0a5c6t0q","practice_cue","5f605d6e23a6c714d670ec5d","5f60e3c0a3b16e07647b2ff9","5f60eb803707fa000a774481","false","null","<span style=""color: black; font-size: 48px"">N + M</span>","null","","","","resp_prompt","","","","","","","","","","","","","","","",""
"categorize-image","133","350212","0.0-3.0-3.0-1.4","y5pkhqk0a5c6t0q","practice_cue","5f605d6e23a6c714d670ec5d","5f60e3c0a3b16e07647b2ff9","5f60eb803707fa000a774481","true","707.2299999999814","./Stimuli/ImagesPractice/SN222.jpg","76","","","","test","false","N + M","83","","SN","SN222.jpg","forget","old","53","4","practice_forget","right","","","",""
"html-keyboard-response","134","350714","0.0-3.0-3.0-2.4-0.4","y5pkhqk0a5c6t0q","practice_cue","5f605d6e23a6c714d670ec5d","5f60e3c0a3b16e07647b2ff9","5f60eb803707fa000a774481","false","null","<span style=""color: red; font-size: 48px"">Error!</span>","null","","","","feedback","","","","","","","","","","","","","","","",""
"html-keyboard-response","135","352716","0.0-3.0-3.0-3.4","y5pkhqk0a5c6t0q","practice_cue","5f605d6e23a6c714d670ec5d","5f60e3c0a3b16e07647b2ff9","5f60eb803707fa000a774481","false","null","<div style=""align-items: center; display: flex; color: darkorange; font-size: 90px""><b>ø</b></div>","null","","","","forget_cue","","","","","","","","","","","","","","","",""
"html-keyboard-response","136","353418","0.0-3.0-3.0-0.5","y5pkhqk0a5c6t0q","practice_cue","5f605d6e23a6c714d670ec5d","5f60e3c0a3b16e07647b2ff9","5f60eb803707fa000a774481","false","null","<span style=""color: black; font-size: 48px"">N + M</span>","null","","","","resp_prompt","","","","","","","","","","","","","","","",""
"categorize-image","137","354404","0.0-3.0-3.0-1.5","y5pkhqk0a5c6t0q","practice_cue","5f605d6e23a6c714d670ec5d","5f60e3c0a3b16e07647b2ff9","5f60eb803707fa000a774481","true","982.3049999995274","./Stimuli/ImagesPractice/LN15.jpg","83","","","","test","true","N + M","83","","LN","LN15.jpg","forget","old","54","4","practice_forget","left","","","",""
"html-keyboard-response","138","356406","0.0-3.0-3.0-3.5","y5pkhqk0a5c6t0q","practice_cue","5f605d6e23a6c714d670ec5d","5f60e3c0a3b16e07647b2ff9","5f60eb803707fa000a774481","false","null","<div style=""align-items: center; display: flex; color: darkorange; font-size: 90px""><b>ø</b></div>","null","","","","forget_cue","","","","","","","","","","","","","","","",""
"html-keyboard-response","139","357108","0.0-3.0-3.0-0.6","y5pkhqk0a5c6t0q","practice_cue","5f605d6e23a6c714d670ec5d","5f60e3c0a3b16e07647b2ff9","5f60eb803707fa000a774481","false","null","<span style=""color: black; font-size: 48px"">N + M</span>","null","","","","resp_prompt","","","","","","","","","","","","","","","",""
"categorize-image","140","357724","0.0-3.0-3.0-1.6","y5pkhqk0a5c6t0q","practice_cue","5f605d6e23a6c714d670ec5d","5f60e3c0a3b16e07647b2ff9","5f60eb803707fa000a774481","true","611.4200000002165","./Stimuli/ImagesPractice/LN109.jpg","83","","","","test","true","N + M","83","","LN","LN109.jpg","remember","old","55","4","practice_forget","left","","","",""
"html-keyboard-response","141","359725","0.0-3.0-3.0-3.6","y5pkhqk0a5c6t0q","practice_cue","5f605d6e23a6c714d670ec5d","5f60e3c0a3b16e07647b2ff9","5f60eb803707fa000a774481","false","null","<div style=""align-items: center; display: flex; color: dodgerblue; font-size: 90px""><b>o</b></div>","null","","","","forget_cue","","","","","","","","","","","","","","","",""
"html-keyboard-response","142","360428","0.0-3.0-3.0-0.7","y5pkhqk0a5c6t0q","practice_cue","5f605d6e23a6c714d670ec5d","5f60e3c0a3b16e07647b2ff9","5f60eb803707fa000a774481","false","null","<span style=""color: black; font-size: 48px"">N + M</span>","null","","","","resp_prompt","","","","","","","","","","","","","","","",""
"categorize-image","143","361252","0.0-3.0-3.0-1.7","y5pkhqk0a5c6t0q","practice_cue","5f605d6e23a6c714d670ec5d","5f60e3c0a3b16e07647b2ff9","5f60eb803707fa000a774481","true","821.2849999999744","./Stimuli/ImagesPractice/LM147.jpg","83","","","","test","false","N + M","76","","LM","LM147.jpg","remember","old","56","4","practice_forget","left","","","",""
"html-keyboard-response","144","361756","0.0-3.0-3.0-2.7-0.7","y5pkhqk0a5c6t0q","practice_cue","5f605d6e23a6c714d670ec5d","5f60e3c0a3b16e07647b2ff9","5f60eb803707fa000a774481","false","null","<span style=""color: red; font-size: 48px"">Error!</span>","null","","","","feedback","","","","","","","","","","","","","","","",""
"html-keyboard-response","145","363759","0.0-3.0-3.0-3.7","y5pkhqk0a5c6t0q","practice_cue","5f605d6e23a6c714d670ec5d","5f60e3c0a3b16e07647b2ff9","5f60eb803707fa000a774481","false","null","<div style=""align-items: center; display: flex; color: dodgerblue; font-size: 90px""><b>o</b></div>","null","","","","forget_cue","","","","","","","","","","","","","","","",""
"html-keyboard-response","146","364461","0.0-3.0-3.0-0.8","y5pkhqk0a5c6t0q","practice_cue","5f605d6e23a6c714d670ec5d","5f60e3c0a3b16e07647b2ff9","5f60eb803707fa000a774481","false","null","<span style=""color: black; font-size: 48px"">M + N</span>","null","","","","resp_prompt","","","","","","","","","","","","","","","",""
"categorize-image","147","365053","0.0-3.0-3.0-1.8","y5pkhqk0a5c6t0q","practice_cue","5f605d6e23a6c714d670ec5d","5f60e3c0a3b16e07647b2ff9","5f60eb803707fa000a774481","true","587.3950000004843","./Stimuli/ImagesPractice/SN75.jpg","76","","","","test","true","M + N","76","","SN","SN75.jpg","remember","old","57","4","practice_forget","right","","","",""
"html-keyboard-response","148","367055","0.0-3.0-3.0-3.8","y5pkhqk0a5c6t0q","practice_cue","5f605d6e23a6c714d670ec5d","5f60e3c0a3b16e07647b2ff9","5f60eb803707fa000a774481","false","null","<div style=""align-items: center; display: flex; color: dodgerblue; font-size: 90px""><b>o</b></div>","null","","","","forget_cue","","","","","","","","","","","","","","","",""
"html-keyboard-response","149","367756","0.0-3.0-3.0-0.9","y5pkhqk0a5c6t0q","practice_cue","5f605d6e23a6c714d670ec5d","5f60e3c0a3b16e07647b2ff9","5f60eb803707fa000a774481","false","null","<span style=""color: black; font-size: 48px"">M + N</span>","null","","","","resp_prompt","","","","","","","","","","","","","","","",""
"categorize-image","150","368292","0.0-3.0-3.0-1.9","y5pkhqk0a5c6t0q","practice_cue","5f605d6e23a6c714d670ec5d","5f60e3c0a3b16e07647b2ff9","5f60eb803707fa000a774481","true","531.4200000002165","./Stimuli/ImagesPractice/SN205.jpg","76","","","","test","true","M + N","76","","SN","SN205.jpg","forget","old","58","4","practice_forget","right","","","",""
"html-keyboard-response","151","370295","0.0-3.0-3.0-3.9","y5pkhqk0a5c6t0q","practice_cue","5f605d6e23a6c714d670ec5d","5f60e3c0a3b16e07647b2ff9","5f60eb803707fa000a774481","false","null","<div style=""align-items: center; display: flex; color: darkorange; font-size: 90px""><b>ø</b></div>","null","","","","forget_cue","","","","","","","","","","","","","","","",""
"html-keyboard-response","152","370996","0.0-3.0-3.0-0.10","y5pkhqk0a5c6t0q","practice_cue","5f605d6e23a6c714d670ec5d","5f60e3c0a3b16e07647b2ff9","5f60eb803707fa000a774481","false","null","<span style=""color: black; font-size: 48px"">N + M</span>","null","","","","resp_prompt","","","","","","","","","","","","","","","",""
"categorize-image","153","371812","0.0-3.0-3.0-1.10","y5pkhqk0a5c6t0q","practice_cue","5f605d6e23a6c714d670ec5d","5f60e3c0a3b16e07647b2ff9","5f60eb803707fa000a774481","true","811.510000000475","./Stimuli/ImagesPractice/SM98.jpg","83","","","","test","false","N + M","76","","SM","SM98.jpg","remember","old","59","4","practice_forget","left","","","",""
"html-keyboard-response","154","372315","0.0-3.0-3.0-2.10-0.10","y5pkhqk0a5c6t0q","practice_cue","5f605d6e23a6c714d670ec5d","5f60e3c0a3b16e07647b2ff9","5f60eb803707fa000a774481","false","null","<span style=""color: red; font-size: 48px"">Error!</span>","null","","","","feedback","","","","","","","","","","","","","","","",""
"html-keyboard-response","155","374317","0.0-3.0-3.0-3.10","y5pkhqk0a5c6t0q","practice_cue","5f605d6e23a6c714d670ec5d","5f60e3c0a3b16e07647b2ff9","5f60eb803707fa000a774481","false","null","<div style=""align-items: center; display: flex; color: dodgerblue; font-size: 90px""><b>o</b></div>","null","","","","forget_cue","","","","","","","","","","","","","","","",""
"html-keyboard-response","156","375019","0.0-3.0-3.0-0.11","y5pkhqk0a5c6t0q","practice_cue","5f605d6e23a6c714d670ec5d","5f60e3c0a3b16e07647b2ff9","5f60eb803707fa000a774481","false","null","<span style=""color: black; font-size: 48px"">M + N</span>","null","","","","resp_prompt","","","","","","","","","","","","","","","",""
"categorize-image","157","375508","0.0-3.0-3.0-1.11","y5pkhqk0a5c6t0q","practice_cue","5f605d6e23a6c714d670ec5d","5f60e3c0a3b16e07647b2ff9","5f60eb803707fa000a774481","true","485.6699999999837","./Stimuli/ImagesPractice/LM230.jpg","76","","","","test","false","M + N","83","","LM","LM230.jpg","forget","old","60","4","practice_forget","right","","","",""
"html-keyboard-response","158","376010","0.0-3.0-3.0-2.11-0.11","y5pkhqk0a5c6t0q","practice_cue","5f605d6e23a6c714d670ec5d","5f60e3c0a3b16e07647b2ff9","5f60eb803707fa000a774481","false","null","<span style=""color: red; font-size: 48px"">Error!</span>","null","","","","feedback","","","","","","","","","","","","","","","",""
"html-keyboard-response","159","378011","0.0-3.0-3.0-3.11","y5pkhqk0a5c6t0q","practice_cue","5f605d6e23a6c714d670ec5d","5f60e3c0a3b16e07647b2ff9","5f60eb803707fa000a774481","false","null","<div style=""align-items: center; display: flex; color: darkorange; font-size: 90px""><b>ø</b></div>","null","","","","forget_cue","","","","","","","","","","","","","","","",""
"html-keyboard-response","160","378713","0.0-3.0-3.0-0.12","y5pkhqk0a5c6t0q","practice_cue","5f605d6e23a6c714d670ec5d","5f60e3c0a3b16e07647b2ff9","5f60eb803707fa000a774481","false","null","<span style=""color: black; font-size: 48px"">N + M</span>","null","","","","resp_prompt","","","","","","","","","","","","","","","",""
"categorize-image","161","379652","0.0-3.0-3.0-1.12","y5pkhqk0a5c6t0q","practice_cue","5f605d6e23a6c714d670ec5d","5f60e3c0a3b16e07647b2ff9","5f60eb803707fa000a774481","true","935.5649999997695","./Stimuli/ImagesPractice/LN72.jpg","83","","","","test","true","N + M","83","","LN","LN72.jpg","forget","old","61","4","practice_forget","left","","","",""
"html-keyboard-response","162","381654","0.0-3.0-3.0-3.12","y5pkhqk0a5c6t0q","practice_cue","5f605d6e23a6c714d670ec5d","5f60e3c0a3b16e07647b2ff9","5f60eb803707fa000a774481","false","null","<div style=""align-items: center; display: flex; color: darkorange; font-size: 90px""><b>ø</b></div>","null","","","","forget_cue","","","","","","","","","","","","","","","",""
"html-keyboard-response","163","382356","0.0-3.0-3.0-0.13","y5pkhqk0a5c6t0q","practice_cue","5f605d6e23a6c714d670ec5d","5f60e3c0a3b16e07647b2ff9","5f60eb803707fa000a774481","false","null","<span style=""color: black; font-size: 48px"">M + N</span>","null","","","","resp_prompt","","","","","","","","","","","","","","","",""
"categorize-image","164","383117","0.0-3.0-3.0-1.13","y5pkhqk0a5c6t0q","practice_cue","5f605d6e23a6c714d670ec5d","5f60e3c0a3b16e07647b2ff9","5f60eb803707fa000a774481","true","755.9700000001467","./Stimuli/ImagesPractice/LM239.jpg","83","","","","test","true","M + N","83","","LM","LM239.jpg","remember","old","62","4","practice_forget","left","","","",""
"html-keyboard-response","165","385119","0.0-3.0-3.0-3.13","y5pkhqk0a5c6t0q","practice_cue","5f605d6e23a6c714d670ec5d","5f60e3c0a3b16e07647b2ff9","5f60eb803707fa000a774481","false","null","<div style=""align-items: center; display: flex; color: dodgerblue; font-size: 90px""><b>o</b></div>","null","","","","forget_cue","","","","","","","","","","","","","","","",""
"html-keyboard-response","166","385821","0.0-3.0-3.0-0.14","y5pkhqk0a5c6t0q","practice_cue","5f605d6e23a6c714d670ec5d","5f60e3c0a3b16e07647b2ff9","5f60eb803707fa000a774481","false","null","<span style=""color: black; font-size: 48px"">M + N</span>","null","","","","resp_prompt","","","","","","","","","","","","","","","",""
"categorize-image","167","386540","0.0-3.0-3.0-1.14","y5pkhqk0a5c6t0q","practice_cue","5f605d6e23a6c714d670ec5d","5f60e3c0a3b16e07647b2ff9","5f60eb803707fa000a774481","true","714.9049999997951","./Stimuli/ImagesPractice/LM55.jpg","83","","","","test","true","M + N","83","","LM","LM55.jpg","forget","old","63","4","practice_forget","left","","","",""
"html-keyboard-response","168","388542","0.0-3.0-3.0-3.14","y5pkhqk0a5c6t0q","practice_cue","5f605d6e23a6c714d670ec5d","5f60e3c0a3b16e07647b2ff9","5f60eb803707fa000a774481","false","null","<div style=""align-items: center; display: flex; color: darkorange; font-size: 90px""><b>ø</b></div>","null","","","","forget_cue","","","","","","","","","","","","","","","",""
"html-keyboard-response","169","389244","0.0-3.0-3.0-0.15","y5pkhqk0a5c6t0q","practice_cue","5f605d6e23a6c714d670ec5d","5f60e3c0a3b16e07647b2ff9","5f60eb803707fa000a774481","false","null","<span style=""color: black; font-size: 48px"">N + M</span>","null","","","","resp_prompt","","","","","","","","","","","","","","","",""
"categorize-image","170","390276","0.0-3.0-3.0-1.15","y5pkhqk0a5c6t0q","practice_cue","5f605d6e23a6c714d670ec5d","5f60e3c0a3b16e07647b2ff9","5f60eb803707fa000a774481","true","1027.9899999995832","./Stimuli/ImagesPractice/SN220.jpg","83","","","","test","true","N + M","83","","SN","SN220.jpg","forget","old","64","4","practice_forget","left","","","",""
"html-keyboard-response","171","392278","0.0-3.0-3.0-3.15","y5pkhqk0a5c6t0q","practice_cue","5f605d6e23a6c714d670ec5d","5f60e3c0a3b16e07647b2ff9","5f60eb803707fa000a774481","false","null","<div style=""align-items: center; display: flex; color: darkorange; font-size: 90px""><b>ø</b></div>","null","","","","forget_cue","","","","","","","","","","","","","","","",""
"html-keyboard-response","172","397314","0.0-3.0-4.0","y5pkhqk0a5c6t0q","break","5f605d6e23a6c714d670ec5d","5f60e3c0a3b16e07647b2ff9","5f60eb803707fa000a774481","false","5034.154999999329","<p style='font-size: 32px;'>Break</><br><br><br><br><br><p style='font-size: 24px;'>In the last block, you committed 5 errors and did not respond in time on 0 trials.
</p><p style='font-size: 24px;'>Try to respond as fast and accurately as possible in the next block as well! </p><p style='font-size: 24px;'>Press SPACE to continue.</p>","32","","","","","","","","","","","","","","","","","","","",""
"html-keyboard-response","173","398250","0.0-3.0-5.0","y5pkhqk0a5c6t0q","instructions","5f605d6e23a6c714d670ec5d","5f60e3c0a3b16e07647b2ff9","5f60eb803707fa000a774481","false","934.8699999991222","<div align=left> Now, to practice, we kindly ask you to remember as many of the to-be-remembered pictures<br>of the previous learning phase as possible.<br><br>The pictures you were instructed to remember were the pictures followed by a <span style='color: dodgerblue; font-size: 28px'>O</span>.<br><br>In this memory test phase, you will also see some new pictures.<br>It is your task to remember whether you were presented with this specific picture in this study so far or not.<br>If you recognize an object (you have already seen it in this study), it is an OLD object. <br>If you do not recognize an object (you have NOT seen it in this study), it is a NEW object. <br><strong> Attention</strong>: As already mentioned, <span style='color: darkorange; font-size:28px'>Ø</span>-pictures will <strong>never</strong> appear in this memory test (neither as new objects). <br><br>Press SPACE to continue. </div>","32","","","","","","","","","","","","","","","","","","","",""
"html-keyboard-response","174","399243","0.0-3.0-6.0","y5pkhqk0a5c6t0q","instructions","5f605d6e23a6c714d670ec5d","5f60e3c0a3b16e07647b2ff9","5f60eb803707fa000a774481","false","991.0199999994948","<div align=left> M and N no longer will appear on the left/right of the fixation cross. <br>Instead there will be a note at the bottom of the left or right side  <br>indicating which key you should press for an old or new object:  <br> <br>Press the <strong>right</strong> key to classify an object as <strong>old</strong> and press the <strong>left</strong>, to classify an object as <strong>new</strong>.<br>Please classify the objects as new/old by again placing your index finger on the 'S' and 'L' keys <br>and press them accordingly.<br><br><strong>Old:</strong> This object has been presented before. <br><strong>New:</strong> This object has <strong>not</strong> been presented.<br><br>Now please put your right and left index fingers on the 'S' and 'L' keys of your keyboard. <br>Please respond as fast and as accurately as possible!<br><br>Press SPACE to continue. </div>","32","","","","","","","","","","","","","","","","","","","",""
"categorize-image","175","402456","0.0-3.0-7.0-0.0","y5pkhqk0a5c6t0q","practice_recog","5f605d6e23a6c714d670ec5d","5f60e3c0a3b16e07647b2ff9","5f60eb803707fa000a774481","true","2707.739999999816","./Stimuli/ImagesPractice/LN2.jpg","76","","","","test","false","","83","","LN","LN2.jpg","","new","65","5","practice_recog","right","","","",""
"categorize-image","176","403967","0.0-3.0-7.0-0.1","y5pkhqk0a5c6t0q","practice_recog","5f605d6e23a6c714d670ec5d","5f60e3c0a3b16e07647b2ff9","5f60eb803707fa000a774481","true","1007.5049999995972","./Stimuli/ImagesPractice/LN17.jpg","76","","","","test","true","","76","","LN","LN17.jpg","","old","66","5","practice_recog","right","","","",""
"categorize-image","177","405616","0.0-3.0-7.0-0.2","y5pkhqk0a5c6t0q","practice_recog","5f605d6e23a6c714d670ec5d","5f60e3c0a3b16e07647b2ff9","5f60eb803707fa000a774481","true","1144.5399999993388","./Stimuli/ImagesPractice/SN76.jpg","76","","","","test","false","","83","","SN","SN76.jpg","","new","67","5","practice_recog","right","","","",""
"categorize-image","178","406735","0.0-3.0-7.0-0.3","y5pkhqk0a5c6t0q","practice_recog","5f605d6e23a6c714d670ec5d","5f60e3c0a3b16e07647b2ff9","5f60eb803707fa000a774481","true","615.4800000003306","./Stimuli/ImagesPractice/LM239.jpg","83","","","","test","false","","76","","LM","LM239.jpg","","old","68","5","practice_recog","left","","","",""
"categorize-image","179","408094","0.0-3.0-7.0-0.4","y5pkhqk0a5c6t0q","practice_recog","5f605d6e23a6c714d670ec5d","5f60e3c0a3b16e07647b2ff9","5f60eb803707fa000a774481","true","856.0550000002258","./Stimuli/ImagesPractice/SN221.jpg","83","","","","test","true","","83","","SN","SN221.jpg","","new","69","5","practice_recog","left","","","",""
"categorize-image","180","409559","0.0-3.0-7.0-0.5","y5pkhqk0a5c6t0q","practice_recog","5f605d6e23a6c714d670ec5d","5f60e3c0a3b16e07647b2ff9","5f60eb803707fa000a774481","true","960.8799999996554","./Stimuli/ImagesPractice/LM224.jpg","83","","","","test","true","","83","","LM","LM224.jpg","","new","70","5","practice_recog","left","","","",""
"categorize-image","181","410841","0.0-3.0-7.0-0.6","y5pkhqk0a5c6t0q","practice_recog","5f605d6e23a6c714d670ec5d","5f60e3c0a3b16e07647b2ff9","5f60eb803707fa000a774481","true","776.9899999993504","./Stimuli/ImagesPractice/SM37.jpg","83","","","","test","false","","76","","SM","SM37.jpg","","old","71","5","practice_recog","left","","","",""
"categorize-image","182","412863","0.0-3.0-7.0-0.7","y5pkhqk0a5c6t0q","practice_recog","5f605d6e23a6c714d670ec5d","5f60e3c0a3b16e07647b2ff9","5f60eb803707fa000a774481","true","1518.804999999702","./Stimuli/ImagesPractice/LM147.jpg","76","","","","test","true","","76","","LM","LM147.jpg","","old","72","5","practice_recog","right","","","",""
"categorize-image","183","414222","0.0-3.0-7.0-0.8","y5pkhqk0a5c6t0q","practice_recog","5f605d6e23a6c714d670ec5d","5f60e3c0a3b16e07647b2ff9","5f60eb803707fa000a774481","true","855.7300000002142","./Stimuli/ImagesPractice/LN4.jpg","76","","","","test","false","","83","","LN","LN4.jpg","","new","73","5","practice_recog","right","","","",""
"categorize-image","184","416022","0.0-3.0-7.0-0.9","y5pkhqk0a5c6t0q","practice_recog","5f605d6e23a6c714d670ec5d","5f60e3c0a3b16e07647b2ff9","5f60eb803707fa000a774481","true","1296.8600000003935","./Stimuli/ImagesPractice/LM143.jpg","76","","","","test","true","","76","","LM","LM143.jpg","","old","74","5","practice_recog","right","","","",""
"categorize-image","185","417680","0.0-3.0-7.0-0.10","y5pkhqk0a5c6t0q","practice_recog","5f605d6e23a6c714d670ec5d","5f60e3c0a3b16e07647b2ff9","5f60eb803707fa000a774481","true","1152.8449999996228","./Stimuli/ImagesPractice/SM98.jpg","76","","","","test","true","","76","","SM","SM98.jpg","","old","75","5","practice_recog","right","","","",""
"categorize-image","186","419311","0.0-3.0-7.0-0.11","y5pkhqk0a5c6t0q","practice_recog","5f605d6e23a6c714d670ec5d","5f60e3c0a3b16e07647b2ff9","5f60eb803707fa000a774481","true","1128.7050000001327","./Stimuli/ImagesPractice/SN75.jpg","76","","","","test","true","","76","","SN","SN75.jpg","","old","76","5","practice_recog","right","","","",""
"categorize-image","187","420504","0.0-3.0-7.0-0.12","y5pkhqk0a5c6t0q","practice_recog","5f605d6e23a6c714d670ec5d","5f60e3c0a3b16e07647b2ff9","5f60eb803707fa000a774481","true","688.7949999999837","./Stimuli/ImagesPractice/SM35.jpg","76","","","","test","false","","83","","SM","SM35.jpg","","new","77","5","practice_recog","right","","","",""
"categorize-image","188","422136","0.0-3.0-7.0-0.13","y5pkhqk0a5c6t0q","practice_recog","5f605d6e23a6c714d670ec5d","5f60e3c0a3b16e07647b2ff9","5f60eb803707fa000a774481","true","1128.4150000000955","./Stimuli/ImagesPractice/SM97.jpg","76","","","","test","false","","83","","SM","SM97.jpg","","new","78","5","practice_recog","right","","","",""
"categorize-image","189","423502","0.0-3.0-7.0-0.14","y5pkhqk0a5c6t0q","practice_recog","5f605d6e23a6c714d670ec5d","5f60e3c0a3b16e07647b2ff9","5f60eb803707fa000a774481","true","863.2900000002119","./Stimuli/ImagesPractice/LN109.jpg","83","","","","test","false","","76","","LN","LN109.jpg","","old","79","5","practice_recog","left","","","",""
"categorize-image","190","424679","0.0-3.0-7.0-0.15","y5pkhqk0a5c6t0q","practice_recog","5f605d6e23a6c714d670ec5d","5f60e3c0a3b16e07647b2ff9","5f60eb803707fa000a774481","true","673.3100000001141","./Stimuli/ImagesPractice/SM62.jpg","76","","","","test","false","","83","","SM","SM62.jpg","","new","80","5","practice_recog","right","","","",""
"html-keyboard-response","191","430361","0.0-3.0-8.0","y5pkhqk0a5c6t0q","instructions","5f605d6e23a6c714d670ec5d","5f60e3c0a3b16e07647b2ff9","5f60eb803707fa000a774481","false","5678.409999999567","<div align=left> Great!<br><br>Are you ready to continue?<br>If you want to reread the instructions and redo the practice trials, please <br>press „Z“.<br><br>You can proceed when you are ready.<br><br>After the presentation of each object, you will receive an instruction whether to <br>remember or to forget the object.<br>We will test your memory of the following pictures only at the very end of <br>the experiment after all learning blocks are completed. <br><br>Press SPACE to CONTINUE when you are ready. </div>","32","","","","","","","","","","","","","","","","","","","",""
"html-keyboard-response","192","431218","0.0-4.0-0.0","y5pkhqk0a5c6t0q","instructions","5f605d6e23a6c714d670ec5d","5f60e3c0a3b16e07647b2ff9","5f60eb803707fa000a774481","false","854.7699999999022","<div align=left> The actual experiment is about to start.<br>The practice trials are over!<br><br>Please always respond both fast and accurately!<br><br>Remember: <br> <br><li> Please place your index fingers on the <strong>'S'</strong> and <strong>'L'</strong> keys <br>to respond as fast and accurately as possible.</li><li> Every picture can be classified as either mechanical or non-mechanical.</li><li> If you do not respond in time or commit an error, you will receive a corresponding feedback.<br> Please try to respond as <strong> fast </strong> and as <strong> accurately as possible </strong>.</li><li> Remember the <span style='color: dodgerblue; font-size: 28px'>O</span> pictures. <br></li><li> Please minimize distractions and stay focused. </li><br><br>Press SPACE to START.</div>","32","","","","","","","","","","","","","","","","","","","",""
"html-keyboard-response","193","431920","0.0-4.0-1.0-0.0","y5pkhqk0a5c6t0q","prime","5f605d6e23a6c714d670ec5d","5f60e3c0a3b16e07647b2ff9","5f60eb803707fa000a774481","false","null","<span style=""color: black; font-size: 48px"">N + M</span>","null","","","","resp_prompt","","","","","","","","","","","","","","","",""
"categorize-image","194","432924","0.0-4.0-1.0-1.0","y5pkhqk0a5c6t0q","prime","5f605d6e23a6c714d670ec5d","5f60e3c0a3b16e07647b2ff9","5f60eb803707fa000a774481","true","999.9600000000792","./Stimuli/SelectedImages/LN/LN92.bmp","76","","","","test","false","N + M","83","repetition","LN","LN92.bmp","remember","","81","5","prime1","right","","","",""
"html-keyboard-response","195","433426","0.0-4.0-1.0-2.0-0.0","y5pkhqk0a5c6t0q","prime","5f605d6e23a6c714d670ec5d","5f60e3c0a3b16e07647b2ff9","5f60eb803707fa000a774481","false","null","<span style=""color: red; font-size: 48px"">Error!</span>","null","","","","feedback","","","","","","","","","","","","","","","",""
"html-keyboard-response","196","435428","0.0-4.0-1.0-3.0","y5pkhqk0a5c6t0q","prime","5f605d6e23a6c714d670ec5d","5f60e3c0a3b16e07647b2ff9","5f60eb803707fa000a774481","false","null","<div style=""align-items: center; display: flex; color: dodgerblue; font-size: 90px""><b>o</b></div>","null","","","","forget_cue","","","","","","","","","","","","","","","",""
"html-keyboard-response","197","436130","0.0-4.0-1.0-0.1","y5pkhqk0a5c6t0q","prime","5f605d6e23a6c714d670ec5d","5f60e3c0a3b16e07647b2ff9","5f60eb803707fa000a774481","false","null","<span style=""color: black; font-size: 48px"">N + M</span>","null","","","","resp_prompt","","","","","","","","","","","","","","","",""
"categorize-image","198","436755","0.0-4.0-1.0-1.1","y5pkhqk0a5c6t0q","prime","5f605d6e23a6c714d670ec5d","5f60e3c0a3b16e07647b2ff9","5f60eb803707fa000a774481","true","622.1900000000605","./Stimuli/SelectedImages/LM/LM209.bmp","83","","","","test","false","N + M","76","switch","LM","LM209.bmp","remember","","82","5","prime1","left","","","",""
"html-keyboard-response","199","437257","0.0-4.0-1.0-2.1-0.1","y5pkhqk0a5c6t0q","prime","5f605d6e23a6c714d670ec5d","5f60e3c0a3b16e07647b2ff9","5f60eb803707fa000a774481","false","null","<span style=""color: red; font-size: 48px"">Error!</span>","null","","","","feedback","","","","","","","","","","","","","","","",""
"html-keyboard-response","200","439261","0.0-4.0-1.0-3.1","y5pkhqk0a5c6t0q","prime","5f605d6e23a6c714d670ec5d","5f60e3c0a3b16e07647b2ff9","5f60eb803707fa000a774481","false","null","<div style=""align-items: center; display: flex; color: dodgerblue; font-size: 90px""><b>o</b></div>","null","","","","forget_cue","","","","","","","","","","","","","","","",""
"html-keyboard-response","201","439963","0.0-4.0-1.0-0.2","y5pkhqk0a5c6t0q","prime","5f605d6e23a6c714d670ec5d","5f60e3c0a3b16e07647b2ff9","5f60eb803707fa000a774481","false","null","<span style=""color: black; font-size: 48px"">M + N</span>","null","","","","resp_prompt","","","","","","","","","","","","","","","",""
"categorize-image","202","440763","0.0-4.0-1.0-1.2","y5pkhqk0a5c6t0q","prime","5f605d6e23a6c714d670ec5d","5f60e3c0a3b16e07647b2ff9","5f60eb803707fa000a774481","true","797.0249999998487","./Stimuli/SelectedImages/SN/SN187.bmp","83","","","","test","false","M + N","76","switch","SN","SN187.bmp","forget","","83","5","prime1","left","","","",""
"html-keyboard-response","203","441267","0.0-4.0-1.0-2.2-0.2","y5pkhqk0a5c6t0q","prime","5f605d6e23a6c714d670ec5d","5f60e3c0a3b16e07647b2ff9","5f60eb803707fa000a774481","false","null","<span style=""color: red; font-size: 48px"">Error!</span>","null","","","","feedback","","","","","","","","","","","","","","","",""
"html-keyboard-response","204","443269","0.0-4.0-1.0-3.2","y5pkhqk0a5c6t0q","prime","5f605d6e23a6c714d670ec5d","5f60e3c0a3b16e07647b2ff9","5f60eb803707fa000a774481","false","null","<div style=""align-items: center; display: flex; color: darkorange; font-size: 90px""><b>ø</b></div>","null","","","","forget_cue","","","","","","","","","","","","","","","",""
"html-keyboard-response","205","443971","0.0-4.0-1.0-0.3","y5pkhqk0a5c6t0q","prime","5f605d6e23a6c714d670ec5d","5f60e3c0a3b16e07647b2ff9","5f60eb803707fa000a774481","false","null","<span style=""color: black; font-size: 48px"">M + N</span>","null","","","","resp_prompt","","","","","","","","","","","","","","","",""
"categorize-image","206","444676","0.0-4.0-1.0-1.3","y5pkhqk0a5c6t0q","prime","5f605d6e23a6c714d670ec5d","5f60e3c0a3b16e07647b2ff9","5f60eb803707fa000a774481","true","700.6949999995413","./Stimuli/SelectedImages/LN/LN111.bmp","83","","","","test","false","M + N","76","repetition","LN","LN111.bmp","forget","","84","5","prime1","left","","","",""
"html-keyboard-response","207","445178","0.0-4.0-1.0-2.3-0.3","y5pkhqk0a5c6t0q","prime","5f605d6e23a6c714d670ec5d","5f60e3c0a3b16e07647b2ff9","5f60eb803707fa000a774481","false","null","<span style=""color: red; font-size: 48px"">Error!</span>","null","","","","feedback","","","","","","","","","","","","","","","",""
"html-keyboard-response","208","447180","0.0-4.0-1.0-3.3","y5pkhqk0a5c6t0q","prime","5f605d6e23a6c714d670ec5d","5f60e3c0a3b16e07647b2ff9","5f60eb803707fa000a774481","false","null","<div style=""align-items: center; display: flex; color: darkorange; font-size: 90px""><b>ø</b></div>","null","","","","forget_cue","","","","","","","","","","","","","","","",""
"html-keyboard-response","209","447882","0.0-4.0-1.0-0.4","y5pkhqk0a5c6t0q","prime","5f605d6e23a6c714d670ec5d","5f60e3c0a3b16e07647b2ff9","5f60eb803707fa000a774481","false","null","<span style=""color: black; font-size: 48px"">N + M</span>","null","","","","resp_prompt","","","","","","","","","","","","","","","",""
"categorize-image","210","448852","0.0-4.0-1.0-1.4","y5pkhqk0a5c6t0q","prime","5f605d6e23a6c714d670ec5d","5f60e3c0a3b16e07647b2ff9","5f60eb803707fa000a774481","true","966.6250000000582","./Stimuli/SelectedImages/LN/LN101.bmp","76","","","","test","false","N + M","83","switch","LN","LN101.bmp","forget","","85","5","prime1","right","","","",""
"html-keyboard-response","211","449354","0.0-4.0-1.0-2.4-0.4","y5pkhqk0a5c6t0q","prime","5f605d6e23a6c714d670ec5d","5f60e3c0a3b16e07647b2ff9","5f60eb803707fa000a774481","false","null","<span style=""color: red; font-size: 48px"">Error!</span>","null","","","","feedback","","","","","","","","","","","","","","","",""
"html-keyboard-response","212","451356","0.0-4.0-1.0-3.4","y5pkhqk0a5c6t0q","prime","5f605d6e23a6c714d670ec5d","5f60e3c0a3b16e07647b2ff9","5f60eb803707fa000a774481","false","null","<div style=""align-items: center; display: flex; color: darkorange; font-size: 90px""><b>ø</b></div>","null","","","","forget_cue","","","","","","","","","","","","","","","",""
"html-keyboard-response","213","452058","0.0-4.0-1.0-0.5","y5pkhqk0a5c6t0q","prime","5f605d6e23a6c714d670ec5d","5f60e3c0a3b16e07647b2ff9","5f60eb803707fa000a774481","false","null","<span style=""color: black; font-size: 48px"">N + M</span>","null","","","","resp_prompt","","","","","","","","","","","","","","","",""
"categorize-image","214","453307","0.0-4.0-1.0-1.5","y5pkhqk0a5c6t0q","prime","5f605d6e23a6c714d670ec5d","5f60e3c0a3b16e07647b2ff9","5f60eb803707fa000a774481","true","1246.0700000001234","./Stimuli/SelectedImages/SM/SM73.bmp","76","","","","test","true","N + M","76","repetition","SM","SM73.bmp","remember","","86","5","prime1","right","","","",""
"html-keyboard-response","215","455309","0.0-4.0-1.0-3.5","y5pkhqk0a5c6t0q","prime","5f605d6e23a6c714d670ec5d","5f60e3c0a3b16e07647b2ff9","5f60eb803707fa000a774481","false","null","<div style=""align-items: center; display: flex; color: dodgerblue; font-size: 90px""><b>o</b></div>","null","","","","forget_cue","","","","","","","","","","","","","","","",""
"html-keyboard-response","216","456011","0.0-4.0-1.0-0.6","y5pkhqk0a5c6t0q","prime","5f605d6e23a6c714d670ec5d","5f60e3c0a3b16e07647b2ff9","5f60eb803707fa000a774481","false","null","<span style=""color: black; font-size: 48px"">N + M</span>","null","","","","resp_prompt","","","","","","","","","","","","","","","",""
"categorize-image","217","456659","0.0-4.0-1.0-1.6","y5pkhqk0a5c6t0q","prime","5f605d6e23a6c714d670ec5d","5f60e3c0a3b16e07647b2ff9","5f60eb803707fa000a774481","true","644.3899999994901","./Stimuli/SelectedImages/SM/SM76.bmp","76","","","","test","true","N + M","76","switch","SM","SM76.bmp","forget","","87","5","prime1","right","","","",""
"html-keyboard-response","218","458661","0.0-4.0-1.0-3.6","y5pkhqk0a5c6t0q","prime","5f605d6e23a6c714d670ec5d","5f60e3c0a3b16e07647b2ff9","5f60eb803707fa000a774481","false","null","<div style=""align-items: center; display: flex; color: darkorange; font-size: 90px""><b>ø</b></div>","null","","","","forget_cue","","","","","","","","","","","","","","","",""
"html-keyboard-response","219","459365","0.0-4.0-1.0-0.7","y5pkhqk0a5c6t0q","prime","5f605d6e23a6c714d670ec5d","5f60e3c0a3b16e07647b2ff9","5f60eb803707fa000a774481","false","null","<span style=""color: black; font-size: 48px"">M + N</span>","null","","","","resp_prompt","","","","","","","","","","","","","","","",""
"categorize-image","220","460163","0.0-4.0-1.0-1.7","y5pkhqk0a5c6t0q","prime","5f605d6e23a6c714d670ec5d","5f60e3c0a3b16e07647b2ff9","5f60eb803707fa000a774481","true","794.9300000000512","./Stimuli/SelectedImages/LM/LM100.bmp","76","","","","test","false","M + N","83","switch","LM","LM100.bmp","forget","","88","5","prime1","right","","","",""
"html-keyboard-response","221","460666","0.0-4.0-1.0-2.7-0.7","y5pkhqk0a5c6t0q","prime","5f605d6e23a6c714d670ec5d","5f60e3c0a3b16e07647b2ff9","5f60eb803707fa000a774481","false","null","<span style=""color: red; font-size: 48px"">Error!</span>","null","","","","feedback","","","","","","","","","","","","","","","",""
"html-keyboard-response","222","462668","0.0-4.0-1.0-3.7","y5pkhqk0a5c6t0q","prime","5f605d6e23a6c714d670ec5d","5f60e3c0a3b16e07647b2ff9","5f60eb803707fa000a774481","false","null","<div style=""align-items: center; display: flex; color: darkorange; font-size: 90px""><b>ø</b></div>","null","","","","forget_cue","","","","","","","","","","","","","","","",""
"html-keyboard-response","223","463370","0.0-4.0-1.0-0.8","y5pkhqk0a5c6t0q","prime","5f605d6e23a6c714d670ec5d","5f60e3c0a3b16e07647b2ff9","5f60eb803707fa000a774481","false","null","<span style=""color: black; font-size: 48px"">N + M</span>","null","","","","resp_prompt","","","","","","","","","","","","","","","",""
"categorize-image","224","463956","0.0-4.0-1.0-1.8","y5pkhqk0a5c6t0q","prime","5f605d6e23a6c714d670ec5d","5f60e3c0a3b16e07647b2ff9","5f60eb803707fa000a774481","true","581.2249999999185","./Stimuli/SelectedImages/SN/SN18.bmp","76","","","","test","false","N + M","83","repetition","SN","SN18.bmp","forget","","89","5","prime1","right","","","",""
"html-keyboard-response","225","464462","0.0-4.0-1.0-2.8-0.8","y5pkhqk0a5c6t0q","prime","5f605d6e23a6c714d670ec5d","5f60e3c0a3b16e07647b2ff9","5f60eb803707fa000a774481","false","null","<span style=""color: red; font-size: 48px"">Error!</span>","null","","","","feedback","","","","","","","","","","","","","","","",""
"html-keyboard-response","226","466464","0.0-4.0-1.0-3.8","y5pkhqk0a5c6t0q","prime","5f605d6e23a6c714d670ec5d","5f60e3c0a3b16e07647b2ff9","5f60eb803707fa000a774481","false","null","<div style=""align-items: center; display: flex; color: darkorange; font-size: 90px""><b>ø</b></div>","null","","","","forget_cue","","","","","","","","","","","","","","","",""
"html-keyboard-response","227","467166","0.0-4.0-1.0-0.9","y5pkhqk0a5c6t0q","prime","5f605d6e23a6c714d670ec5d","5f60e3c0a3b16e07647b2ff9","5f60eb803707fa000a774481","false","null","<span style=""color: black; font-size: 48px"">M + N</span>","null","","","","resp_prompt","","","","","","","","","","","","","","","",""
"categorize-image","228","467948","0.0-4.0-1.0-1.9","y5pkhqk0a5c6t0q","prime","5f605d6e23a6c714d670ec5d","5f60e3c0a3b16e07647b2ff9","5f60eb803707fa000a774481","true","777.955000000482","./Stimuli/SelectedImages/SM/SM78.bmp","76","","","","test","false","M + N","83","switch","SM","SM78.bmp","forget","","90","5","prime1","right","","","",""
"html-keyboard-response","229","468450","0.0-4.0-1.0-2.9-0.9","y5pkhqk0a5c6t0q","prime","5f605d6e23a6c714d670ec5d","5f60e3c0a3b16e07647b2ff9","5f60eb803707fa000a774481","false","null","<span style=""color: red; font-size: 48px"">Error!</span>","null","","","","feedback","","","","","","","","","","","","","","","",""
"html-keyboard-response","230","470452","0.0-4.0-1.0-3.9","y5pkhqk0a5c6t0q","prime","5f605d6e23a6c714d670ec5d","5f60e3c0a3b16e07647b2ff9","5f60eb803707fa000a774481","false","null","<div style=""align-items: center; display: flex; color: darkorange; font-size: 90px""><b>ø</b></div>","null","","","","forget_cue","","","","","","","","","","","","","","","",""
"html-keyboard-response","231","471153","0.0-4.0-1.0-0.10","y5pkhqk0a5c6t0q","prime","5f605d6e23a6c714d670ec5d","5f60e3c0a3b16e07647b2ff9","5f60eb803707fa000a774481","false","null","<span style=""color: black; font-size: 48px"">M + N</span>","null","","","","resp_prompt","","","","","","","","","","","","","","","",""
"categorize-image","232","471236","0.0-4.0-1.0-1.10","y5pkhqk0a5c6t0q","prime","5f605d6e23a6c714d670ec5d","5f60e3c0a3b16e07647b2ff9","5f60eb803707fa000a774481","true","78.87500000017462","./Stimuli/SelectedImages/LM/LM129.bmp","76","","","","test","false","M + N","83","switch","LM","LM129.bmp","remember","","91","5","prime1","right","","","",""
"html-keyboard-response","233","471738","0.0-4.0-1.0-2.10-0.10","y5pkhqk0a5c6t0q","prime","5f605d6e23a6c714d670ec5d","5f60e3c0a3b16e07647b2ff9","5f60eb803707fa000a774481","false","null","<span style=""color: red; font-size: 48px"">Error!</span>","null","","","","feedback","","","","","","","","","","","","","","","",""
"html-keyboard-response","234","473740","0.0-4.0-1.0-3.10","y5pkhqk0a5c6t0q","prime","5f605d6e23a6c714d670ec5d","5f60e3c0a3b16e07647b2ff9","5f60eb803707fa000a774481","false","null","<div style=""align-items: center; display: flex; color: dodgerblue; font-size: 90px""><b>o</b></div>","null","","","","forget_cue","","","","","","","","","","","","","","","",""
"html-keyboard-response","235","474442","0.0-4.0-1.0-0.11","y5pkhqk0a5c6t0q","prime","5f605d6e23a6c714d670ec5d","5f60e3c0a3b16e07647b2ff9","5f60eb803707fa000a774481","false","null","<span style=""color: black; font-size: 48px"">M + N</span>","null","","","","resp_prompt","","","","","","","","","","","","","","","",""
"categorize-image","236","474445","0.0-4.0-1.0-1.11","y5pkhqk0a5c6t0q","prime","5f605d6e23a6c714d670ec5d","5f60e3c0a3b16e07647b2ff9","5f60eb803707fa000a774481","true","0.22499999980209395","./Stimuli/SelectedImages/SM/SM128.bmp","76","","","","test","false","M + N","83","switch","SM","SM128.bmp","remember","","92","5","prime1","right","","","",""
"html-keyboard-response","237","474948","0.0-4.0-1.0-2.11-0.11","y5pkhqk0a5c6t0q","prime","5f605d6e23a6c714d670ec5d","5f60e3c0a3b16e07647b2ff9","5f60eb803707fa000a774481","false","null","<span style=""color: red; font-size: 48px"">Error!</span>","null","","","","feedback","","","","","","","","","","","","","","","",""
"html-keyboard-response","238","476950","0.0-4.0-1.0-3.11","y5pkhqk0a5c6t0q","prime","5f605d6e23a6c714d670ec5d","5f60e3c0a3b16e07647b2ff9","5f60eb803707fa000a774481","false","null","<div style=""align-items: center; display: flex; color: dodgerblue; font-size: 90px""><b>o</b></div>","null","","","","forget_cue","","","","","","","","","","","","","","","",""
