"trial_type","trial_index","time_elapsed","internal_node_id","subject","exp_part","prolific_PID","study_ID","session_ID","use","rt","stimulus","key_press","button_pressed","responses","question_order","trial_part","correct","resp_map","correct_resp","probe_condition","category","image","forget_condition","list","trial_num","block_num","block","response","test_part","n_span","sequence","num_spaces"
"pavlovia","0","2","0.0-0.0","osc7qtlrxnorsj4","","58bdce137b1cda00019b4f0c","5f60e3c0a3b16e07647b2ff9","5f60ed866aed4901bb6f27f3","false","","","","","","","","","","","","","","","","","","","","","","",""
"html-keyboard-response","1","5271","0.0-1.0-0.0-0.0","osc7qtlrxnorsj4","welcome","58bdce137b1cda00019b4f0c","5f60e3c0a3b16e07647b2ff9","5f60ed866aed4901bb6f27f3","false","5268.19499998237","<div align=left>Dear participant, <br> thank you for participating in an online study of the Cognition, Action, and Sustainability Unit of the University of Freiburg! <br> <br>The aim of this study is to examine our ability to remember previously learned information. <br>Our goal is to find out, whether our memory improves, when we only remember information that is relevant to us. <br>The experiment will take about 35 minutes to complete. <br> <br>Please, note that you can only participate in this study if you are using a device with a keyboard (PC, Laptop etc.) <br>and not if you are using a mobile device such as a tablet or smartphone.<br> <br>Press 'SPACE' to proceed to the experiment. </div>","32","","","","","","","","","","","","","","","","","","","",""
"html-keyboard-response","2","17112","0.0-1.0-0.0-1.0","osc7qtlrxnorsj4","welcome","58bdce137b1cda00019b4f0c","5f60e3c0a3b16e07647b2ff9","5f60ed866aed4901bb6f27f3","false","11839.850000018487","<div align=left><strong> Time Course of this experiment: </strong> <br><br> <strong> 1.</strong>  First, please fill in some information regarding your demographic data. <br><br> <strong> 2.</strong>  Next, your task will be to classify everyday objects. <br>In addition, you will be asked to remember certain objects and recall them later. <br>Working on these tasks requires your undivided attention and concentration.<br>It is therefore essential that you eliminate any sources of distraction in your  <br>environment and ensure that you will not be disturbed. <br><br><strong> 3.</strong>  At the end of the experiment, you will be asked to answer a few additional questions. <br> <br><strong> Important:</strong> After finishing the experiment, only close the browser window <br> by clicking on the 'end the experiment'-button when you are asked to do so. <br>Closing the browser window prematurely will make the allocation of your participation credit impossible. <br><br> Press 'SPACE' to start the experiment. </div>","32","","","","","","","","","","","","","","","","","","","",""
"html-button-response","3","19741","0.0-1.0-0.0-2.0","osc7qtlrxnorsj4","welcome","58bdce137b1cda00019b4f0c","5f60e3c0a3b16e07647b2ff9","5f60ed866aed4901bb6f27f3","true","2628.129999997327","<div align=left><strong> Informed consent </strong>  <br>The aim of our research is to better understand human behavior and mental processes. <br>In the following study your behavior (e.g. choices, reaction times) will be studied. <br> <br><strong> Voluntariness and Anonymity </strong> <br>Your participation in this study is  <strong> voluntary</strong>.<br>You may withdraw your consent to participate at any time without providing a reason for doing so and without fear of prejudice. <br><br>As no personal data will be collected, <strong>your data and your person cannot be connected after data collection</strong> – the data-set is anonymous. <br>Respectively, deletion of your data will not be possible after data collection has been completed, as we cannot retrace your data-set.<br>The results and anonymized data collected in this study will be published as a scientific publication. <br>This will happen in an <strong>anonymized format</strong>, so that no data can be traced back to a specific person. <br> <br>The anonymized data of this study will be made available to other researchers and/or in a data archive on the Internet as a means of transparency and to enable subsequent re-use. By doing so, this study follows the recommendations of the Deutsche Forschungsgemeinschaft (DFG, German Research Foundation) and Deutsche Gesellschaft für Psychologie (DGPS, German Psychological Society) regarding quality assurance in research.<br>If you have any questions now or after the experiment, please contact our team (experiments@cs.uni-freiburg.de).<br><br><br>I hereby declare, that I understand the above described conditions of participation and I agree to participate under these conditions. <br><br> </div>","","0","","","","","","","","","","","","","","","","","","",""
"html-keyboard-response","4","28303","0.0-1.0-0.0-3.0","osc7qtlrxnorsj4","welcome","58bdce137b1cda00019b4f0c","5f60e3c0a3b16e07647b2ff9","5f60ed866aed4901bb6f27f3","false","8560.584999999264","<div align=left><strong> General information concerning the experiment </strong>  <br> <br>Please follow the instructions:<ol> <li><strong> Do not leave this tab (your browser window) during the experiment and do not reload this tab! </strong>  <br>If you do switch tabs/windows during the experiment (to check your mail or visit another website, for example), <br>the experiment will end automatically and you will <strong>not receive credit</strong> for your participation. <br>Repeated participation or resumption of the experiment is impossible.</li> <br><li>Please close all other programs for the duration of your participation. </li> <br><li>Please mute or turn off your phone and put it out of your reach. </li> <br><li>Please also take off any disturbing accessories (such as wristwatches, bracelets, etc.). </li> <br><li>If you have music playing in the background, please turn it off now. </li> <br></ol>Thank you! <br>Press 'SPACE' to continue. </div>","32","","","","","","","","","","","","","","","","","","","",""
"survey-text","5","31421","0.0-1.0-1.0-0.0","osc7qtlrxnorsj4","demographics","58bdce137b1cda00019b4f0c","5f60e3c0a3b16e07647b2ff9","5f60ed866aed4901bb6f27f3","true","3116.0600000002887","","","","{""age"":""25""}","","","","","","","","","","","","","","","","","",""
"survey-multi-choice","6","38189","0.0-1.0-1.0-1.0","osc7qtlrxnorsj4","demographics","58bdce137b1cda00019b4f0c","5f60e3c0a3b16e07647b2ff9","5f60ed866aed4901bb6f27f3","true","6766.540000011446","","","","{""gender"":""female"",""school"":""middle school/secondary school/ graduation from polytechnic high school"",""education"":""Less than high school diploma""}","[0,1,2]","","","","","","","","","","","","","","","","",""
"html-keyboard-response","7","45402","0.0-1.0-2.0","osc7qtlrxnorsj4","instructions","58bdce137b1cda00019b4f0c","5f60e3c0a3b16e07647b2ff9","5f60ed866aed4901bb6f27f3","false","7211.67499999865","<div align=left> The experiment is now about to start: <br> <br>In the following part, you will be presented pictures of everyday objects. <br>Your first task is to <strong>classify these objects. </strong> <br> <br> You will classify them either as mechanical or non-mechanical objects. <br> <br>Objects that include any kind of technical mechanism (for example, wheels, switches, levers, <br> electronic components) fall under the category of <strong>mechanical</strong> objects. <br>Only objects without any kind of technical mechanism should be classified as <strong>non-mechanical</strong>. <br><br>Press 'SPACE' to continue. </div>","32","","","","","","","","","","","","","","","","","","","",""
"html-keyboard-response","8","256124","0.0-2.0-0.0","osc7qtlrxnorsj4","instructions","58bdce137b1cda00019b4f0c","5f60e3c0a3b16e07647b2ff9","5f60ed866aed4901bb6f27f3","false","210721.75499997684","<div align=justify>You will classify the objects using the <strong>'S'</strong> and the <strong>'L'</strong> keys on your keyboard.<br>For doing so, please place your <strong>left index finger</strong> on the <strong>'S'</strong> key and place your <strong>right index finger</strong> on the <strong>'L'</strong> key. <br><br> Each trial starts with an instruction, indicating which key ('S'/'L') you need to press to classify <br>the object as mechanical (letter M) or non-mechanical (letter N).<br>The instruction <strong>M + N</strong> indicates that, in the current trial, by pressing the left key ('S') you classify the displayed object as mechanical (M) <br> and by pressing the right key ('L') you classify the object as non-mechanical (N). <br>The instruction <strong>N + M</strong> on the other hand indicates that by pressing the left key ('S') you classify the displayed object as non-mechanical (N) <br> and by pressing the right key ('L') you classify the object as mechanical (M). <br><br>Please press the key corresponding to the correct classification as fast as possible as soon as the object is displayed and try to avoid making mistakes.<br>If you do not respond within a 2 second window, a corresponding feedback will be displayed and the next trial will start.<br> The experiment is divided into multiple blocks to give you the opportunity to take a break after each block. <br>First, you can now practice this task. <br><br>Please place your <strong>LEFT INDEX FINGER</strong> on the 'S' key and your <strong>RIGHT INDEX FINGER</strong> on the 'L' key now. <br><br>Press SPACE to continue.</div>","32","","","","","","","","","","","","","","","","","","","",""
"html-keyboard-response","9","260317","0.0-2.0-1.0","osc7qtlrxnorsj4","instructions","58bdce137b1cda00019b4f0c","5f60e3c0a3b16e07647b2ff9","5f60ed866aed4901bb6f27f3","false","4191.559999977471","<div align=left> You will now have time to practice this task.<br><br>Remember: <br> <br><li>Please place your index fingers on the <strong>'S'</strong> and <strong>'L'</strong> keys <br>to respond as fast and accurately as possible.</li><li>Every picture can be classified as either mechanical or non-mechanical.</li><li>If you do not respond in time or commit an error, you will receive a corresponding feedback. </li><li> Please try to respond as <strong> fast </strong> and as <strong> accurately as possible </strong> .<br><li>To ensure optimal results, please minimize distractions and stay focused. </li><br><br>Press SPACE to continue.</div>","32","","","","","","","","","","","","","","","","","","","",""
"html-keyboard-response","10","261019","0.0-2.0-2.0-0.0","osc7qtlrxnorsj4","practice_no_cue","58bdce137b1cda00019b4f0c","5f60e3c0a3b16e07647b2ff9","5f60ed866aed4901bb6f27f3","false","null","<span style=""color: black; font-size: 48px"">N + M</span>","null","","","","resp_prompt","","","","","","","","","","","","","","","",""
"categorize-image","11","263521","0.0-2.0-2.0-1.0","osc7qtlrxnorsj4","practice_no_cue","58bdce137b1cda00019b4f0c","5f60e3c0a3b16e07647b2ff9","5f60ed866aed4901bb6f27f3","true","null","./Stimuli/ImagesPractice/LN17.jpg","null","","","","test","false","N + M","83","","LN","LN17.jpg","remember","old","1","1","start","too_slow","","","",""
"html-keyboard-response","12","264222","0.0-2.0-2.0-0.1","osc7qtlrxnorsj4","practice_no_cue","58bdce137b1cda00019b4f0c","5f60e3c0a3b16e07647b2ff9","5f60ed866aed4901bb6f27f3","false","null","<span style=""color: black; font-size: 48px"">M + N</span>","null","","","","resp_prompt","","","","","","","","","","","","","","","",""
"categorize-image","13","265743","0.0-2.0-2.0-1.1","osc7qtlrxnorsj4","practice_no_cue","58bdce137b1cda00019b4f0c","5f60e3c0a3b16e07647b2ff9","5f60ed866aed4901bb6f27f3","true","1018.7549999973271","./Stimuli/ImagesPractice/LN2.jpg","76","","","","test","true","M + N","76","","LN","LN2.jpg","remember","old","2","1","start","right","","","",""
"html-keyboard-response","14","266444","0.0-2.0-2.0-0.2","osc7qtlrxnorsj4","practice_no_cue","58bdce137b1cda00019b4f0c","5f60e3c0a3b16e07647b2ff9","5f60ed866aed4901bb6f27f3","false","null","<span style=""color: black; font-size: 48px"">M + N</span>","null","","","","resp_prompt","","","","","","","","","","","","","","","",""
"categorize-image","15","267763","0.0-2.0-2.0-1.2","osc7qtlrxnorsj4","practice_no_cue","58bdce137b1cda00019b4f0c","5f60e3c0a3b16e07647b2ff9","5f60ed866aed4901bb6f27f3","true","816.869999980554","./Stimuli/ImagesPractice/LM147.jpg","83","","","","test","true","M + N","83","","LM","LM147.jpg","forget","old","3","1","start","left","","","",""
"html-keyboard-response","16","268465","0.0-2.0-2.0-0.3","osc7qtlrxnorsj4","practice_no_cue","58bdce137b1cda00019b4f0c","5f60e3c0a3b16e07647b2ff9","5f60ed866aed4901bb6f27f3","false","null","<span style=""color: black; font-size: 48px"">M + N</span>","null","","","","resp_prompt","","","","","","","","","","","","","","","",""
"categorize-image","17","269947","0.0-2.0-2.0-1.3","osc7qtlrxnorsj4","practice_no_cue","58bdce137b1cda00019b4f0c","5f60e3c0a3b16e07647b2ff9","5f60ed866aed4901bb6f27f3","true","980.3550000069663","./Stimuli/ImagesPractice/SM35.jpg","83","","","","test","true","M + N","83","","SM","SM35.jpg","remember","old","4","1","start","left","","","",""
"html-keyboard-response","18","270648","0.0-2.0-2.0-0.4","osc7qtlrxnorsj4","practice_no_cue","58bdce137b1cda00019b4f0c","5f60e3c0a3b16e07647b2ff9","5f60ed866aed4901bb6f27f3","false","null","<span style=""color: black; font-size: 48px"">M + N</span>","null","","","","resp_prompt","","","","","","","","","","","","","","","",""
"categorize-image","19","271870","0.0-2.0-2.0-1.4","osc7qtlrxnorsj4","practice_no_cue","58bdce137b1cda00019b4f0c","5f60e3c0a3b16e07647b2ff9","5f60ed866aed4901bb6f27f3","true","720.3699999954551","./Stimuli/ImagesPractice/LM230.jpg","83","","","","test","true","M + N","83","","LM","LM230.jpg","remember","old","5","1","start","left","","","",""
"html-keyboard-response","20","272572","0.0-2.0-2.0-0.5","osc7qtlrxnorsj4","practice_no_cue","58bdce137b1cda00019b4f0c","5f60e3c0a3b16e07647b2ff9","5f60ed866aed4901bb6f27f3","false","null","<span style=""color: black; font-size: 48px"">N + M</span>","null","","","","resp_prompt","","","","","","","","","","","","","","","",""
"categorize-image","21","273995","0.0-2.0-2.0-1.5","osc7qtlrxnorsj4","practice_no_cue","58bdce137b1cda00019b4f0c","5f60e3c0a3b16e07647b2ff9","5f60ed866aed4901bb6f27f3","true","921.8650000111666","./Stimuli/ImagesPractice/LN72.jpg","83","","","","test","true","N + M","83","","LN","LN72.jpg","forget","old","6","1","start","left","","","",""
"html-keyboard-response","22","274696","0.0-2.0-2.0-0.6","osc7qtlrxnorsj4","practice_no_cue","58bdce137b1cda00019b4f0c","5f60e3c0a3b16e07647b2ff9","5f60ed866aed4901bb6f27f3","false","null","<span style=""color: black; font-size: 48px"">N + M</span>","null","","","","resp_prompt","","","","","","","","","","","","","","","",""
"categorize-image","23","276074","0.0-2.0-2.0-1.6","osc7qtlrxnorsj4","practice_no_cue","58bdce137b1cda00019b4f0c","5f60e3c0a3b16e07647b2ff9","5f60ed866aed4901bb6f27f3","true","876.4849999861326","./Stimuli/ImagesPractice/SN222.jpg","76","","","","test","false","N + M","83","","SN","SN222.jpg","forget","old","7","1","start","right","","","",""
"html-keyboard-response","24","276776","0.0-2.0-2.0-0.7","osc7qtlrxnorsj4","practice_no_cue","58bdce137b1cda00019b4f0c","5f60e3c0a3b16e07647b2ff9","5f60ed866aed4901bb6f27f3","false","null","<span style=""color: black; font-size: 48px"">M + N</span>","null","","","","resp_prompt","","","","","","","","","","","","","","","",""
"categorize-image","25","277937","0.0-2.0-2.0-1.7","osc7qtlrxnorsj4","practice_no_cue","58bdce137b1cda00019b4f0c","5f60e3c0a3b16e07647b2ff9","5f60ed866aed4901bb6f27f3","true","659.574999997858","./Stimuli/ImagesPractice/SN220.jpg","76","","","","test","true","M + N","76","","SN","SN220.jpg","forget","old","8","1","start","right","","","",""
"html-keyboard-response","26","278638","0.0-2.0-2.0-0.8","osc7qtlrxnorsj4","practice_no_cue","58bdce137b1cda00019b4f0c","5f60e3c0a3b16e07647b2ff9","5f60ed866aed4901bb6f27f3","false","null","<span style=""color: black; font-size: 48px"">N + M</span>","null","","","","resp_prompt","","","","","","","","","","","","","","","",""
"categorize-image","27","279852","0.0-2.0-2.0-1.8","osc7qtlrxnorsj4","practice_no_cue","58bdce137b1cda00019b4f0c","5f60e3c0a3b16e07647b2ff9","5f60ed866aed4901bb6f27f3","true","711.5699999849312","./Stimuli/ImagesPractice/SN205.jpg","76","","","","test","false","N + M","83","","SN","SN205.jpg","forget","old","9","1","start","right","","","",""
"html-keyboard-response","28","280553","0.0-2.0-2.0-0.9","osc7qtlrxnorsj4","practice_no_cue","58bdce137b1cda00019b4f0c","5f60e3c0a3b16e07647b2ff9","5f60ed866aed4901bb6f27f3","false","null","<span style=""color: black; font-size: 48px"">M + N</span>","null","","","","resp_prompt","","","","","","","","","","","","","","","",""
"categorize-image","29","281630","0.0-2.0-2.0-1.9","osc7qtlrxnorsj4","practice_no_cue","58bdce137b1cda00019b4f0c","5f60e3c0a3b16e07647b2ff9","5f60ed866aed4901bb6f27f3","true","575.6900000269525","./Stimuli/ImagesPractice/LM224.jpg","83","","","","test","true","M + N","83","","LM","LM224.jpg","remember","old","10","1","start","left","","","",""
"html-keyboard-response","30","282332","0.0-2.0-2.0-0.10","osc7qtlrxnorsj4","practice_no_cue","58bdce137b1cda00019b4f0c","5f60e3c0a3b16e07647b2ff9","5f60ed866aed4901bb6f27f3","false","null","<span style=""color: black; font-size: 48px"">N + M</span>","null","","","","resp_prompt","","","","","","","","","","","","","","","",""
"categorize-image","31","283600","0.0-2.0-2.0-1.10","osc7qtlrxnorsj4","practice_no_cue","58bdce137b1cda00019b4f0c","5f60e3c0a3b16e07647b2ff9","5f60ed866aed4901bb6f27f3","true","767.775000014808","./Stimuli/ImagesPractice/SM97.jpg","83","","","","test","false","N + M","76","","SM","SM97.jpg","remember","old","11","1","start","left","","","",""
"html-keyboard-response","32","284302","0.0-2.0-2.0-0.11","osc7qtlrxnorsj4","practice_no_cue","58bdce137b1cda00019b4f0c","5f60e3c0a3b16e07647b2ff9","5f60ed866aed4901bb6f27f3","false","null","<span style=""color: black; font-size: 48px"">N + M</span>","null","","","","resp_prompt","","","","","","","","","","","","","","","",""
"categorize-image","33","285300","0.0-2.0-2.0-1.11","osc7qtlrxnorsj4","practice_no_cue","58bdce137b1cda00019b4f0c","5f60e3c0a3b16e07647b2ff9","5f60ed866aed4901bb6f27f3","true","496.6050000221003","./Stimuli/ImagesPractice/LM239.jpg","76","","","","test","true","N + M","76","","LM","LM239.jpg","remember","old","12","1","start","right","","","",""
"html-keyboard-response","34","286002","0.0-2.0-2.0-0.12","osc7qtlrxnorsj4","practice_no_cue","58bdce137b1cda00019b4f0c","5f60e3c0a3b16e07647b2ff9","5f60ed866aed4901bb6f27f3","false","null","<span style=""color: black; font-size: 48px"">M + N</span>","null","","","","resp_prompt","","","","","","","","","","","","","","","",""
"categorize-image","35","287001","0.0-2.0-2.0-1.12","osc7qtlrxnorsj4","practice_no_cue","58bdce137b1cda00019b4f0c","5f60e3c0a3b16e07647b2ff9","5f60ed866aed4901bb6f27f3","true","497.2450000059325","./Stimuli/ImagesPractice/SN221.jpg","76","","","","test","true","M + N","76","","SN","SN221.jpg","forget","old","13","1","start","right","","","",""
"html-keyboard-response","36","287703","0.0-2.0-2.0-0.13","osc7qtlrxnorsj4","practice_no_cue","58bdce137b1cda00019b4f0c","5f60e3c0a3b16e07647b2ff9","5f60ed866aed4901bb6f27f3","false","null","<span style=""color: black; font-size: 48px"">N + M</span>","null","","","","resp_prompt","","","","","","","","","","","","","","","",""
"categorize-image","37","289022","0.0-2.0-2.0-1.13","osc7qtlrxnorsj4","practice_no_cue","58bdce137b1cda00019b4f0c","5f60e3c0a3b16e07647b2ff9","5f60ed866aed4901bb6f27f3","true","816.9300000008661","./Stimuli/ImagesPractice/LN4.jpg","76","","","","test","false","N + M","83","","LN","LN4.jpg","forget","old","14","1","start","right","","","",""
"html-keyboard-response","38","289723","0.0-2.0-2.0-0.14","osc7qtlrxnorsj4","practice_no_cue","58bdce137b1cda00019b4f0c","5f60e3c0a3b16e07647b2ff9","5f60ed866aed4901bb6f27f3","false","null","<span style=""color: black; font-size: 48px"">N + M</span>","null","","","","resp_prompt","","","","","","","","","","","","","","","",""
"categorize-image","39","290935","0.0-2.0-2.0-1.14","osc7qtlrxnorsj4","practice_no_cue","58bdce137b1cda00019b4f0c","5f60e3c0a3b16e07647b2ff9","5f60ed866aed4901bb6f27f3","true","710.4800000088289","./Stimuli/ImagesPractice/SN75.jpg","76","","","","test","false","N + M","83","","SN","SN75.jpg","remember","old","15","1","start","right","","","",""
"html-keyboard-response","40","291636","0.0-2.0-2.0-0.15","osc7qtlrxnorsj4","practice_no_cue","58bdce137b1cda00019b4f0c","5f60e3c0a3b16e07647b2ff9","5f60ed866aed4901bb6f27f3","false","null","<span style=""color: black; font-size: 48px"">M + N</span>","null","","","","resp_prompt","","","","","","","","","","","","","","","",""
"categorize-image","41","292725","0.0-2.0-2.0-1.15","osc7qtlrxnorsj4","practice_no_cue","58bdce137b1cda00019b4f0c","5f60e3c0a3b16e07647b2ff9","5f60ed866aed4901bb6f27f3","true","586.8550000013784","./Stimuli/ImagesPractice/SM98.jpg","83","","","","test","true","M + N","83","","SM","SM98.jpg","forget","old","16","1","start","left","","","",""
"html-keyboard-response","42","295241","0.0-2.0-3.0","osc7qtlrxnorsj4","break","58bdce137b1cda00019b4f0c","5f60e3c0a3b16e07647b2ff9","5f60ed866aed4901bb6f27f3","false","2515.2450000168756","<p style='font-size: 32px;'>Break</><br><br><br><br><br><p style='font-size: 24px;'>In the last block, you committed 5 errors and did not respond in time on 1 trials.
</p><p style='font-size: 24px;'>Try to respond as fast and accurately as possible in the next block as well! </p><p style='font-size: 24px;'>Press SPACE to continue.</p>","32","","","","","","","","","","","","","","","","","","","",""
"html-keyboard-response","43","299485","0.0-2.0-4.0","osc7qtlrxnorsj4","instructions","58bdce137b1cda00019b4f0c","5f60e3c0a3b16e07647b2ff9","5f60ed866aed4901bb6f27f3","false","4242.954999994254","<div align=left> Great!<br><br>Are you ready to continue?<br><br>If you want to reread the instructions and redo the practice trials, <br>please press „Z“. <br><br>Press SPACE to CONTINUE with the experiment when you are ready. </div>","32","","","","","","","","","","","","","","","","","","","",""
"html-keyboard-response","44","321775","0.0-3.0-0.0","osc7qtlrxnorsj4","instructions","58bdce137b1cda00019b4f0c","5f60e3c0a3b16e07647b2ff9","5f60ed866aed4901bb6f27f3","false","22288.860000000568","<div align=left>Great!<br> <strong>Attention</strong>! You will now receive a second, additional task! <br><br>To this point it was you <strong>first task</strong> to correctly <strong>classify objects</strong>. <br><br>As mentioned in the beginning, we aim to examine how well humans can remember previously learned information.<br>We would like to find out whether our memory improves if we only remember information that is relevant to us. <br><br>Therefore, your <strong>second task</strong> will be to <strong>remember</strong> the pictures you are to categorize. <br> After the learning phase, there will be a memory test phase, in which you will be asked to indicate whether you have seen a picture before or not. <br>Some, but not all pictures shown in the learning phase will appear in the memory test phase.<br>After classifying a picture, you will be told whether you should remember it for the memory test phase or not. <br>Thus, some pictures can be forgotten, whereas others have to be remembered. <br><br>Note: From now on, feedback will only be displayed if you responded incorrectly or not in time.<br><br>Press SPACE to continue.</div>","32","","","","","","","","","","","","","","","","","","","",""
"html-keyboard-response","45","324058","0.0-3.0-1.0","osc7qtlrxnorsj4","instructions","58bdce137b1cda00019b4f0c","5f60e3c0a3b16e07647b2ff9","5f60ed866aed4901bb6f27f3","false","2282.8500000177883","<div align=left>In the following part, you will thus have to remember only some pictures. <br>Immediately after seeing and classifying the picture, a symbol will be displayed, indicating whether you should remember or forget the previous picture. <br><br>A <span style='color: dodgerblue; font-size: 28px'>O</span> indicates REMEMBER. That means, you have to remember this picture, because it will be tested later. <br><br>A <span style='color: darkorange; font-size:28px'>Ø</span> indicates FORGET. You do not have to remember this picture. <br><br> As you will have to remember a lot of pictures, it will be hard for you to remember all of them. <br>It will put you at an advantage if you instantly forget the pictures you are not asked to remember. <br> This will make it easier for you to remember the pictures that will be tested afterwards. <br><br>Press SPACE to continue.</div>","32","","","","","","","","","","","","","","","","","","","",""
"html-keyboard-response","46","324978","0.0-3.0-2.0","osc7qtlrxnorsj4","instructions","58bdce137b1cda00019b4f0c","5f60e3c0a3b16e07647b2ff9","5f60ed866aed4901bb6f27f3","false","918.919999996433","<div align=left> Now you have the chance to practice both tasks together.<br><br>Remember: <br> <br><li>Please place your index fingers on the <strong>'S'</strong> and <strong>'L'</strong> keys <br>to respond as fast and accurately as possible.</li><li>Every picture can be classified as either mechanical or non-mechanical.</li><li>If you do not respond in time or commit an error, you will receive a corresponding feedback. <br>Please try to respond as <strong> fast </strong> and as <strong> accurately as possible </strong>.</li><li> Please remember only the to-be-remembered <span style='color: dodgerblue; font-size: 28px'>O</span> pictures. <br></li><li> Please minimize distractions and stay focused. </li><br><br>Press SPACE to START</div>","32","","","","","","","","","","","","","","","","","","","",""
"html-keyboard-response","47","325678","0.0-3.0-3.0-0.0","osc7qtlrxnorsj4","practice_cue","58bdce137b1cda00019b4f0c","5f60e3c0a3b16e07647b2ff9","5f60ed866aed4901bb6f27f3","false","null","<span style=""color: black; font-size: 48px"">M + N</span>","null","","","","resp_prompt","","","","","","","","","","","","","","","",""
"categorize-image","48","326273","0.0-3.0-3.0-1.0","osc7qtlrxnorsj4","practice_cue","58bdce137b1cda00019b4f0c","5f60e3c0a3b16e07647b2ff9","5f60ed866aed4901bb6f27f3","true","590.9249999967869","./Stimuli/ImagesPractice/SM35.jpg","83","","","","test","true","M + N","83","","SM","SM35.jpg","remember","old","17","2","practice_forget","left","","","",""
"html-keyboard-response","49","328275","0.0-3.0-3.0-3.0","osc7qtlrxnorsj4","practice_cue","58bdce137b1cda00019b4f0c","5f60e3c0a3b16e07647b2ff9","5f60ed866aed4901bb6f27f3","false","null","<div style=""align-items: center; display: flex; color: dodgerblue; font-size: 90px""><b>o</b></div>","null","","","","forget_cue","","","","","","","","","","","","","","","",""
"html-keyboard-response","50","328976","0.0-3.0-3.0-0.1","osc7qtlrxnorsj4","practice_cue","58bdce137b1cda00019b4f0c","5f60e3c0a3b16e07647b2ff9","5f60ed866aed4901bb6f27f3","false","null","<span style=""color: black; font-size: 48px"">N + M</span>","null","","","","resp_prompt","","","","","","","","","","","","","","","",""
"categorize-image","51","329680","0.0-3.0-3.0-1.1","osc7qtlrxnorsj4","practice_cue","58bdce137b1cda00019b4f0c","5f60e3c0a3b16e07647b2ff9","5f60ed866aed4901bb6f27f3","true","700.0750000006519","./Stimuli/ImagesPractice/LM239.jpg","76","","","","test","true","N + M","76","","LM","LM239.jpg","remember","old","18","2","practice_forget","right","","","",""
"html-keyboard-response","52","331681","0.0-3.0-3.0-3.1","osc7qtlrxnorsj4","practice_cue","58bdce137b1cda00019b4f0c","5f60e3c0a3b16e07647b2ff9","5f60ed866aed4901bb6f27f3","false","null","<div style=""align-items: center; display: flex; color: dodgerblue; font-size: 90px""><b>o</b></div>","null","","","","forget_cue","","","","","","","","","","","","","","","",""
"html-keyboard-response","53","332381","0.0-3.0-3.0-0.2","osc7qtlrxnorsj4","practice_cue","58bdce137b1cda00019b4f0c","5f60e3c0a3b16e07647b2ff9","5f60ed866aed4901bb6f27f3","false","null","<span style=""color: black; font-size: 48px"">M + N</span>","null","","","","resp_prompt","","","","","","","","","","","","","","","",""
"categorize-image","54","332937","0.0-3.0-3.0-1.2","osc7qtlrxnorsj4","practice_cue","58bdce137b1cda00019b4f0c","5f60e3c0a3b16e07647b2ff9","5f60ed866aed4901bb6f27f3","true","552.2300000011455","./Stimuli/ImagesPractice/SM98.jpg","83","","","","test","true","M + N","83","","SM","SM98.jpg","forget","old","19","2","practice_forget","left","","","",""
"html-keyboard-response","55","334938","0.0-3.0-3.0-3.2","osc7qtlrxnorsj4","practice_cue","58bdce137b1cda00019b4f0c","5f60e3c0a3b16e07647b2ff9","5f60ed866aed4901bb6f27f3","false","null","<div style=""align-items: center; display: flex; color: darkorange; font-size: 90px""><b>ø</b></div>","null","","","","forget_cue","","","","","","","","","","","","","","","",""
"html-keyboard-response","56","335640","0.0-3.0-3.0-0.3","osc7qtlrxnorsj4","practice_cue","58bdce137b1cda00019b4f0c","5f60e3c0a3b16e07647b2ff9","5f60ed866aed4901bb6f27f3","false","null","<span style=""color: black; font-size: 48px"">N + M</span>","null","","","","resp_prompt","","","","","","","","","","","","","","","",""
"categorize-image","57","336356","0.0-3.0-3.0-1.3","osc7qtlrxnorsj4","practice_cue","58bdce137b1cda00019b4f0c","5f60e3c0a3b16e07647b2ff9","5f60ed866aed4901bb6f27f3","true","713.0899999756366","./Stimuli/ImagesPractice/SN222.jpg","76","","","","test","false","N + M","83","","SN","SN222.jpg","forget","old","20","2","practice_forget","right","","","",""
"html-keyboard-response","58","336858","0.0-3.0-3.0-2.3-0.3","osc7qtlrxnorsj4","practice_cue","58bdce137b1cda00019b4f0c","5f60e3c0a3b16e07647b2ff9","5f60ed866aed4901bb6f27f3","false","null","<span style=""color: red; font-size: 48px"">Error!</span>","null","","","","feedback","","","","","","","","","","","","","","","",""
"html-keyboard-response","59","338858","0.0-3.0-3.0-3.3","osc7qtlrxnorsj4","practice_cue","58bdce137b1cda00019b4f0c","5f60e3c0a3b16e07647b2ff9","5f60ed866aed4901bb6f27f3","false","null","<div style=""align-items: center; display: flex; color: darkorange; font-size: 90px""><b>ø</b></div>","null","","","","forget_cue","","","","","","","","","","","","","","","",""
"html-keyboard-response","60","339559","0.0-3.0-3.0-0.4","osc7qtlrxnorsj4","practice_cue","58bdce137b1cda00019b4f0c","5f60e3c0a3b16e07647b2ff9","5f60ed866aed4901bb6f27f3","false","null","<span style=""color: black; font-size: 48px"">N + M</span>","null","","","","resp_prompt","","","","","","","","","","","","","","","",""
"categorize-image","61","340233","0.0-3.0-3.0-1.4","osc7qtlrxnorsj4","practice_cue","58bdce137b1cda00019b4f0c","5f60e3c0a3b16e07647b2ff9","5f60ed866aed4901bb6f27f3","true","670.6500000145752","./Stimuli/ImagesPractice/LN4.jpg","76","","","","test","false","N + M","83","","LN","LN4.jpg","forget","old","21","2","practice_forget","right","","","",""
"html-keyboard-response","62","340734","0.0-3.0-3.0-2.4-0.4","osc7qtlrxnorsj4","practice_cue","58bdce137b1cda00019b4f0c","5f60e3c0a3b16e07647b2ff9","5f60ed866aed4901bb6f27f3","false","null","<span style=""color: red; font-size: 48px"">Error!</span>","null","","","","feedback","","","","","","","","","","","","","","","",""
"html-keyboard-response","63","342736","0.0-3.0-3.0-3.4","osc7qtlrxnorsj4","practice_cue","58bdce137b1cda00019b4f0c","5f60e3c0a3b16e07647b2ff9","5f60ed866aed4901bb6f27f3","false","null","<div style=""align-items: center; display: flex; color: darkorange; font-size: 90px""><b>ø</b></div>","null","","","","forget_cue","","","","","","","","","","","","","","","",""
"html-keyboard-response","64","343437","0.0-3.0-3.0-0.5","osc7qtlrxnorsj4","practice_cue","58bdce137b1cda00019b4f0c","5f60e3c0a3b16e07647b2ff9","5f60ed866aed4901bb6f27f3","false","null","<span style=""color: black; font-size: 48px"">M + N</span>","null","","","","resp_prompt","","","","","","","","","","","","","","","",""
"categorize-image","65","344176","0.0-3.0-3.0-1.5","osc7qtlrxnorsj4","practice_cue","58bdce137b1cda00019b4f0c","5f60e3c0a3b16e07647b2ff9","5f60ed866aed4901bb6f27f3","true","736.2949999806006","./Stimuli/ImagesPractice/LN2.jpg","76","","","","test","true","M + N","76","","LN","LN2.jpg","remember","old","22","2","practice_forget","right","","","",""
"html-keyboard-response","66","346178","0.0-3.0-3.0-3.5","osc7qtlrxnorsj4","practice_cue","58bdce137b1cda00019b4f0c","5f60e3c0a3b16e07647b2ff9","5f60ed866aed4901bb6f27f3","false","null","<div style=""align-items: center; display: flex; color: dodgerblue; font-size: 90px""><b>o</b></div>","null","","","","forget_cue","","","","","","","","","","","","","","","",""
"html-keyboard-response","67","346879","0.0-3.0-3.0-0.6","osc7qtlrxnorsj4","practice_cue","58bdce137b1cda00019b4f0c","5f60e3c0a3b16e07647b2ff9","5f60ed866aed4901bb6f27f3","false","null","<span style=""color: black; font-size: 48px"">N + M</span>","null","","","","resp_prompt","","","","","","","","","","","","","","","",""
"categorize-image","68","347563","0.0-3.0-3.0-1.6","osc7qtlrxnorsj4","practice_cue","58bdce137b1cda00019b4f0c","5f60e3c0a3b16e07647b2ff9","5f60ed866aed4901bb6f27f3","true","680.0949999887962","./Stimuli/ImagesPractice/SM97.jpg","83","","","","test","false","N + M","76","","SM","SM97.jpg","remember","old","23","2","practice_forget","left","","","",""
"html-keyboard-response","69","348064","0.0-3.0-3.0-2.6-0.6","osc7qtlrxnorsj4","practice_cue","58bdce137b1cda00019b4f0c","5f60e3c0a3b16e07647b2ff9","5f60ed866aed4901bb6f27f3","false","null","<span style=""color: red; font-size: 48px"">Error!</span>","null","","","","feedback","","","","","","","","","","","","","","","",""
"html-keyboard-response","70","350066","0.0-3.0-3.0-3.6","osc7qtlrxnorsj4","practice_cue","58bdce137b1cda00019b4f0c","5f60e3c0a3b16e07647b2ff9","5f60ed866aed4901bb6f27f3","false","null","<div style=""align-items: center; display: flex; color: dodgerblue; font-size: 90px""><b>o</b></div>","null","","","","forget_cue","","","","","","","","","","","","","","","",""
"html-keyboard-response","71","350767","0.0-3.0-3.0-0.7","osc7qtlrxnorsj4","practice_cue","58bdce137b1cda00019b4f0c","5f60e3c0a3b16e07647b2ff9","5f60ed866aed4901bb6f27f3","false","null","<span style=""color: black; font-size: 48px"">M + N</span>","null","","","","resp_prompt","","","","","","","","","","","","","","","",""
"categorize-image","72","351509","0.0-3.0-3.0-1.7","osc7qtlrxnorsj4","practice_cue","58bdce137b1cda00019b4f0c","5f60e3c0a3b16e07647b2ff9","5f60ed866aed4901bb6f27f3","true","737.8449999960139","./Stimuli/ImagesPractice/LM224.jpg","83","","","","test","true","M + N","83","","LM","LM224.jpg","remember","old","24","2","practice_forget","left","","","",""
"html-keyboard-response","73","353510","0.0-3.0-3.0-3.7","osc7qtlrxnorsj4","practice_cue","58bdce137b1cda00019b4f0c","5f60e3c0a3b16e07647b2ff9","5f60ed866aed4901bb6f27f3","false","null","<div style=""align-items: center; display: flex; color: dodgerblue; font-size: 90px""><b>o</b></div>","null","","","","forget_cue","","","","","","","","","","","","","","","",""
"html-keyboard-response","74","354211","0.0-3.0-3.0-0.8","osc7qtlrxnorsj4","practice_cue","58bdce137b1cda00019b4f0c","5f60e3c0a3b16e07647b2ff9","5f60ed866aed4901bb6f27f3","false","null","<span style=""color: black; font-size: 48px"">M + N</span>","null","","","","resp_prompt","","","","","","","","","","","","","","","",""
"categorize-image","75","354750","0.0-3.0-3.0-1.8","osc7qtlrxnorsj4","practice_cue","58bdce137b1cda00019b4f0c","5f60e3c0a3b16e07647b2ff9","5f60ed866aed4901bb6f27f3","true","535.3250000043772","./Stimuli/ImagesPractice/LM230.jpg","83","","","","test","true","M + N","83","","LM","LM230.jpg","remember","old","25","2","practice_forget","left","","","",""
"html-keyboard-response","76","356751","0.0-3.0-3.0-3.8","osc7qtlrxnorsj4","practice_cue","58bdce137b1cda00019b4f0c","5f60e3c0a3b16e07647b2ff9","5f60ed866aed4901bb6f27f3","false","null","<div style=""align-items: center; display: flex; color: dodgerblue; font-size: 90px""><b>o</b></div>","null","","","","forget_cue","","","","","","","","","","","","","","","",""
"html-keyboard-response","77","357452","0.0-3.0-3.0-0.9","osc7qtlrxnorsj4","practice_cue","58bdce137b1cda00019b4f0c","5f60e3c0a3b16e07647b2ff9","5f60ed866aed4901bb6f27f3","false","null","<span style=""color: black; font-size: 48px"">M + N</span>","null","","","","resp_prompt","","","","","","","","","","","","","","","",""
"categorize-image","78","357935","0.0-3.0-3.0-1.9","osc7qtlrxnorsj4","practice_cue","58bdce137b1cda00019b4f0c","5f60e3c0a3b16e07647b2ff9","5f60ed866aed4901bb6f27f3","true","479.29499999736436","./Stimuli/ImagesPractice/LM147.jpg","83","","","","test","true","M + N","83","","LM","LM147.jpg","forget","old","26","2","practice_forget","left","","","",""
"html-keyboard-response","79","359937","0.0-3.0-3.0-3.9","osc7qtlrxnorsj4","practice_cue","58bdce137b1cda00019b4f0c","5f60e3c0a3b16e07647b2ff9","5f60ed866aed4901bb6f27f3","false","null","<div style=""align-items: center; display: flex; color: darkorange; font-size: 90px""><b>ø</b></div>","null","","","","forget_cue","","","","","","","","","","","","","","","",""
"html-keyboard-response","80","360638","0.0-3.0-3.0-0.10","osc7qtlrxnorsj4","practice_cue","58bdce137b1cda00019b4f0c","5f60e3c0a3b16e07647b2ff9","5f60ed866aed4901bb6f27f3","false","null","<span style=""color: black; font-size: 48px"">M + N</span>","null","","","","resp_prompt","","","","","","","","","","","","","","","",""
"categorize-image","81","361353","0.0-3.0-3.0-1.10","osc7qtlrxnorsj4","practice_cue","58bdce137b1cda00019b4f0c","5f60e3c0a3b16e07647b2ff9","5f60ed866aed4901bb6f27f3","true","712.7199999813456","./Stimuli/ImagesPractice/SN220.jpg","76","","","","test","true","M + N","76","","SN","SN220.jpg","forget","old","27","2","practice_forget","right","","","",""
"html-keyboard-response","82","363354","0.0-3.0-3.0-3.10","osc7qtlrxnorsj4","practice_cue","58bdce137b1cda00019b4f0c","5f60e3c0a3b16e07647b2ff9","5f60ed866aed4901bb6f27f3","false","null","<div style=""align-items: center; display: flex; color: darkorange; font-size: 90px""><b>ø</b></div>","null","","","","forget_cue","","","","","","","","","","","","","","","",""
"html-keyboard-response","83","364056","0.0-3.0-3.0-0.11","osc7qtlrxnorsj4","practice_cue","58bdce137b1cda00019b4f0c","5f60e3c0a3b16e07647b2ff9","5f60ed866aed4901bb6f27f3","false","null","<span style=""color: black; font-size: 48px"">M + N</span>","null","","","","resp_prompt","","","","","","","","","","","","","","","",""
"categorize-image","84","364547","0.0-3.0-3.0-1.11","osc7qtlrxnorsj4","practice_cue","58bdce137b1cda00019b4f0c","5f60e3c0a3b16e07647b2ff9","5f60ed866aed4901bb6f27f3","true","487.2800000011921","./Stimuli/ImagesPractice/SN221.jpg","76","","","","test","true","M + N","76","","SN","SN221.jpg","forget","old","28","2","practice_forget","right","","","",""
"html-keyboard-response","85","366548","0.0-3.0-3.0-3.11","osc7qtlrxnorsj4","practice_cue","58bdce137b1cda00019b4f0c","5f60e3c0a3b16e07647b2ff9","5f60ed866aed4901bb6f27f3","false","null","<div style=""align-items: center; display: flex; color: darkorange; font-size: 90px""><b>ø</b></div>","null","","","","forget_cue","","","","","","","","","","","","","","","",""
"html-keyboard-response","86","367249","0.0-3.0-3.0-0.12","osc7qtlrxnorsj4","practice_cue","58bdce137b1cda00019b4f0c","5f60e3c0a3b16e07647b2ff9","5f60ed866aed4901bb6f27f3","false","null","<span style=""color: black; font-size: 48px"">N + M</span>","null","","","","resp_prompt","","","","","","","","","","","","","","","",""
"categorize-image","87","367898","0.0-3.0-3.0-1.12","osc7qtlrxnorsj4","practice_cue","58bdce137b1cda00019b4f0c","5f60e3c0a3b16e07647b2ff9","5f60ed866aed4901bb6f27f3","true","644.9199999915436","./Stimuli/ImagesPractice/LN17.jpg","83","","","","test","true","N + M","83","","LN","LN17.jpg","remember","old","29","2","practice_forget","left","","","",""
"html-keyboard-response","88","369899","0.0-3.0-3.0-3.12","osc7qtlrxnorsj4","practice_cue","58bdce137b1cda00019b4f0c","5f60e3c0a3b16e07647b2ff9","5f60ed866aed4901bb6f27f3","false","null","<div style=""align-items: center; display: flex; color: dodgerblue; font-size: 90px""><b>o</b></div>","null","","","","forget_cue","","","","","","","","","","","","","","","",""
"html-keyboard-response","89","370600","0.0-3.0-3.0-0.13","osc7qtlrxnorsj4","practice_cue","58bdce137b1cda00019b4f0c","5f60e3c0a3b16e07647b2ff9","5f60ed866aed4901bb6f27f3","false","null","<span style=""color: black; font-size: 48px"">N + M</span>","null","","","","resp_prompt","","","","","","","","","","","","","","","",""
"categorize-image","90","371907","0.0-3.0-3.0-1.13","osc7qtlrxnorsj4","practice_cue","58bdce137b1cda00019b4f0c","5f60e3c0a3b16e07647b2ff9","5f60ed866aed4901bb6f27f3","true","1302.93000000529","./Stimuli/ImagesPractice/LN72.jpg","83","","","","test","true","N + M","83","","LN","LN72.jpg","forget","old","30","2","practice_forget","left","","","",""
"html-keyboard-response","91","373908","0.0-3.0-3.0-3.13","osc7qtlrxnorsj4","practice_cue","58bdce137b1cda00019b4f0c","5f60e3c0a3b16e07647b2ff9","5f60ed866aed4901bb6f27f3","false","null","<div style=""align-items: center; display: flex; color: darkorange; font-size: 90px""><b>ø</b></div>","null","","","","forget_cue","","","","","","","","","","","","","","","",""
"html-keyboard-response","92","374610","0.0-3.0-3.0-0.14","osc7qtlrxnorsj4","practice_cue","58bdce137b1cda00019b4f0c","5f60e3c0a3b16e07647b2ff9","5f60ed866aed4901bb6f27f3","false","null","<span style=""color: black; font-size: 48px"">N + M</span>","null","","","","resp_prompt","","","","","","","","","","","","","","","",""
"categorize-image","93","375317","0.0-3.0-3.0-1.14","osc7qtlrxnorsj4","practice_cue","58bdce137b1cda00019b4f0c","5f60e3c0a3b16e07647b2ff9","5f60ed866aed4901bb6f27f3","true","704.8800000047777","./Stimuli/ImagesPractice/SN205.jpg","83","","","","test","true","N + M","83","","SN","SN205.jpg","forget","old","31","2","practice_forget","left","","","",""
"html-keyboard-response","94","377319","0.0-3.0-3.0-3.14","osc7qtlrxnorsj4","practice_cue","58bdce137b1cda00019b4f0c","5f60e3c0a3b16e07647b2ff9","5f60ed866aed4901bb6f27f3","false","null","<div style=""align-items: center; display: flex; color: darkorange; font-size: 90px""><b>ø</b></div>","null","","","","forget_cue","","","","","","","","","","","","","","","",""
"html-keyboard-response","95","378020","0.0-3.0-3.0-0.15","osc7qtlrxnorsj4","practice_cue","58bdce137b1cda00019b4f0c","5f60e3c0a3b16e07647b2ff9","5f60ed866aed4901bb6f27f3","false","null","<span style=""color: black; font-size: 48px"">N + M</span>","null","","","","resp_prompt","","","","","","","","","","","","","","","",""
"categorize-image","96","378664","0.0-3.0-3.0-1.15","osc7qtlrxnorsj4","practice_cue","58bdce137b1cda00019b4f0c","5f60e3c0a3b16e07647b2ff9","5f60ed866aed4901bb6f27f3","true","640.8750000118744","./Stimuli/ImagesPractice/SN75.jpg","83","","","","test","true","N + M","83","","SN","SN75.jpg","remember","old","32","2","practice_forget","left","","","",""
"html-keyboard-response","97","380666","0.0-3.0-3.0-3.15","osc7qtlrxnorsj4","practice_cue","58bdce137b1cda00019b4f0c","5f60e3c0a3b16e07647b2ff9","5f60ed866aed4901bb6f27f3","false","null","<div style=""align-items: center; display: flex; color: dodgerblue; font-size: 90px""><b>o</b></div>","null","","","","forget_cue","","","","","","","","","","","","","","","",""
"html-keyboard-response","98","385655","0.0-3.0-4.0","osc7qtlrxnorsj4","break","58bdce137b1cda00019b4f0c","5f60e3c0a3b16e07647b2ff9","5f60ed866aed4901bb6f27f3","false","4987.715000024764","<p style='font-size: 32px;'>Break</><br><br><br><br><br><p style='font-size: 24px;'>In the last block, you committed 3 errors and did not respond in time on 0 trials.
</p><p style='font-size: 24px;'>Try to respond as fast and accurately as possible in the next block as well! </p><p style='font-size: 24px;'>Press SPACE to continue.</p>","32","","","","","","","","","","","","","","","","","","","",""
"html-keyboard-response","99","409559","0.0-3.0-5.0","osc7qtlrxnorsj4","instructions","58bdce137b1cda00019b4f0c","5f60e3c0a3b16e07647b2ff9","5f60ed866aed4901bb6f27f3","false","23903.615000017453","<div align=left> Now, to practice, we kindly ask you to remember as many of the to-be-remembered pictures<br>of the previous learning phase as possible.<br><br>The pictures you were instructed to remember were the pictures followed by a <span style='color: dodgerblue; font-size: 28px'>O</span>.<br><br>In this memory test phase, you will also see some new pictures.<br>It is your task to remember whether you were presented with this specific picture in this study so far or not.<br>If you recognize an object (you have already seen it in this study), it is an OLD object. <br>If you do not recognize an object (you have NOT seen it in this study), it is a NEW object. <br><strong> Attention</strong>: As already mentioned, <span style='color: darkorange; font-size:28px'>Ø</span>-pictures will <strong>never</strong> appear in this memory test (neither as new objects). <br><br>Press SPACE to continue. </div>","32","","","","","","","","","","","","","","","","","","","",""
"html-keyboard-response","100","427050","0.0-3.0-6.0","osc7qtlrxnorsj4","instructions","58bdce137b1cda00019b4f0c","5f60e3c0a3b16e07647b2ff9","5f60ed866aed4901bb6f27f3","false","17490.310000022873","<div align=left> M and N no longer will appear on the left/right of the fixation cross. <br>Instead there will be a note at the bottom of the left or right side  <br>indicating which key you should press for an old or new object:  <br> <br>Press the <strong>right</strong> key to classify an object as <strong>old</strong> and press the <strong>left</strong>, to classify an object as <strong>new</strong>.<br>Please classify the objects as new/old by again placing your index finger on the 'S' and 'L' keys <br>and press them accordingly.<br><br><strong>Old:</strong> This object has been presented before. <br><strong>New:</strong> This object has <strong>not</strong> been presented.<br><br>Now please put your right and left index fingers on the 'S' and 'L' keys of your keyboard. <br>Please respond as fast and as accurately as possible!<br><br>Press SPACE to continue. </div>","32","","","","","","","","","","","","","","","","","","","",""
"categorize-image","101","428853","0.0-3.0-7.0-0.0","osc7qtlrxnorsj4","practice_recog","58bdce137b1cda00019b4f0c","5f60e3c0a3b16e07647b2ff9","5f60ed866aed4901bb6f27f3","true","1300.5349999875762","./Stimuli/ImagesPractice/SN75.jpg","83","","","","test","false","","76","","SN","SN75.jpg","","old","33","3","practice_recog","left","","","",""
"categorize-image","102","430507","0.0-3.0-7.0-0.1","osc7qtlrxnorsj4","practice_recog","58bdce137b1cda00019b4f0c","5f60e3c0a3b16e07647b2ff9","5f60ed866aed4901bb6f27f3","true","1152.2450000047684","./Stimuli/ImagesPractice/LN2.jpg","76","","","","test","true","","76","","LN","LN2.jpg","","old","34","3","practice_recog","right","","","",""
"categorize-image","103","431957","0.0-3.0-7.0-0.2","osc7qtlrxnorsj4","practice_recog","58bdce137b1cda00019b4f0c","5f60e3c0a3b16e07647b2ff9","5f60ed866aed4901bb6f27f3","true","948.0699999839999","./Stimuli/ImagesPractice/LM143.jpg","83","","","","test","true","","83","","LM","LM143.jpg","","new","35","3","practice_recog","left","","","",""
"categorize-image","104","433539","0.0-3.0-7.0-0.3","osc7qtlrxnorsj4","practice_recog","58bdce137b1cda00019b4f0c","5f60e3c0a3b16e07647b2ff9","5f60ed866aed4901bb6f27f3","true","1080.5249999975786","./Stimuli/ImagesPractice/LN17.jpg","76","","","","test","true","","76","","LN","LN17.jpg","","old","36","3","practice_recog","right","","","",""
"categorize-image","105","434676","0.0-3.0-7.0-0.4","osc7qtlrxnorsj4","practice_recog","58bdce137b1cda00019b4f0c","5f60e3c0a3b16e07647b2ff9","5f60ed866aed4901bb6f27f3","true","634.9500000069384","./Stimuli/ImagesPractice/SM97.jpg","76","","","","test","true","","76","","SM","SM97.jpg","","old","37","3","practice_recog","right","","","",""
"categorize-image","106","435667","0.0-3.0-7.0-0.5","osc7qtlrxnorsj4","practice_recog","58bdce137b1cda00019b4f0c","5f60e3c0a3b16e07647b2ff9","5f60ed866aed4901bb6f27f3","true","489.9050000240095","./Stimuli/ImagesPractice/LM239.jpg","76","","","","test","true","","76","","LM","LM239.jpg","","old","38","3","practice_recog","right","","","",""
"categorize-image","107","436730","0.0-3.0-7.0-0.6","osc7qtlrxnorsj4","practice_recog","58bdce137b1cda00019b4f0c","5f60e3c0a3b16e07647b2ff9","5f60ed866aed4901bb6f27f3","true","560.9800000092946","./Stimuli/ImagesPractice/SM35.jpg","76","","","","test","true","","76","","SM","SM35.jpg","","old","39","3","practice_recog","right","","","",""
"categorize-image","108","438214","0.0-3.0-7.0-0.7","osc7qtlrxnorsj4","practice_recog","58bdce137b1cda00019b4f0c","5f60e3c0a3b16e07647b2ff9","5f60ed866aed4901bb6f27f3","true","981.6400000127032","./Stimuli/ImagesPractice/SM61.jpg","83","","","","test","true","","83","","SM","SM61.jpg","","new","40","3","practice_recog","left","","","",""
"categorize-image","109","439359","0.0-3.0-7.0-0.8","osc7qtlrxnorsj4","practice_recog","58bdce137b1cda00019b4f0c","5f60e3c0a3b16e07647b2ff9","5f60ed866aed4901bb6f27f3","true","644.1250000207219","./Stimuli/ImagesPractice/SM62.jpg","83","","","","test","true","","83","","SM","SM62.jpg","","new","41","3","practice_recog","left","","","",""
"categorize-image","110","440362","0.0-3.0-7.0-0.9","osc7qtlrxnorsj4","practice_recog","58bdce137b1cda00019b4f0c","5f60e3c0a3b16e07647b2ff9","5f60ed866aed4901bb6f27f3","true","500.21499997819774","./Stimuli/ImagesPractice/SM37.jpg","83","","","","test","true","","83","","SM","SM37.jpg","","new","42","3","practice_recog","left","","","",""
"categorize-image","111","441457","0.0-3.0-7.0-0.10","osc7qtlrxnorsj4","practice_recog","58bdce137b1cda00019b4f0c","5f60e3c0a3b16e07647b2ff9","5f60ed866aed4901bb6f27f3","true","593.684999999823","./Stimuli/ImagesPractice/LN15.jpg","83","","","","test","true","","83","","LN","LN15.jpg","","new","43","3","practice_recog","left","","","",""
"categorize-image","112","442468","0.0-3.0-7.0-0.11","osc7qtlrxnorsj4","practice_recog","58bdce137b1cda00019b4f0c","5f60e3c0a3b16e07647b2ff9","5f60ed866aed4901bb6f27f3","true","509.89000001573004","./Stimuli/ImagesPractice/SN76.jpg","83","","","","test","true","","83","","SN","SN76.jpg","","new","44","3","practice_recog","left","","","",""
"categorize-image","113","443497","0.0-3.0-7.0-0.12","osc7qtlrxnorsj4","practice_recog","58bdce137b1cda00019b4f0c","5f60e3c0a3b16e07647b2ff9","5f60ed866aed4901bb6f27f3","true","527.2899999981746","./Stimuli/ImagesPractice/LM55.jpg","83","","","","test","true","","83","","LM","LM55.jpg","","new","45","3","practice_recog","left","","","",""
"categorize-image","114","444514","0.0-3.0-7.0-0.13","osc7qtlrxnorsj4","practice_recog","58bdce137b1cda00019b4f0c","5f60e3c0a3b16e07647b2ff9","5f60ed866aed4901bb6f27f3","true","515.5150000064168","./Stimuli/ImagesPractice/LM224.jpg","76","","","","test","true","","76","","LM","LM224.jpg","","old","46","3","practice_recog","right","","","",""
"categorize-image","115","445574","0.0-3.0-7.0-0.14","osc7qtlrxnorsj4","practice_recog","58bdce137b1cda00019b4f0c","5f60e3c0a3b16e07647b2ff9","5f60ed866aed4901bb6f27f3","true","558.0799999879673","./Stimuli/ImagesPractice/LM230.jpg","76","","","","test","true","","76","","LM","LM230.jpg","","old","47","3","practice_recog","right","","","",""
"categorize-image","116","446643","0.0-3.0-7.0-0.15","osc7qtlrxnorsj4","practice_recog","58bdce137b1cda00019b4f0c","5f60e3c0a3b16e07647b2ff9","5f60ed866aed4901bb6f27f3","true","567.7099999738857","./Stimuli/ImagesPractice/LN109.jpg","83","","","","test","true","","83","","LN","LN109.jpg","","new","48","3","practice_recog","left","","","",""
"html-keyboard-response","117","448360","0.0-3.0-8.0","osc7qtlrxnorsj4","instructions","58bdce137b1cda00019b4f0c","5f60e3c0a3b16e07647b2ff9","5f60ed866aed4901bb6f27f3","false","1716.935000004014","<div align=left> Great!<br><br>Are you ready to continue?<br>If you want to reread the instructions and redo the practice trials, please <br>press „Z“.<br><br>You can proceed when you are ready.<br><br>After the presentation of each object, you will receive an instruction whether to <br>remember or to forget the object.<br>We will test your memory of the following pictures only at the very end of <br>the experiment after all learning blocks are completed. <br><br>Press SPACE to CONTINUE when you are ready. </div>","32","","","","","","","","","","","","","","","","","","","",""
"html-keyboard-response","118","453175","0.0-4.0-0.0","osc7qtlrxnorsj4","instructions","58bdce137b1cda00019b4f0c","5f60e3c0a3b16e07647b2ff9","5f60ed866aed4901bb6f27f3","false","4814.335000002757","<div align=left> The actual experiment is about to start.<br>The practice trials are over!<br><br>Please always respond both fast and accurately!<br><br>Remember: <br> <br><li> Please place your index fingers on the <strong>'S'</strong> and <strong>'L'</strong> keys <br>to respond as fast and accurately as possible.</li><li> Every picture can be classified as either mechanical or non-mechanical.</li><li> If you do not respond in time or commit an error, you will receive a corresponding feedback.<br> Please try to respond as <strong> fast </strong> and as <strong> accurately as possible </strong>.</li><li> Remember the <span style='color: dodgerblue; font-size: 28px'>O</span> pictures. <br></li><li> Please minimize distractions and stay focused. </li><br><br>Press SPACE to START.</div>","32","","","","","","","","","","","","","","","","","","","",""
"html-keyboard-response","119","453877","0.0-4.0-1.0-0.0","osc7qtlrxnorsj4","prime","58bdce137b1cda00019b4f0c","5f60e3c0a3b16e07647b2ff9","5f60ed866aed4901bb6f27f3","false","null","<span style=""color: black; font-size: 48px"">N + M</span>","null","","","","resp_prompt","","","","","","","","","","","","","","","",""
"categorize-image","120","455020","0.0-4.0-1.0-1.0","osc7qtlrxnorsj4","prime","58bdce137b1cda00019b4f0c","5f60e3c0a3b16e07647b2ff9","5f60ed866aed4901bb6f27f3","true","1139.0949999913573","./Stimuli/SelectedImages/SN/SN187.bmp","83","","","","test","true","N + M","83","repetition","SN","SN187.bmp","forget","","49","3","prime1","left","","","",""
"html-keyboard-response","121","457021","0.0-4.0-1.0-3.0","osc7qtlrxnorsj4","prime","58bdce137b1cda00019b4f0c","5f60e3c0a3b16e07647b2ff9","5f60ed866aed4901bb6f27f3","false","null","<div style=""align-items: center; display: flex; color: darkorange; font-size: 90px""><b>ø</b></div>","null","","","","forget_cue","","","","","","","","","","","","","","","",""
"html-keyboard-response","122","457722","0.0-4.0-1.0-0.1","osc7qtlrxnorsj4","prime","58bdce137b1cda00019b4f0c","5f60e3c0a3b16e07647b2ff9","5f60ed866aed4901bb6f27f3","false","null","<span style=""color: black; font-size: 48px"">N + M</span>","null","","","","resp_prompt","","","","","","","","","","","","","","","",""
"categorize-image","123","458889","0.0-4.0-1.0-1.1","osc7qtlrxnorsj4","prime","58bdce137b1cda00019b4f0c","5f60e3c0a3b16e07647b2ff9","5f60ed866aed4901bb6f27f3","true","1163.1800000031944","./Stimuli/SelectedImages/LM/LM58.bmp","76","","","","test","true","N + M","76","switch","LM","LM58.bmp","forget","","50","3","prime1","right","","","",""
"html-keyboard-response","124","460889","0.0-4.0-1.0-3.1","osc7qtlrxnorsj4","prime","58bdce137b1cda00019b4f0c","5f60e3c0a3b16e07647b2ff9","5f60ed866aed4901bb6f27f3","false","null","<div style=""align-items: center; display: flex; color: darkorange; font-size: 90px""><b>ø</b></div>","null","","","","forget_cue","","","","","","","","","","","","","","","",""
"html-keyboard-response","125","461591","0.0-4.0-1.0-0.2","osc7qtlrxnorsj4","prime","58bdce137b1cda00019b4f0c","5f60e3c0a3b16e07647b2ff9","5f60ed866aed4901bb6f27f3","false","null","<span style=""color: black; font-size: 48px"">N + M</span>","null","","","","resp_prompt","","","","","","","","","","","","","","","",""
"categorize-image","126","462124","0.0-4.0-1.0-1.2","osc7qtlrxnorsj4","prime","58bdce137b1cda00019b4f0c","5f60e3c0a3b16e07647b2ff9","5f60ed866aed4901bb6f27f3","true","529.7699999937322","./Stimuli/SelectedImages/SM/SM76.bmp","76","","","","test","true","N + M","76","switch","SM","SM76.bmp","forget","","51","3","prime1","right","","","",""
"html-keyboard-response","127","464125","0.0-4.0-1.0-3.2","osc7qtlrxnorsj4","prime","58bdce137b1cda00019b4f0c","5f60e3c0a3b16e07647b2ff9","5f60ed866aed4901bb6f27f3","false","null","<div style=""align-items: center; display: flex; color: darkorange; font-size: 90px""><b>ø</b></div>","null","","","","forget_cue","","","","","","","","","","","","","","","",""
"html-keyboard-response","128","464826","0.0-4.0-1.0-0.3","osc7qtlrxnorsj4","prime","58bdce137b1cda00019b4f0c","5f60e3c0a3b16e07647b2ff9","5f60ed866aed4901bb6f27f3","false","null","<span style=""color: black; font-size: 48px"">N + M</span>","null","","","","resp_prompt","","","","","","","","","","","","","","","",""
"categorize-image","129","465479","0.0-4.0-1.0-1.3","osc7qtlrxnorsj4","prime","58bdce137b1cda00019b4f0c","5f60e3c0a3b16e07647b2ff9","5f60ed866aed4901bb6f27f3","true","648.9349999756087","./Stimuli/SelectedImages/SN/SN111.bmp","83","","","","test","true","N + M","83","switch","SN","SN111.bmp","forget","","52","3","prime1","left","","","",""
"html-keyboard-response","130","467480","0.0-4.0-1.0-3.3","osc7qtlrxnorsj4","prime","58bdce137b1cda00019b4f0c","5f60e3c0a3b16e07647b2ff9","5f60ed866aed4901bb6f27f3","false","null","<div style=""align-items: center; display: flex; color: darkorange; font-size: 90px""><b>ø</b></div>","null","","","","forget_cue","","","","","","","","","","","","","","","",""
"html-keyboard-response","131","468182","0.0-4.0-1.0-0.4","osc7qtlrxnorsj4","prime","58bdce137b1cda00019b4f0c","5f60e3c0a3b16e07647b2ff9","5f60ed866aed4901bb6f27f3","false","null","<span style=""color: black; font-size: 48px"">N + M</span>","null","","","","resp_prompt","","","","","","","","","","","","","","","",""
"categorize-image","132","469070","0.0-4.0-1.0-1.4","osc7qtlrxnorsj4","prime","58bdce137b1cda00019b4f0c","5f60e3c0a3b16e07647b2ff9","5f60ed866aed4901bb6f27f3","true","884.8899999866262","./Stimuli/SelectedImages/SN/SN18.bmp","83","","","","test","true","N + M","83","switch","SN","SN18.bmp","remember","","53","3","prime1","left","","","",""
"html-keyboard-response","133","471071","0.0-4.0-1.0-3.4","osc7qtlrxnorsj4","prime","58bdce137b1cda00019b4f0c","5f60e3c0a3b16e07647b2ff9","5f60ed866aed4901bb6f27f3","false","null","<div style=""align-items: center; display: flex; color: dodgerblue; font-size: 90px""><b>o</b></div>","null","","","","forget_cue","","","","","","","","","","","","","","","",""
"html-keyboard-response","134","471773","0.0-4.0-1.0-0.5","osc7qtlrxnorsj4","prime","58bdce137b1cda00019b4f0c","5f60e3c0a3b16e07647b2ff9","5f60ed866aed4901bb6f27f3","false","null","<span style=""color: black; font-size: 48px"">N + M</span>","null","","","","resp_prompt","","","","","","","","","","","","","","","",""
"categorize-image","135","472263","0.0-4.0-1.0-1.5","osc7qtlrxnorsj4","prime","58bdce137b1cda00019b4f0c","5f60e3c0a3b16e07647b2ff9","5f60ed866aed4901bb6f27f3","true","486.0099999932572","./Stimuli/SelectedImages/LM/LM59.bmp","76","","","","test","true","N + M","76","repetition","LM","LM59.bmp","forget","","54","3","prime1","right","","","",""
"html-keyboard-response","136","474263","0.0-4.0-1.0-3.5","osc7qtlrxnorsj4","prime","58bdce137b1cda00019b4f0c","5f60e3c0a3b16e07647b2ff9","5f60ed866aed4901bb6f27f3","false","null","<div style=""align-items: center; display: flex; color: darkorange; font-size: 90px""><b>ø</b></div>","null","","","","forget_cue","","","","","","","","","","","","","","","",""
"html-keyboard-response","137","474965","0.0-4.0-1.0-0.6","osc7qtlrxnorsj4","prime","58bdce137b1cda00019b4f0c","5f60e3c0a3b16e07647b2ff9","5f60ed866aed4901bb6f27f3","false","null","<span style=""color: black; font-size: 48px"">M + N</span>","null","","","","resp_prompt","","","","","","","","","","","","","","","",""
"categorize-image","138","475472","0.0-4.0-1.0-1.6","osc7qtlrxnorsj4","prime","58bdce137b1cda00019b4f0c","5f60e3c0a3b16e07647b2ff9","5f60ed866aed4901bb6f27f3","true","502.7949999785051","./Stimuli/SelectedImages/LM/LM48.bmp","83","","","","test","true","M + N","83","repetition","LM","LM48.bmp","remember","","55","3","prime1","left","","","",""
"html-keyboard-response","139","477473","0.0-4.0-1.0-3.6","osc7qtlrxnorsj4","prime","58bdce137b1cda00019b4f0c","5f60e3c0a3b16e07647b2ff9","5f60ed866aed4901bb6f27f3","false","null","<div style=""align-items: center; display: flex; color: dodgerblue; font-size: 90px""><b>o</b></div>","null","","","","forget_cue","","","","","","","","","","","","","","","",""
"html-keyboard-response","140","478175","0.0-4.0-1.0-0.7","osc7qtlrxnorsj4","prime","58bdce137b1cda00019b4f0c","5f60e3c0a3b16e07647b2ff9","5f60ed866aed4901bb6f27f3","false","null","<span style=""color: black; font-size: 48px"">M + N</span>","null","","","","resp_prompt","","","","","","","","","","","","","","","",""
"categorize-image","141","479074","0.0-4.0-1.0-1.7","osc7qtlrxnorsj4","prime","58bdce137b1cda00019b4f0c","5f60e3c0a3b16e07647b2ff9","5f60ed866aed4901bb6f27f3","true","896.2049999972805","./Stimuli/SelectedImages/LN/LN12.bmp","76","","","","test","true","M + N","76","switch","LN","LN12.bmp","remember","","56","3","prime1","right","","","",""
"html-keyboard-response","142","481075","0.0-4.0-1.0-3.7","osc7qtlrxnorsj4","prime","58bdce137b1cda00019b4f0c","5f60e3c0a3b16e07647b2ff9","5f60ed866aed4901bb6f27f3","false","null","<div style=""align-items: center; display: flex; color: dodgerblue; font-size: 90px""><b>o</b></div>","null","","","","forget_cue","","","","","","","","","","","","","","","",""
"html-keyboard-response","143","481777","0.0-4.0-1.0-0.8","osc7qtlrxnorsj4","prime","58bdce137b1cda00019b4f0c","5f60e3c0a3b16e07647b2ff9","5f60ed866aed4901bb6f27f3","false","null","<span style=""color: black; font-size: 48px"">N + M</span>","null","","","","resp_prompt","","","","","","","","","","","","","","","",""
"categorize-image","144","482430","0.0-4.0-1.0-1.8","osc7qtlrxnorsj4","prime","58bdce137b1cda00019b4f0c","5f60e3c0a3b16e07647b2ff9","5f60ed866aed4901bb6f27f3","true","649.3799999880139","./Stimuli/SelectedImages/LN/LN82.bmp","83","","","","test","true","N + M","83","repetition","LN","LN82.bmp","forget","","57","3","prime1","left","","","",""
"html-keyboard-response","145","484431","0.0-4.0-1.0-3.8","osc7qtlrxnorsj4","prime","58bdce137b1cda00019b4f0c","5f60e3c0a3b16e07647b2ff9","5f60ed866aed4901bb6f27f3","false","null","<div style=""align-items: center; display: flex; color: darkorange; font-size: 90px""><b>ø</b></div>","null","","","","forget_cue","","","","","","","","","","","","","","","",""
"html-keyboard-response","146","485132","0.0-4.0-1.0-0.9","osc7qtlrxnorsj4","prime","58bdce137b1cda00019b4f0c","5f60e3c0a3b16e07647b2ff9","5f60ed866aed4901bb6f27f3","false","null","<span style=""color: black; font-size: 48px"">N + M</span>","null","","","","resp_prompt","","","","","","","","","","","","","","","",""
"categorize-image","147","485577","0.0-4.0-1.0-1.9","osc7qtlrxnorsj4","prime","58bdce137b1cda00019b4f0c","5f60e3c0a3b16e07647b2ff9","5f60ed866aed4901bb6f27f3","true","441.7749999847729","./Stimuli/SelectedImages/SN/SN52.bmp","83","","","","test","true","N + M","83","repetition","SN","SN52.bmp","remember","","58","3","prime1","left","","","",""
"html-keyboard-response","148","487578","0.0-4.0-1.0-3.9","osc7qtlrxnorsj4","prime","58bdce137b1cda00019b4f0c","5f60e3c0a3b16e07647b2ff9","5f60ed866aed4901bb6f27f3","false","null","<div style=""align-items: center; display: flex; color: dodgerblue; font-size: 90px""><b>o</b></div>","null","","","","forget_cue","","","","","","","","","","","","","","","",""
"html-keyboard-response","149","488280","0.0-4.0-1.0-0.10","osc7qtlrxnorsj4","prime","58bdce137b1cda00019b4f0c","5f60e3c0a3b16e07647b2ff9","5f60ed866aed4901bb6f27f3","false","null","<span style=""color: black; font-size: 48px"">N + M</span>","null","","","","resp_prompt","","","","","","","","","","","","","","","",""
"categorize-image","150","488731","0.0-4.0-1.0-1.10","osc7qtlrxnorsj4","prime","58bdce137b1cda00019b4f0c","5f60e3c0a3b16e07647b2ff9","5f60ed866aed4901bb6f27f3","true","446.83999998960644","./Stimuli/SelectedImages/SN/SN240.bmp","83","","","","test","true","N + M","83","repetition","SN","SN240.bmp","remember","","59","3","prime1","left","","","",""
"html-keyboard-response","151","490733","0.0-4.0-1.0-3.10","osc7qtlrxnorsj4","prime","58bdce137b1cda00019b4f0c","5f60e3c0a3b16e07647b2ff9","5f60ed866aed4901bb6f27f3","false","null","<div style=""align-items: center; display: flex; color: dodgerblue; font-size: 90px""><b>o</b></div>","null","","","","forget_cue","","","","","","","","","","","","","","","",""
"html-keyboard-response","152","491434","0.0-4.0-1.0-0.11","osc7qtlrxnorsj4","prime","58bdce137b1cda00019b4f0c","5f60e3c0a3b16e07647b2ff9","5f60ed866aed4901bb6f27f3","false","null","<span style=""color: black; font-size: 48px"">M + N</span>","null","","","","resp_prompt","","","","","","","","","","","","","","","",""
"categorize-image","153","491933","0.0-4.0-1.0-1.11","osc7qtlrxnorsj4","prime","58bdce137b1cda00019b4f0c","5f60e3c0a3b16e07647b2ff9","5f60ed866aed4901bb6f27f3","true","495.58499999693595","./Stimuli/SelectedImages/SM/SM17.bmp","83","","","","test","true","M + N","83","switch","SM","SM17.bmp","remember","","60","3","prime1","left","","","",""
"html-keyboard-response","154","493934","0.0-4.0-1.0-3.11","osc7qtlrxnorsj4","prime","58bdce137b1cda00019b4f0c","5f60e3c0a3b16e07647b2ff9","5f60ed866aed4901bb6f27f3","false","null","<div style=""align-items: center; display: flex; color: dodgerblue; font-size: 90px""><b>o</b></div>","null","","","","forget_cue","","","","","","","","","","","","","","","",""
"html-keyboard-response","155","494635","0.0-4.0-1.0-0.12","osc7qtlrxnorsj4","prime","58bdce137b1cda00019b4f0c","5f60e3c0a3b16e07647b2ff9","5f60ed866aed4901bb6f27f3","false","null","<span style=""color: black; font-size: 48px"">N + M</span>","null","","","","resp_prompt","","","","","","","","","","","","","","","",""
"categorize-image","156","495160","0.0-4.0-1.0-1.12","osc7qtlrxnorsj4","prime","58bdce137b1cda00019b4f0c","5f60e3c0a3b16e07647b2ff9","5f60ed866aed4901bb6f27f3","true","521.0650000080932","./Stimuli/SelectedImages/LM/LM235.bmp","76","","","","test","true","N + M","76","repetition","LM","LM235.bmp","forget","","61","3","prime1","right","","","",""
"html-keyboard-response","157","497161","0.0-4.0-1.0-3.12","osc7qtlrxnorsj4","prime","58bdce137b1cda00019b4f0c","5f60e3c0a3b16e07647b2ff9","5f60ed866aed4901bb6f27f3","false","null","<div style=""align-items: center; display: flex; color: darkorange; font-size: 90px""><b>ø</b></div>","null","","","","forget_cue","","","","","","","","","","","","","","","",""
"html-keyboard-response","158","497863","0.0-4.0-1.0-0.13","osc7qtlrxnorsj4","prime","58bdce137b1cda00019b4f0c","5f60e3c0a3b16e07647b2ff9","5f60ed866aed4901bb6f27f3","false","null","<span style=""color: black; font-size: 48px"">N + M</span>","null","","","","resp_prompt","","","","","","","","","","","","","","","",""
"categorize-image","159","498821","0.0-4.0-1.0-1.13","osc7qtlrxnorsj4","prime","58bdce137b1cda00019b4f0c","5f60e3c0a3b16e07647b2ff9","5f60ed866aed4901bb6f27f3","true","954.0900000138208","./Stimuli/SelectedImages/SM/SM200.bmp","76","","","","test","true","N + M","76","repetition","SM","SM200.bmp","remember","","62","3","prime1","right","","","",""
"html-keyboard-response","160","500822","0.0-4.0-1.0-3.13","osc7qtlrxnorsj4","prime","58bdce137b1cda00019b4f0c","5f60e3c0a3b16e07647b2ff9","5f60ed866aed4901bb6f27f3","false","null","<div style=""align-items: center; display: flex; color: dodgerblue; font-size: 90px""><b>o</b></div>","null","","","","forget_cue","","","","","","","","","","","","","","","",""
"html-keyboard-response","161","501523","0.0-4.0-1.0-0.14","osc7qtlrxnorsj4","prime","58bdce137b1cda00019b4f0c","5f60e3c0a3b16e07647b2ff9","5f60ed866aed4901bb6f27f3","false","null","<span style=""color: black; font-size: 48px"">M + N</span>","null","","","","resp_prompt","","","","","","","","","","","","","","","",""
"categorize-image","162","501960","0.0-4.0-1.0-1.14","osc7qtlrxnorsj4","prime","58bdce137b1cda00019b4f0c","5f60e3c0a3b16e07647b2ff9","5f60ed866aed4901bb6f27f3","true","434.41499999607913","./Stimuli/SelectedImages/LM/LM216.bmp","83","","","","test","true","M + N","83","repetition","LM","LM216.bmp","forget","","63","3","prime1","left","","","",""
"html-keyboard-response","163","503961","0.0-4.0-1.0-3.14","osc7qtlrxnorsj4","prime","58bdce137b1cda00019b4f0c","5f60e3c0a3b16e07647b2ff9","5f60ed866aed4901bb6f27f3","false","null","<div style=""align-items: center; display: flex; color: darkorange; font-size: 90px""><b>ø</b></div>","null","","","","forget_cue","","","","","","","","","","","","","","","",""
"html-keyboard-response","164","504663","0.0-4.0-1.0-0.15","osc7qtlrxnorsj4","prime","58bdce137b1cda00019b4f0c","5f60e3c0a3b16e07647b2ff9","5f60ed866aed4901bb6f27f3","false","null","<span style=""color: black; font-size: 48px"">M + N</span>","null","","","","resp_prompt","","","","","","","","","","","","","","","",""
"categorize-image","165","505165","0.0-4.0-1.0-1.15","osc7qtlrxnorsj4","prime","58bdce137b1cda00019b4f0c","5f60e3c0a3b16e07647b2ff9","5f60ed866aed4901bb6f27f3","true","498.7550000078045","./Stimuli/SelectedImages/SN/SN64.bmp","76","","","","test","true","M + N","76","switch","SN","SN64.bmp","forget","","64","3","prime1","right","","","",""
"html-keyboard-response","166","507167","0.0-4.0-1.0-3.15","osc7qtlrxnorsj4","prime","58bdce137b1cda00019b4f0c","5f60e3c0a3b16e07647b2ff9","5f60ed866aed4901bb6f27f3","false","null","<div style=""align-items: center; display: flex; color: darkorange; font-size: 90px""><b>ø</b></div>","null","","","","forget_cue","","","","","","","","","","","","","","","",""
"html-keyboard-response","167","507869","0.0-4.0-1.0-0.16","osc7qtlrxnorsj4","prime","58bdce137b1cda00019b4f0c","5f60e3c0a3b16e07647b2ff9","5f60ed866aed4901bb6f27f3","false","null","<span style=""color: black; font-size: 48px"">M + N</span>","null","","","","resp_prompt","","","","","","","","","","","","","","","",""
"categorize-image","168","508438","0.0-4.0-1.0-1.16","osc7qtlrxnorsj4","prime","58bdce137b1cda00019b4f0c","5f60e3c0a3b16e07647b2ff9","5f60ed866aed4901bb6f27f3","true","565.565000026254","./Stimuli/SelectedImages/SN/SN181.bmp","76","","","","test","true","M + N","76","switch","SN","SN181.bmp","remember","","65","3","prime1","right","","","",""
"html-keyboard-response","169","510439","0.0-4.0-1.0-3.16","osc7qtlrxnorsj4","prime","58bdce137b1cda00019b4f0c","5f60e3c0a3b16e07647b2ff9","5f60ed866aed4901bb6f27f3","false","null","<div style=""align-items: center; display: flex; color: dodgerblue; font-size: 90px""><b>o</b></div>","null","","","","forget_cue","","","","","","","","","","","","","","","",""
"html-keyboard-response","170","511141","0.0-4.0-1.0-0.17","osc7qtlrxnorsj4","prime","58bdce137b1cda00019b4f0c","5f60e3c0a3b16e07647b2ff9","5f60ed866aed4901bb6f27f3","false","null","<span style=""color: black; font-size: 48px"">M + N</span>","null","","","","resp_prompt","","","","","","","","","","","","","","","",""
"categorize-image","171","511633","0.0-4.0-1.0-1.17","osc7qtlrxnorsj4","prime","58bdce137b1cda00019b4f0c","5f60e3c0a3b16e07647b2ff9","5f60ed866aed4901bb6f27f3","true","489.18000000412576","./Stimuli/SelectedImages/LM/LM157.bmp","83","","","","test","true","M + N","83","repetition","LM","LM157.bmp","remember","","66","3","prime1","left","","","",""
"html-keyboard-response","172","513634","0.0-4.0-1.0-3.17","osc7qtlrxnorsj4","prime","58bdce137b1cda00019b4f0c","5f60e3c0a3b16e07647b2ff9","5f60ed866aed4901bb6f27f3","false","null","<div style=""align-items: center; display: flex; color: dodgerblue; font-size: 90px""><b>o</b></div>","null","","","","forget_cue","","","","","","","","","","","","","","","",""
"html-keyboard-response","173","514335","0.0-4.0-1.0-0.18","osc7qtlrxnorsj4","prime","58bdce137b1cda00019b4f0c","5f60e3c0a3b16e07647b2ff9","5f60ed866aed4901bb6f27f3","false","null","<span style=""color: black; font-size: 48px"">N + M</span>","null","","","","resp_prompt","","","","","","","","","","","","","","","",""
"categorize-image","174","514856","0.0-4.0-1.0-1.18","osc7qtlrxnorsj4","prime","58bdce137b1cda00019b4f0c","5f60e3c0a3b16e07647b2ff9","5f60ed866aed4901bb6f27f3","true","517.6349999965169","./Stimuli/SelectedImages/SM/SM128.bmp","76","","","","test","true","N + M","76","switch","SM","SM128.bmp","remember","","67","3","prime1","right","","","",""
"html-keyboard-response","175","516857","0.0-4.0-1.0-3.18","osc7qtlrxnorsj4","prime","58bdce137b1cda00019b4f0c","5f60e3c0a3b16e07647b2ff9","5f60ed866aed4901bb6f27f3","false","null","<div style=""align-items: center; display: flex; color: dodgerblue; font-size: 90px""><b>o</b></div>","null","","","","forget_cue","","","","","","","","","","","","","","","",""
"html-keyboard-response","176","517559","0.0-4.0-1.0-0.19","osc7qtlrxnorsj4","prime","58bdce137b1cda00019b4f0c","5f60e3c0a3b16e07647b2ff9","5f60ed866aed4901bb6f27f3","false","null","<span style=""color: black; font-size: 48px"">M + N</span>","null","","","","resp_prompt","","","","","","","","","","","","","","","",""
"categorize-image","177","518063","0.0-4.0-1.0-1.19","osc7qtlrxnorsj4","prime","58bdce137b1cda00019b4f0c","5f60e3c0a3b16e07647b2ff9","5f60ed866aed4901bb6f27f3","true","501.08499999623746","./Stimuli/SelectedImages/SN/SN179.bmp","76","","","","test","true","M + N","76","switch","SN","SN179.bmp","forget","","68","3","prime1","right","","","",""
"html-keyboard-response","178","520064","0.0-4.0-1.0-3.19","osc7qtlrxnorsj4","prime","58bdce137b1cda00019b4f0c","5f60e3c0a3b16e07647b2ff9","5f60ed866aed4901bb6f27f3","false","null","<div style=""align-items: center; display: flex; color: darkorange; font-size: 90px""><b>ø</b></div>","null","","","","forget_cue","","","","","","","","","","","","","","","",""
"html-keyboard-response","179","520765","0.0-4.0-1.0-0.20","osc7qtlrxnorsj4","prime","58bdce137b1cda00019b4f0c","5f60e3c0a3b16e07647b2ff9","5f60ed866aed4901bb6f27f3","false","null","<span style=""color: black; font-size: 48px"">N + M</span>","null","","","","resp_prompt","","","","","","","","","","","","","","","",""
"categorize-image","180","521224","0.0-4.0-1.0-1.20","osc7qtlrxnorsj4","prime","58bdce137b1cda00019b4f0c","5f60e3c0a3b16e07647b2ff9","5f60ed866aed4901bb6f27f3","true","454.8699999868404","./Stimuli/SelectedImages/LN/LN111.bmp","83","","","","test","true","N + M","83","repetition","LN","LN111.bmp","remember","","69","3","prime1","left","","","",""
"html-keyboard-response","181","523225","0.0-4.0-1.0-3.20","osc7qtlrxnorsj4","prime","58bdce137b1cda00019b4f0c","5f60e3c0a3b16e07647b2ff9","5f60ed866aed4901bb6f27f3","false","null","<div style=""align-items: center; display: flex; color: dodgerblue; font-size: 90px""><b>o</b></div>","null","","","","forget_cue","","","","","","","","","","","","","","","",""
"html-keyboard-response","182","523926","0.0-4.0-1.0-0.21","osc7qtlrxnorsj4","prime","58bdce137b1cda00019b4f0c","5f60e3c0a3b16e07647b2ff9","5f60ed866aed4901bb6f27f3","false","null","<span style=""color: black; font-size: 48px"">N + M</span>","null","","","","resp_prompt","","","","","","","","","","","","","","","",""
"categorize-image","183","524570","0.0-4.0-1.0-1.21","osc7qtlrxnorsj4","prime","58bdce137b1cda00019b4f0c","5f60e3c0a3b16e07647b2ff9","5f60ed866aed4901bb6f27f3","true","641.4949999889359","./Stimuli/SelectedImages/LM/LM167.bmp","76","","","","test","true","N + M","76","switch","LM","LM167.bmp","forget","","70","3","prime1","right","","","",""
"html-keyboard-response","184","526572","0.0-4.0-1.0-3.21","osc7qtlrxnorsj4","prime","58bdce137b1cda00019b4f0c","5f60e3c0a3b16e07647b2ff9","5f60ed866aed4901bb6f27f3","false","null","<div style=""align-items: center; display: flex; color: darkorange; font-size: 90px""><b>ø</b></div>","null","","","","forget_cue","","","","","","","","","","","","","","","",""
"html-keyboard-response","185","527274","0.0-4.0-1.0-0.22","osc7qtlrxnorsj4","prime","58bdce137b1cda00019b4f0c","5f60e3c0a3b16e07647b2ff9","5f60ed866aed4901bb6f27f3","false","null","<span style=""color: black; font-size: 48px"">N + M</span>","null","","","","resp_prompt","","","","","","","","","","","","","","","",""
"categorize-image","186","527725","0.0-4.0-1.0-1.22","osc7qtlrxnorsj4","prime","58bdce137b1cda00019b4f0c","5f60e3c0a3b16e07647b2ff9","5f60ed866aed4901bb6f27f3","true","447.6950000098441","./Stimuli/SelectedImages/LM/LM129.bmp","76","","","","test","true","N + M","76","switch","LM","LM129.bmp","remember","","71","3","prime1","right","","","",""
"html-keyboard-response","187","529726","0.0-4.0-1.0-3.22","osc7qtlrxnorsj4","prime","58bdce137b1cda00019b4f0c","5f60e3c0a3b16e07647b2ff9","5f60ed866aed4901bb6f27f3","false","null","<div style=""align-items: center; display: flex; color: dodgerblue; font-size: 90px""><b>o</b></div>","null","","","","forget_cue","","","","","","","","","","","","","","","",""
"html-keyboard-response","188","530428","0.0-4.0-1.0-0.23","osc7qtlrxnorsj4","prime","58bdce137b1cda00019b4f0c","5f60e3c0a3b16e07647b2ff9","5f60ed866aed4901bb6f27f3","false","null","<span style=""color: black; font-size: 48px"">M + N</span>","null","","","","resp_prompt","","","","","","","","","","","","","","","",""
"categorize-image","189","530925","0.0-4.0-1.0-1.23","osc7qtlrxnorsj4","prime","58bdce137b1cda00019b4f0c","5f60e3c0a3b16e07647b2ff9","5f60ed866aed4901bb6f27f3","true","493.3850000088569","./Stimuli/SelectedImages/LM/LM179.bmp","83","","","","test","true","M + N","83","switch","LM","LM179.bmp","remember","","72","3","prime1","left","","","",""
"html-keyboard-response","190","532925","0.0-4.0-1.0-3.23","osc7qtlrxnorsj4","prime","58bdce137b1cda00019b4f0c","5f60e3c0a3b16e07647b2ff9","5f60ed866aed4901bb6f27f3","false","null","<div style=""align-items: center; display: flex; color: dodgerblue; font-size: 90px""><b>o</b></div>","null","","","","forget_cue","","","","","","","","","","","","","","","",""
"html-keyboard-response","191","533627","0.0-4.0-1.0-0.24","osc7qtlrxnorsj4","prime","58bdce137b1cda00019b4f0c","5f60e3c0a3b16e07647b2ff9","5f60ed866aed4901bb6f27f3","false","null","<span style=""color: black; font-size: 48px"">M + N</span>","null","","","","resp_prompt","","","","","","","","","","","","","","","",""
"categorize-image","192","534151","0.0-4.0-1.0-1.24","osc7qtlrxnorsj4","prime","58bdce137b1cda00019b4f0c","5f60e3c0a3b16e07647b2ff9","5f60ed866aed4901bb6f27f3","true","520.0500000210013","./Stimuli/SelectedImages/LN/LN42.bmp","76","","","","test","true","M + N","76","repetition","LN","LN42.bmp","remember","","73","3","prime1","right","","","",""
"html-keyboard-response","193","536152","0.0-4.0-1.0-3.24","osc7qtlrxnorsj4","prime","58bdce137b1cda00019b4f0c","5f60e3c0a3b16e07647b2ff9","5f60ed866aed4901bb6f27f3","false","null","<div style=""align-items: center; display: flex; color: dodgerblue; font-size: 90px""><b>o</b></div>","null","","","","forget_cue","","","","","","","","","","","","","","","",""
"html-keyboard-response","194","536853","0.0-4.0-1.0-0.25","osc7qtlrxnorsj4","prime","58bdce137b1cda00019b4f0c","5f60e3c0a3b16e07647b2ff9","5f60ed866aed4901bb6f27f3","false","null","<span style=""color: black; font-size: 48px"">M + N</span>","null","","","","resp_prompt","","","","","","","","","","","","","","","",""
"categorize-image","195","537375","0.0-4.0-1.0-1.25","osc7qtlrxnorsj4","prime","58bdce137b1cda00019b4f0c","5f60e3c0a3b16e07647b2ff9","5f60ed866aed4901bb6f27f3","true","518.8449999841396","./Stimuli/SelectedImages/LN/LN166.bmp","76","","","","test","true","M + N","76","repetition","LN","LN166.bmp","forget","","74","3","prime1","right","","","",""
"html-keyboard-response","196","539376","0.0-4.0-1.0-3.25","osc7qtlrxnorsj4","prime","58bdce137b1cda00019b4f0c","5f60e3c0a3b16e07647b2ff9","5f60ed866aed4901bb6f27f3","false","null","<div style=""align-items: center; display: flex; color: darkorange; font-size: 90px""><b>ø</b></div>","null","","","","forget_cue","","","","","","","","","","","","","","","",""
"html-keyboard-response","197","540077","0.0-4.0-1.0-0.26","osc7qtlrxnorsj4","prime","58bdce137b1cda00019b4f0c","5f60e3c0a3b16e07647b2ff9","5f60ed866aed4901bb6f27f3","false","null","<span style=""color: black; font-size: 48px"">M + N</span>","null","","","","resp_prompt","","","","","","","","","","","","","","","",""
"categorize-image","198","540540","0.0-4.0-1.0-1.26","osc7qtlrxnorsj4","prime","58bdce137b1cda00019b4f0c","5f60e3c0a3b16e07647b2ff9","5f60ed866aed4901bb6f27f3","true","458.85500000440516","./Stimuli/SelectedImages/LN/LN92.bmp","76","","","","test","true","M + N","76","repetition","LN","LN92.bmp","remember","","75","3","prime1","right","","","",""
"html-keyboard-response","199","542540","0.0-4.0-1.0-3.26","osc7qtlrxnorsj4","prime","58bdce137b1cda00019b4f0c","5f60e3c0a3b16e07647b2ff9","5f60ed866aed4901bb6f27f3","false","null","<div style=""align-items: center; display: flex; color: dodgerblue; font-size: 90px""><b>o</b></div>","null","","","","forget_cue","","","","","","","","","","","","","","","",""
"html-keyboard-response","200","543242","0.0-4.0-1.0-0.27","osc7qtlrxnorsj4","prime","58bdce137b1cda00019b4f0c","5f60e3c0a3b16e07647b2ff9","5f60ed866aed4901bb6f27f3","false","null","<span style=""color: black; font-size: 48px"">M + N</span>","null","","","","resp_prompt","","","","","","","","","","","","","","","",""
"categorize-image","201","543847","0.0-4.0-1.0-1.27","osc7qtlrxnorsj4","prime","58bdce137b1cda00019b4f0c","5f60e3c0a3b16e07647b2ff9","5f60ed866aed4901bb6f27f3","true","601.8000000040047","./Stimuli/SelectedImages/SM/SM205.bmp","83","","","","test","true","M + N","83","switch","SM","SM205.bmp","forget","","76","3","prime1","left","","","",""
"html-keyboard-response","202","545848","0.0-4.0-1.0-3.27","osc7qtlrxnorsj4","prime","58bdce137b1cda00019b4f0c","5f60e3c0a3b16e07647b2ff9","5f60ed866aed4901bb6f27f3","false","null","<div style=""align-items: center; display: flex; color: darkorange; font-size: 90px""><b>ø</b></div>","null","","","","forget_cue","","","","","","","","","","","","","","","",""
"html-keyboard-response","203","546549","0.0-4.0-1.0-0.28","osc7qtlrxnorsj4","prime","58bdce137b1cda00019b4f0c","5f60e3c0a3b16e07647b2ff9","5f60ed866aed4901bb6f27f3","false","null","<span style=""color: black; font-size: 48px"">N + M</span>","null","","","","resp_prompt","","","","","","","","","","","","","","","",""
"categorize-image","204","547219","0.0-4.0-1.0-1.28","osc7qtlrxnorsj4","prime","58bdce137b1cda00019b4f0c","5f60e3c0a3b16e07647b2ff9","5f60ed866aed4901bb6f27f3","true","667.1100000094157","./Stimuli/SelectedImages/SM/SM213.bmp","76","","","","test","true","N + M","76","switch","SM","SM213.bmp","remember","","77","3","prime1","right","","","",""
"html-keyboard-response","205","549220","0.0-4.0-1.0-3.28","osc7qtlrxnorsj4","prime","58bdce137b1cda00019b4f0c","5f60e3c0a3b16e07647b2ff9","5f60ed866aed4901bb6f27f3","false","null","<div style=""align-items: center; display: flex; color: dodgerblue; font-size: 90px""><b>o</b></div>","null","","","","forget_cue","","","","","","","","","","","","","","","",""
"html-keyboard-response","206","549921","0.0-4.0-1.0-0.29","osc7qtlrxnorsj4","prime","58bdce137b1cda00019b4f0c","5f60e3c0a3b16e07647b2ff9","5f60ed866aed4901bb6f27f3","false","null","<span style=""color: black; font-size: 48px"">N + M</span>","null","","","","resp_prompt","","","","","","","","","","","","","","","",""
"categorize-image","207","550482","0.0-4.0-1.0-1.29","osc7qtlrxnorsj4","prime","58bdce137b1cda00019b4f0c","5f60e3c0a3b16e07647b2ff9","5f60ed866aed4901bb6f27f3","true","556.7600000067614","./Stimuli/SelectedImages/LN/LN149.bmp","83","","","","test","true","N + M","83","switch","LN","LN149.bmp","remember","","78","3","prime1","left","","","",""
"html-keyboard-response","208","552483","0.0-4.0-1.0-3.29","osc7qtlrxnorsj4","prime","58bdce137b1cda00019b4f0c","5f60e3c0a3b16e07647b2ff9","5f60ed866aed4901bb6f27f3","false","null","<div style=""align-items: center; display: flex; color: dodgerblue; font-size: 90px""><b>o</b></div>","null","","","","forget_cue","","","","","","","","","","","","","","","",""
"html-keyboard-response","209","553184","0.0-4.0-1.0-0.30","osc7qtlrxnorsj4","prime","58bdce137b1cda00019b4f0c","5f60e3c0a3b16e07647b2ff9","5f60ed866aed4901bb6f27f3","false","null","<span style=""color: black; font-size: 48px"">N + M</span>","null","","","","resp_prompt","","","","","","","","","","","","","","","",""
"categorize-image","210","553675","0.0-4.0-1.0-1.30","osc7qtlrxnorsj4","prime","58bdce137b1cda00019b4f0c","5f60e3c0a3b16e07647b2ff9","5f60ed866aed4901bb6f27f3","true","487.0599999849219","./Stimuli/SelectedImages/LN/LN28.bmp","83","","","","test","true","N + M","83","switch","LN","LN28.bmp","forget","","79","3","prime1","left","","","",""
"html-keyboard-response","211","555676","0.0-4.0-1.0-3.30","osc7qtlrxnorsj4","prime","58bdce137b1cda00019b4f0c","5f60e3c0a3b16e07647b2ff9","5f60ed866aed4901bb6f27f3","false","null","<div style=""align-items: center; display: flex; color: darkorange; font-size: 90px""><b>ø</b></div>","null","","","","forget_cue","","","","","","","","","","","","","","","",""
"html-keyboard-response","212","556377","0.0-4.0-1.0-0.31","osc7qtlrxnorsj4","prime","58bdce137b1cda00019b4f0c","5f60e3c0a3b16e07647b2ff9","5f60ed866aed4901bb6f27f3","false","null","<span style=""color: black; font-size: 48px"">M + N</span>","null","","","","resp_prompt","","","","","","","","","","","","","","","",""
"categorize-image","213","556830","0.0-4.0-1.0-1.31","osc7qtlrxnorsj4","prime","58bdce137b1cda00019b4f0c","5f60e3c0a3b16e07647b2ff9","5f60ed866aed4901bb6f27f3","true","450.04500000504777","./Stimuli/SelectedImages/LN/LN13.bmp","76","","","","test","true","M + N","76","switch","LN","LN13.bmp","forget","","80","3","prime1","right","","","",""
"html-keyboard-response","214","558831","0.0-4.0-1.0-3.31","osc7qtlrxnorsj4","prime","58bdce137b1cda00019b4f0c","5f60e3c0a3b16e07647b2ff9","5f60ed866aed4901bb6f27f3","false","null","<div style=""align-items: center; display: flex; color: darkorange; font-size: 90px""><b>ø</b></div>","null","","","","forget_cue","","","","","","","","","","","","","","","",""
"html-keyboard-response","215","559532","0.0-4.0-1.0-0.32","osc7qtlrxnorsj4","prime","58bdce137b1cda00019b4f0c","5f60e3c0a3b16e07647b2ff9","5f60ed866aed4901bb6f27f3","false","null","<span style=""color: black; font-size: 48px"">M + N</span>","null","","","","resp_prompt","","","","","","","","","","","","","","","",""
"categorize-image","216","559974","0.0-4.0-1.0-1.32","osc7qtlrxnorsj4","prime","58bdce137b1cda00019b4f0c","5f60e3c0a3b16e07647b2ff9","5f60ed866aed4901bb6f27f3","true","438.26500000432134","./Stimuli/SelectedImages/SM/SM106.bmp","76","","","","test","false","M + N","83","repetition","SM","SM106.bmp","forget","","81","3","prime1","right","","","",""
"html-keyboard-response","217","560475","0.0-4.0-1.0-2.32-0.32","osc7qtlrxnorsj4","prime","58bdce137b1cda00019b4f0c","5f60e3c0a3b16e07647b2ff9","5f60ed866aed4901bb6f27f3","false","null","<span style=""color: red; font-size: 48px"">Error!</span>","null","","","","feedback","","","","","","","","","","","","","","","",""
"html-keyboard-response","218","562477","0.0-4.0-1.0-3.32","osc7qtlrxnorsj4","prime","58bdce137b1cda00019b4f0c","5f60e3c0a3b16e07647b2ff9","5f60ed866aed4901bb6f27f3","false","null","<div style=""align-items: center; display: flex; color: darkorange; font-size: 90px""><b>ø</b></div>","null","","","","forget_cue","","","","","","","","","","","","","","","",""
"html-keyboard-response","219","563179","0.0-4.0-1.0-0.33","osc7qtlrxnorsj4","prime","58bdce137b1cda00019b4f0c","5f60e3c0a3b16e07647b2ff9","5f60ed866aed4901bb6f27f3","false","null","<span style=""color: black; font-size: 48px"">M + N</span>","null","","","","resp_prompt","","","","","","","","","","","","","","","",""
"categorize-image","220","564072","0.0-4.0-1.0-1.33","osc7qtlrxnorsj4","prime","58bdce137b1cda00019b4f0c","5f60e3c0a3b16e07647b2ff9","5f60ed866aed4901bb6f27f3","true","891.170000017155","./Stimuli/SelectedImages/SN/SN60.bmp","76","","","","test","true","M + N","76","repetition","SN","SN60.bmp","remember","","82","3","prime1","right","","","",""
"html-keyboard-response","221","566073","0.0-4.0-1.0-3.33","osc7qtlrxnorsj4","prime","58bdce137b1cda00019b4f0c","5f60e3c0a3b16e07647b2ff9","5f60ed866aed4901bb6f27f3","false","null","<div style=""align-items: center; display: flex; color: dodgerblue; font-size: 90px""><b>o</b></div>","null","","","","forget_cue","","","","","","","","","","","","","","","",""
"html-keyboard-response","222","566774","0.0-4.0-1.0-0.34","osc7qtlrxnorsj4","prime","58bdce137b1cda00019b4f0c","5f60e3c0a3b16e07647b2ff9","5f60ed866aed4901bb6f27f3","false","null","<span style=""color: black; font-size: 48px"">M + N</span>","null","","","","resp_prompt","","","","","","","","","","","","","","","",""
"categorize-image","223","567383","0.0-4.0-1.0-1.34","osc7qtlrxnorsj4","prime","58bdce137b1cda00019b4f0c","5f60e3c0a3b16e07647b2ff9","5f60ed866aed4901bb6f27f3","true","605.9899999818299","./Stimuli/SelectedImages/SM/SM74.bmp","83","","","","test","true","M + N","83","repetition","SM","SM74.bmp","remember","","83","3","prime1","left","","","",""
"html-keyboard-response","224","569385","0.0-4.0-1.0-3.34","osc7qtlrxnorsj4","prime","58bdce137b1cda00019b4f0c","5f60e3c0a3b16e07647b2ff9","5f60ed866aed4901bb6f27f3","false","null","<div style=""align-items: center; display: flex; color: dodgerblue; font-size: 90px""><b>o</b></div>","null","","","","forget_cue","","","","","","","","","","","","","","","",""
"html-keyboard-response","225","570086","0.0-4.0-1.0-0.35","osc7qtlrxnorsj4","prime","58bdce137b1cda00019b4f0c","5f60e3c0a3b16e07647b2ff9","5f60ed866aed4901bb6f27f3","false","null","<span style=""color: black; font-size: 48px"">N + M</span>","null","","","","resp_prompt","","","","","","","","","","","","","","","",""
"categorize-image","226","570559","0.0-4.0-1.0-1.35","osc7qtlrxnorsj4","prime","58bdce137b1cda00019b4f0c","5f60e3c0a3b16e07647b2ff9","5f60ed866aed4901bb6f27f3","true","469.0499999851454","./Stimuli/SelectedImages/LN/LN128.bmp","83","","","","test","true","N + M","83","switch","LN","LN128.bmp","remember","","84","3","prime1","left","","","",""
"html-keyboard-response","227","572561","0.0-4.0-1.0-3.35","osc7qtlrxnorsj4","prime","58bdce137b1cda00019b4f0c","5f60e3c0a3b16e07647b2ff9","5f60ed866aed4901bb6f27f3","false","null","<div style=""align-items: center; display: flex; color: dodgerblue; font-size: 90px""><b>o</b></div>","null","","","","forget_cue","","","","","","","","","","","","","","","",""
"html-keyboard-response","228","573262","0.0-4.0-1.0-0.36","osc7qtlrxnorsj4","prime","58bdce137b1cda00019b4f0c","5f60e3c0a3b16e07647b2ff9","5f60ed866aed4901bb6f27f3","false","null","<span style=""color: black; font-size: 48px"">M + N</span>","null","","","","resp_prompt","","","","","","","","","","","","","","","",""
"categorize-image","229","574009","0.0-4.0-1.0-1.36","osc7qtlrxnorsj4","prime","58bdce137b1cda00019b4f0c","5f60e3c0a3b16e07647b2ff9","5f60ed866aed4901bb6f27f3","true","744.0850000130013","./Stimuli/SelectedImages/SM/SM207.bmp","83","","","","test","true","M + N","83","repetition","SM","SM207.bmp","remember","","85","3","prime1","left","","","",""
"html-keyboard-response","230","576011","0.0-4.0-1.0-3.36","osc7qtlrxnorsj4","prime","58bdce137b1cda00019b4f0c","5f60e3c0a3b16e07647b2ff9","5f60ed866aed4901bb6f27f3","false","null","<div style=""align-items: center; display: flex; color: dodgerblue; font-size: 90px""><b>o</b></div>","null","","","","forget_cue","","","","","","","","","","","","","","","",""
"html-keyboard-response","231","576712","0.0-4.0-1.0-0.37","osc7qtlrxnorsj4","prime","58bdce137b1cda00019b4f0c","5f60e3c0a3b16e07647b2ff9","5f60ed866aed4901bb6f27f3","false","null","<span style=""color: black; font-size: 48px"">N + M</span>","null","","","","resp_prompt","","","","","","","","","","","","","","","",""
"categorize-image","232","577249","0.0-4.0-1.0-1.37","osc7qtlrxnorsj4","prime","58bdce137b1cda00019b4f0c","5f60e3c0a3b16e07647b2ff9","5f60ed866aed4901bb6f27f3","true","533.8650000048801","./Stimuli/SelectedImages/SM/SM195.bmp","76","","","","test","true","N + M","76","switch","SM","SM195.bmp","forget","","86","3","prime1","right","","","",""
"html-keyboard-response","233","579251","0.0-4.0-1.0-3.37","osc7qtlrxnorsj4","prime","58bdce137b1cda00019b4f0c","5f60e3c0a3b16e07647b2ff9","5f60ed866aed4901bb6f27f3","false","null","<div style=""align-items: center; display: flex; color: darkorange; font-size: 90px""><b>ø</b></div>","null","","","","forget_cue","","","","","","","","","","","","","","","",""
"html-keyboard-response","234","579953","0.0-4.0-1.0-0.38","osc7qtlrxnorsj4","prime","58bdce137b1cda00019b4f0c","5f60e3c0a3b16e07647b2ff9","5f60ed866aed4901bb6f27f3","false","null","<span style=""color: black; font-size: 48px"">M + N</span>","null","","","","resp_prompt","","","","","","","","","","","","","","","",""
"categorize-image","235","580469","0.0-4.0-1.0-1.38","osc7qtlrxnorsj4","prime","58bdce137b1cda00019b4f0c","5f60e3c0a3b16e07647b2ff9","5f60ed866aed4901bb6f27f3","true","511.59500001813285","./Stimuli/SelectedImages/SM/SM78.bmp","83","","","","test","true","M + N","83","switch","SM","SM78.bmp","forget","","87","3","prime1","left","","","",""
"html-keyboard-response","236","582470","0.0-4.0-1.0-3.38","osc7qtlrxnorsj4","prime","58bdce137b1cda00019b4f0c","5f60e3c0a3b16e07647b2ff9","5f60ed866aed4901bb6f27f3","false","null","<div style=""align-items: center; display: flex; color: darkorange; font-size: 90px""><b>ø</b></div>","null","","","","forget_cue","","","","","","","","","","","","","","","",""
"html-keyboard-response","237","583172","0.0-4.0-1.0-0.39","osc7qtlrxnorsj4","prime","58bdce137b1cda00019b4f0c","5f60e3c0a3b16e07647b2ff9","5f60ed866aed4901bb6f27f3","false","null","<span style=""color: black; font-size: 48px"">M + N</span>","null","","","","resp_prompt","","","","","","","","","","","","","","","",""
"categorize-image","238","583949","0.0-4.0-1.0-1.39","osc7qtlrxnorsj4","prime","58bdce137b1cda00019b4f0c","5f60e3c0a3b16e07647b2ff9","5f60ed866aed4901bb6f27f3","true","774.4550000061281","./Stimuli/SelectedImages/LN/LN177.bmp","76","","","","test","true","M + N","76","switch","LN","LN177.bmp","forget","","88","3","prime1","right","","","",""
"html-keyboard-response","239","585950","0.0-4.0-1.0-3.39","osc7qtlrxnorsj4","prime","58bdce137b1cda00019b4f0c","5f60e3c0a3b16e07647b2ff9","5f60ed866aed4901bb6f27f3","false","null","<div style=""align-items: center; display: flex; color: darkorange; font-size: 90px""><b>ø</b></div>","null","","","","forget_cue","","","","","","","","","","","","","","","",""
"html-keyboard-response","240","586652","0.0-4.0-1.0-0.40","osc7qtlrxnorsj4","prime","58bdce137b1cda00019b4f0c","5f60e3c0a3b16e07647b2ff9","5f60ed866aed4901bb6f27f3","false","null","<span style=""color: black; font-size: 48px"">M + N</span>","null","","","","resp_prompt","","","","","","","","","","","","","","","",""
"categorize-image","241","587426","0.0-4.0-1.0-1.40","osc7qtlrxnorsj4","prime","58bdce137b1cda00019b4f0c","5f60e3c0a3b16e07647b2ff9","5f60ed866aed4901bb6f27f3","true","769.7599999955855","./Stimuli/SelectedImages/LN/LN101.bmp","76","","","","test","true","M + N","76","repetition","LN","LN101.bmp","forget","","89","3","prime1","right","","","",""
"html-keyboard-response","242","589428","0.0-4.0-1.0-3.40","osc7qtlrxnorsj4","prime","58bdce137b1cda00019b4f0c","5f60e3c0a3b16e07647b2ff9","5f60ed866aed4901bb6f27f3","false","null","<div style=""align-items: center; display: flex; color: darkorange; font-size: 90px""><b>ø</b></div>","null","","","","forget_cue","","","","","","","","","","","","","","","",""
"html-keyboard-response","243","590130","0.0-4.0-1.0-0.41","osc7qtlrxnorsj4","prime","58bdce137b1cda00019b4f0c","5f60e3c0a3b16e07647b2ff9","5f60ed866aed4901bb6f27f3","false","null","<span style=""color: black; font-size: 48px"">N + M</span>","null","","","","resp_prompt","","","","","","","","","","","","","","","",""
"categorize-image","244","590607","0.0-4.0-1.0-1.41","osc7qtlrxnorsj4","prime","58bdce137b1cda00019b4f0c","5f60e3c0a3b16e07647b2ff9","5f60ed866aed4901bb6f27f3","true","473.3200000191573","./Stimuli/SelectedImages/LM/LM51.bmp","76","","","","test","true","N + M","76","repetition","LM","LM51.bmp","remember","","90","3","prime1","right","","","",""
"html-keyboard-response","245","592608","0.0-4.0-1.0-3.41","osc7qtlrxnorsj4","prime","58bdce137b1cda00019b4f0c","5f60e3c0a3b16e07647b2ff9","5f60ed866aed4901bb6f27f3","false","null","<div style=""align-items: center; display: flex; color: dodgerblue; font-size: 90px""><b>o</b></div>","null","","","","forget_cue","","","","","","","","","","","","","","","",""
"html-keyboard-response","246","593309","0.0-4.0-1.0-0.42","osc7qtlrxnorsj4","prime","58bdce137b1cda00019b4f0c","5f60e3c0a3b16e07647b2ff9","5f60ed866aed4901bb6f27f3","false","null","<span style=""color: black; font-size: 48px"">M + N</span>","null","","","","resp_prompt","","","","","","","","","","","","","","","",""
"categorize-image","247","593863","0.0-4.0-1.0-1.42","osc7qtlrxnorsj4","prime","58bdce137b1cda00019b4f0c","5f60e3c0a3b16e07647b2ff9","5f60ed866aed4901bb6f27f3","true","551.0550000180956","./Stimuli/SelectedImages/LM/LM150.bmp","83","","","","test","true","M + N","83","switch","LM","LM150.bmp","forget","","91","3","prime1","left","","","",""
"html-keyboard-response","248","595864","0.0-4.0-1.0-3.42","osc7qtlrxnorsj4","prime","58bdce137b1cda00019b4f0c","5f60e3c0a3b16e07647b2ff9","5f60ed866aed4901bb6f27f3","false","null","<div style=""align-items: center; display: flex; color: darkorange; font-size: 90px""><b>ø</b></div>","null","","","","forget_cue","","","","","","","","","","","","","","","",""
"html-keyboard-response","249","596565","0.0-4.0-1.0-0.43","osc7qtlrxnorsj4","prime","58bdce137b1cda00019b4f0c","5f60e3c0a3b16e07647b2ff9","5f60ed866aed4901bb6f27f3","false","null","<span style=""color: black; font-size: 48px"">M + N</span>","null","","","","resp_prompt","","","","","","","","","","","","","","","",""
"categorize-image","250","596973","0.0-4.0-1.0-1.43","osc7qtlrxnorsj4","prime","58bdce137b1cda00019b4f0c","5f60e3c0a3b16e07647b2ff9","5f60ed866aed4901bb6f27f3","true","404.5099999930244","./Stimuli/SelectedImages/SM/SM108.bmp","83","","","","test","true","M + N","83","switch","SM","SM108.bmp","remember","","92","3","prime1","left","","","",""
"html-keyboard-response","251","598975","0.0-4.0-1.0-3.43","osc7qtlrxnorsj4","prime","58bdce137b1cda00019b4f0c","5f60e3c0a3b16e07647b2ff9","5f60ed866aed4901bb6f27f3","false","null","<div style=""align-items: center; display: flex; color: dodgerblue; font-size: 90px""><b>o</b></div>","null","","","","forget_cue","","","","","","","","","","","","","","","",""
"html-keyboard-response","252","599676","0.0-4.0-1.0-0.44","osc7qtlrxnorsj4","prime","58bdce137b1cda00019b4f0c","5f60e3c0a3b16e07647b2ff9","5f60ed866aed4901bb6f27f3","false","null","<span style=""color: black; font-size: 48px"">M + N</span>","null","","","","resp_prompt","","","","","","","","","","","","","","","",""
