"trial_type","trial_index","time_elapsed","internal_node_id","subject","exp_part","prolific_PID","study_ID","session_ID","use","rt","stimulus","key_press","button_pressed","responses","question_order","trial_part","correct","resp_map","correct_resp","probe_condition","category","image","forget_condition","list","trial_num","block_num","block","response","test_part","n_span","sequence","num_spaces"
"pavlovia","0","4","0.0-0.0","tur8c0r5wkp38u4","","5f5fc4d15f73d2076d871530","5f60e3c0a3b16e07647b2ff9","5f60e97d15b4690008323af0","false","","","","","","","","","","","","","","","","","","","","","","",""
"html-keyboard-response","1","10561","0.0-1.0-0.0-0.0","tur8c0r5wkp38u4","welcome","5f5fc4d15f73d2076d871530","5f60e3c0a3b16e07647b2ff9","5f60e97d15b4690008323af0","false","10555","<div align=left>Dear participant, <br> thank you for participating in an online study of the Cognition, Action, and Sustainability Unit of the University of Freiburg! <br> <br>The aim of this study is to examine our ability to remember previously learned information. <br>Our goal is to find out, whether our memory improves, when we only remember information that is relevant to us. <br>The experiment will take about 35 minutes to complete. <br> <br>Please, note that you can only participate in this study if you are using a device with a keyboard (PC, Laptop etc.) <br>and not if you are using a mobile device such as a tablet or smartphone.<br> <br>Press 'SPACE' to proceed to the experiment. </div>","32","","","","","","","","","","","","","","","","","","","",""
"html-keyboard-response","2","40253","0.0-1.0-0.0-1.0","tur8c0r5wkp38u4","welcome","5f5fc4d15f73d2076d871530","5f60e3c0a3b16e07647b2ff9","5f60e97d15b4690008323af0","false","29691","<div align=left><strong> Time Course of this experiment: </strong> <br><br> <strong> 1.</strong>  First, please fill in some information regarding your demographic data. <br><br> <strong> 2.</strong>  Next, your task will be to classify everyday objects. <br>In addition, you will be asked to remember certain objects and recall them later. <br>Working on these tasks requires your undivided attention and concentration.<br>It is therefore essential that you eliminate any sources of distraction in your  <br>environment and ensure that you will not be disturbed. <br><br><strong> 3.</strong>  At the end of the experiment, you will be asked to answer a few additional questions. <br> <br><strong> Important:</strong> After finishing the experiment, only close the browser window <br> by clicking on the 'end the experiment'-button when you are asked to do so. <br>Closing the browser window prematurely will make the allocation of your participation credit impossible. <br><br> Press 'SPACE' to start the experiment. </div>","32","","","","","","","","","","","","","","","","","","","",""
"html-button-response","3","74700","0.0-1.0-0.0-2.0","tur8c0r5wkp38u4","welcome","5f5fc4d15f73d2076d871530","5f60e3c0a3b16e07647b2ff9","5f60e97d15b4690008323af0","true","34444","<div align=left><strong> Informed consent </strong>  <br>The aim of our research is to better understand human behavior and mental processes. <br>In the following study your behavior (e.g. choices, reaction times) will be studied. <br> <br><strong> Voluntariness and Anonymity </strong> <br>Your participation in this study is  <strong> voluntary</strong>.<br>You may withdraw your consent to participate at any time without providing a reason for doing so and without fear of prejudice. <br><br>As no personal data will be collected, <strong>your data and your person cannot be connected after data collection</strong> – the data-set is anonymous. <br>Respectively, deletion of your data will not be possible after data collection has been completed, as we cannot retrace your data-set.<br>The results and anonymized data collected in this study will be published as a scientific publication. <br>This will happen in an <strong>anonymized format</strong>, so that no data can be traced back to a specific person. <br> <br>The anonymized data of this study will be made available to other researchers and/or in a data archive on the Internet as a means of transparency and to enable subsequent re-use. By doing so, this study follows the recommendations of the Deutsche Forschungsgemeinschaft (DFG, German Research Foundation) and Deutsche Gesellschaft für Psychologie (DGPS, German Psychological Society) regarding quality assurance in research.<br>If you have any questions now or after the experiment, please contact our team (experiments@cs.uni-freiburg.de).<br><br><br>I hereby declare, that I understand the above described conditions of participation and I agree to participate under these conditions. <br><br> </div>","","0","","","","","","","","","","","","","","","","","","",""
"html-keyboard-response","4","97391","0.0-1.0-0.0-3.0","tur8c0r5wkp38u4","welcome","5f5fc4d15f73d2076d871530","5f60e3c0a3b16e07647b2ff9","5f60e97d15b4690008323af0","false","22688","<div align=left><strong> General information concerning the experiment </strong>  <br> <br>Please follow the instructions:<ol> <li><strong> Do not leave this tab (your browser window) during the experiment and do not reload this tab! </strong>  <br>If you do switch tabs/windows during the experiment (to check your mail or visit another website, for example), <br>the experiment will end automatically and you will <strong>not receive credit</strong> for your participation. <br>Repeated participation or resumption of the experiment is impossible.</li> <br><li>Please close all other programs for the duration of your participation. </li> <br><li>Please mute or turn off your phone and put it out of your reach. </li> <br><li>Please also take off any disturbing accessories (such as wristwatches, bracelets, etc.). </li> <br><li>If you have music playing in the background, please turn it off now. </li> <br></ol>Thank you! <br>Press 'SPACE' to continue. </div>","32","","","","","","","","","","","","","","","","","","","",""
"survey-text","5","103431","0.0-1.0-1.0-0.0","tur8c0r5wkp38u4","demographics","5f5fc4d15f73d2076d871530","5f60e3c0a3b16e07647b2ff9","5f60e97d15b4690008323af0","true","6015","","","","{""age"":""21""}","","","","","","","","","","","","","","","","","",""
"survey-multi-choice","6","118112","0.0-1.0-1.0-1.0","tur8c0r5wkp38u4","demographics","5f5fc4d15f73d2076d871530","5f60e3c0a3b16e07647b2ff9","5f60e97d15b4690008323af0","true","14679.000000000015","","","","{""gender"":""male"",""school"":""others"",""education"":""Still in training/ university""}","[0,1,2]","","","","","","","","","","","","","","","","",""
"survey-text","7","134280","0.0-1.0-1.0-2.0-0.0","tur8c0r5wkp38u4","demographics","5f5fc4d15f73d2076d871530","5f60e3c0a3b16e07647b2ff9","5f60e97d15b4690008323af0","true","16159","","","","{""education_text"":""Kenyon College, Chemistry""}","","","","","","","","","","","","","","","","","",""
"html-keyboard-response","8","150682","0.0-1.0-2.0","tur8c0r5wkp38u4","instructions","5f5fc4d15f73d2076d871530","5f60e3c0a3b16e07647b2ff9","5f60e97d15b4690008323af0","false","16400","<div align=left> The experiment is now about to start: <br> <br>In the following part, you will be presented pictures of everyday objects. <br>Your first task is to <strong>classify these objects. </strong> <br> <br> You will classify them either as mechanical or non-mechanical objects. <br> <br>Objects that include any kind of technical mechanism (for example, wheels, switches, levers, <br> electronic components) fall under the category of <strong>mechanical</strong> objects. <br>Only objects without any kind of technical mechanism should be classified as <strong>non-mechanical</strong>. <br><br>Press 'SPACE' to continue. </div>","32","","","","","","","","","","","","","","","","","","","",""
"html-keyboard-response","9","205269","0.0-2.0-0.0","tur8c0r5wkp38u4","instructions","5f5fc4d15f73d2076d871530","5f60e3c0a3b16e07647b2ff9","5f60e97d15b4690008323af0","false","54584","<div align=justify>You will classify the objects using the <strong>'S'</strong> and the <strong>'L'</strong> keys on your keyboard.<br>For doing so, please place your <strong>left index finger</strong> on the <strong>'S'</strong> key and place your <strong>right index finger</strong> on the <strong>'L'</strong> key. <br><br> Each trial starts with an instruction, indicating which key ('S'/'L') you need to press to classify <br>the object as mechanical (letter M) or non-mechanical (letter N).<br>The instruction <strong>M + N</strong> indicates that, in the current trial, by pressing the left key ('S') you classify the displayed object as mechanical (M) <br> and by pressing the right key ('L') you classify the object as non-mechanical (N). <br>The instruction <strong>N + M</strong> on the other hand indicates that by pressing the left key ('S') you classify the displayed object as non-mechanical (N) <br> and by pressing the right key ('L') you classify the object as mechanical (M). <br><br>Please press the key corresponding to the correct classification as fast as possible as soon as the object is displayed and try to avoid making mistakes.<br>If you do not respond within a 2 second window, a corresponding feedback will be displayed and the next trial will start.<br> The experiment is divided into multiple blocks to give you the opportunity to take a break after each block. <br>First, you can now practice this task. <br><br>Please place your <strong>LEFT INDEX FINGER</strong> on the 'S' key and your <strong>RIGHT INDEX FINGER</strong> on the 'L' key now. <br><br>Press SPACE to continue.</div>","32","","","","","","","","","","","","","","","","","","","",""
"html-keyboard-response","10","209973","0.0-2.0-1.0","tur8c0r5wkp38u4","instructions","5f5fc4d15f73d2076d871530","5f60e3c0a3b16e07647b2ff9","5f60e97d15b4690008323af0","false","4704","<div align=left> You will now have time to practice this task.<br><br>Remember: <br> <br><li>Please place your index fingers on the <strong>'S'</strong> and <strong>'L'</strong> keys <br>to respond as fast and accurately as possible.</li><li>Every picture can be classified as either mechanical or non-mechanical.</li><li>If you do not respond in time or commit an error, you will receive a corresponding feedback. </li><li> Please try to respond as <strong> fast </strong> and as <strong> accurately as possible </strong> .<br><li>To ensure optimal results, please minimize distractions and stay focused. </li><br><br>Press SPACE to continue.</div>","32","","","","","","","","","","","","","","","","","","","",""
"html-keyboard-response","11","210674","0.0-2.0-2.0-0.0","tur8c0r5wkp38u4","practice_no_cue","5f5fc4d15f73d2076d871530","5f60e3c0a3b16e07647b2ff9","5f60e97d15b4690008323af0","false","null","<span style=""color: black; font-size: 48px"">M + N</span>","null","","","","resp_prompt","","","","","","","","","","","","","","","",""
"categorize-image","12","213180","0.0-2.0-2.0-1.0","tur8c0r5wkp38u4","practice_no_cue","5f5fc4d15f73d2076d871530","5f60e3c0a3b16e07647b2ff9","5f60e97d15b4690008323af0","true","null","./Stimuli/ImagesPractice/LN109.jpg","null","","","","test","false","M + N","76","","LN","LN109.jpg","remember","old","1","1","start","too_slow","","","",""
"html-keyboard-response","13","213882","0.0-2.0-2.0-0.1","tur8c0r5wkp38u4","practice_no_cue","5f5fc4d15f73d2076d871530","5f60e3c0a3b16e07647b2ff9","5f60e97d15b4690008323af0","false","null","<span style=""color: black; font-size: 48px"">N + M</span>","null","","","","resp_prompt","","","","","","","","","","","","","","","",""
"categorize-image","14","216388","0.0-2.0-2.0-1.1","tur8c0r5wkp38u4","practice_no_cue","5f5fc4d15f73d2076d871530","5f60e3c0a3b16e07647b2ff9","5f60e97d15b4690008323af0","true","null","./Stimuli/ImagesPractice/LM55.jpg","null","","","","test","false","N + M","76","","LM","LM55.jpg","forget","old","2","1","start","too_slow","","","",""
"html-keyboard-response","15","217091","0.0-2.0-2.0-0.2","tur8c0r5wkp38u4","practice_no_cue","5f5fc4d15f73d2076d871530","5f60e3c0a3b16e07647b2ff9","5f60e97d15b4690008323af0","false","null","<span style=""color: black; font-size: 48px"">M + N</span>","null","","","","resp_prompt","","","","","","","","","","","","","","","",""
"categorize-image","16","218444","0.0-2.0-2.0-1.2","tur8c0r5wkp38u4","practice_no_cue","5f5fc4d15f73d2076d871530","5f60e3c0a3b16e07647b2ff9","5f60e97d15b4690008323af0","true","850","./Stimuli/ImagesPractice/LM224.jpg","83","","","","test","true","M + N","83","","LM","LM224.jpg","forget","old","3","1","start","left","","","",""
"html-keyboard-response","17","219146","0.0-2.0-2.0-0.3","tur8c0r5wkp38u4","practice_no_cue","5f5fc4d15f73d2076d871530","5f60e3c0a3b16e07647b2ff9","5f60e97d15b4690008323af0","false","null","<span style=""color: black; font-size: 48px"">N + M</span>","null","","","","resp_prompt","","","","","","","","","","","","","","","",""
"categorize-image","18","220447","0.0-2.0-2.0-1.3","tur8c0r5wkp38u4","practice_no_cue","5f5fc4d15f73d2076d871530","5f60e3c0a3b16e07647b2ff9","5f60e97d15b4690008323af0","true","797","./Stimuli/ImagesPractice/SN76.jpg","83","","","","test","true","N + M","83","","SN","SN76.jpg","forget","old","4","1","start","left","","","",""
"html-keyboard-response","19","221150","0.0-2.0-2.0-0.4","tur8c0r5wkp38u4","practice_no_cue","5f5fc4d15f73d2076d871530","5f60e3c0a3b16e07647b2ff9","5f60e97d15b4690008323af0","false","null","<span style=""color: black; font-size: 48px"">M + N</span>","null","","","","resp_prompt","","","","","","","","","","","","","","","",""
"categorize-image","20","222269","0.0-2.0-2.0-1.4","tur8c0r5wkp38u4","practice_no_cue","5f5fc4d15f73d2076d871530","5f60e3c0a3b16e07647b2ff9","5f60e97d15b4690008323af0","true","616.0000000000291","./Stimuli/ImagesPractice/SM98.jpg","83","","","","test","true","M + N","83","","SM","SM98.jpg","forget","old","5","1","start","left","","","",""
"html-keyboard-response","21","222971","0.0-2.0-2.0-0.5","tur8c0r5wkp38u4","practice_no_cue","5f5fc4d15f73d2076d871530","5f60e3c0a3b16e07647b2ff9","5f60e97d15b4690008323af0","false","null","<span style=""color: black; font-size: 48px"">M + N</span>","null","","","","resp_prompt","","","","","","","","","","","","","","","",""
"categorize-image","22","224256","0.0-2.0-2.0-1.5","tur8c0r5wkp38u4","practice_no_cue","5f5fc4d15f73d2076d871530","5f60e3c0a3b16e07647b2ff9","5f60e97d15b4690008323af0","true","781","./Stimuli/ImagesPractice/LM147.jpg","83","","","","test","true","M + N","83","","LM","LM147.jpg","remember","old","6","1","start","left","","","",""
"html-keyboard-response","23","224958","0.0-2.0-2.0-0.6","tur8c0r5wkp38u4","practice_no_cue","5f5fc4d15f73d2076d871530","5f60e3c0a3b16e07647b2ff9","5f60e97d15b4690008323af0","false","null","<span style=""color: black; font-size: 48px"">N + M</span>","null","","","","resp_prompt","","","","","","","","","","","","","","","",""
"categorize-image","24","226459","0.0-2.0-2.0-1.6","tur8c0r5wkp38u4","practice_no_cue","5f5fc4d15f73d2076d871530","5f60e3c0a3b16e07647b2ff9","5f60e97d15b4690008323af0","true","997","./Stimuli/ImagesPractice/SM35.jpg","83","","","","test","false","N + M","76","","SM","SM35.jpg","remember","old","7","1","start","left","","","",""
"html-keyboard-response","25","227162","0.0-2.0-2.0-0.7","tur8c0r5wkp38u4","practice_no_cue","5f5fc4d15f73d2076d871530","5f60e3c0a3b16e07647b2ff9","5f60e97d15b4690008323af0","false","null","<span style=""color: black; font-size: 48px"">N + M</span>","null","","","","resp_prompt","","","","","","","","","","","","","","","",""
"categorize-image","26","228369","0.0-2.0-2.0-1.7","tur8c0r5wkp38u4","practice_no_cue","5f5fc4d15f73d2076d871530","5f60e3c0a3b16e07647b2ff9","5f60e97d15b4690008323af0","true","703","./Stimuli/ImagesPractice/SN205.jpg","83","","","","test","true","N + M","83","","SN","SN205.jpg","forget","old","8","1","start","left","","","",""
"html-keyboard-response","27","229071","0.0-2.0-2.0-0.8","tur8c0r5wkp38u4","practice_no_cue","5f5fc4d15f73d2076d871530","5f60e3c0a3b16e07647b2ff9","5f60e97d15b4690008323af0","false","null","<span style=""color: black; font-size: 48px"">M + N</span>","null","","","","resp_prompt","","","","","","","","","","","","","","","",""
"categorize-image","28","230750","0.0-2.0-2.0-1.8","tur8c0r5wkp38u4","practice_no_cue","5f5fc4d15f73d2076d871530","5f60e3c0a3b16e07647b2ff9","5f60e97d15b4690008323af0","true","1175","./Stimuli/ImagesPractice/SM97.jpg","76","","","","test","false","M + N","83","","SM","SM97.jpg","remember","old","9","1","start","right","","","",""
"html-keyboard-response","29","231453","0.0-2.0-2.0-0.9","tur8c0r5wkp38u4","practice_no_cue","5f5fc4d15f73d2076d871530","5f60e3c0a3b16e07647b2ff9","5f60e97d15b4690008323af0","false","null","<span style=""color: black; font-size: 48px"">M + N</span>","null","","","","resp_prompt","","","","","","","","","","","","","","","",""
"categorize-image","30","232791","0.0-2.0-2.0-1.9","tur8c0r5wkp38u4","practice_no_cue","5f5fc4d15f73d2076d871530","5f60e3c0a3b16e07647b2ff9","5f60e97d15b4690008323af0","true","834","./Stimuli/ImagesPractice/SN75.jpg","76","","","","test","true","M + N","76","","SN","SN75.jpg","forget","old","10","1","start","right","","","",""
"html-keyboard-response","31","233492","0.0-2.0-2.0-0.10","tur8c0r5wkp38u4","practice_no_cue","5f5fc4d15f73d2076d871530","5f60e3c0a3b16e07647b2ff9","5f60e97d15b4690008323af0","false","null","<span style=""color: black; font-size: 48px"">N + M</span>","null","","","","resp_prompt","","","","","","","","","","","","","","","",""
"categorize-image","32","234773","0.0-2.0-2.0-1.10","tur8c0r5wkp38u4","practice_no_cue","5f5fc4d15f73d2076d871530","5f60e3c0a3b16e07647b2ff9","5f60e97d15b4690008323af0","true","776","./Stimuli/ImagesPractice/LN72.jpg","83","","","","test","true","N + M","83","","LN","LN72.jpg","remember","old","11","1","start","left","","","",""
"html-keyboard-response","33","235475","0.0-2.0-2.0-0.11","tur8c0r5wkp38u4","practice_no_cue","5f5fc4d15f73d2076d871530","5f60e3c0a3b16e07647b2ff9","5f60e97d15b4690008323af0","false","null","<span style=""color: black; font-size: 48px"">N + M</span>","null","","","","resp_prompt","","","","","","","","","","","","","","","",""
"categorize-image","34","236688","0.0-2.0-2.0-1.11","tur8c0r5wkp38u4","practice_no_cue","5f5fc4d15f73d2076d871530","5f60e3c0a3b16e07647b2ff9","5f60e97d15b4690008323af0","true","710","./Stimuli/ImagesPractice/SN222.jpg","83","","","","test","true","N + M","83","","SN","SN222.jpg","remember","old","12","1","start","left","","","",""
"html-keyboard-response","35","237389","0.0-2.0-2.0-0.12","tur8c0r5wkp38u4","practice_no_cue","5f5fc4d15f73d2076d871530","5f60e3c0a3b16e07647b2ff9","5f60e97d15b4690008323af0","false","null","<span style=""color: black; font-size: 48px"">M + N</span>","null","","","","resp_prompt","","","","","","","","","","","","","","","",""
"categorize-image","36","238785","0.0-2.0-2.0-1.12","tur8c0r5wkp38u4","practice_no_cue","5f5fc4d15f73d2076d871530","5f60e3c0a3b16e07647b2ff9","5f60e97d15b4690008323af0","true","892","./Stimuli/ImagesPractice/LM143.jpg","83","","","","test","true","M + N","83","","LM","LM143.jpg","forget","old","13","1","start","left","","","",""
"html-keyboard-response","37","239487","0.0-2.0-2.0-0.13","tur8c0r5wkp38u4","practice_no_cue","5f5fc4d15f73d2076d871530","5f60e3c0a3b16e07647b2ff9","5f60e97d15b4690008323af0","false","null","<span style=""color: black; font-size: 48px"">M + N</span>","null","","","","resp_prompt","","","","","","","","","","","","","","","",""
"categorize-image","38","240906","0.0-2.0-2.0-1.13","tur8c0r5wkp38u4","practice_no_cue","5f5fc4d15f73d2076d871530","5f60e3c0a3b16e07647b2ff9","5f60e97d15b4690008323af0","true","915","./Stimuli/ImagesPractice/LM239.jpg","83","","","","test","true","M + N","83","","LM","LM239.jpg","remember","old","14","1","start","left","","","",""
"html-keyboard-response","39","241608","0.0-2.0-2.0-0.14","tur8c0r5wkp38u4","practice_no_cue","5f5fc4d15f73d2076d871530","5f60e3c0a3b16e07647b2ff9","5f60e97d15b4690008323af0","false","null","<span style=""color: black; font-size: 48px"">N + M</span>","null","","","","resp_prompt","","","","","","","","","","","","","","","",""
"categorize-image","40","243439","0.0-2.0-2.0-1.14","tur8c0r5wkp38u4","practice_no_cue","5f5fc4d15f73d2076d871530","5f60e3c0a3b16e07647b2ff9","5f60e97d15b4690008323af0","true","1326","./Stimuli/ImagesPractice/LN4.jpg","83","","","","test","true","N + M","83","","LN","LN4.jpg","remember","old","15","1","start","left","","","",""
"html-keyboard-response","41","244141","0.0-2.0-2.0-0.15","tur8c0r5wkp38u4","practice_no_cue","5f5fc4d15f73d2076d871530","5f60e3c0a3b16e07647b2ff9","5f60e97d15b4690008323af0","false","null","<span style=""color: black; font-size: 48px"">N + M</span>","null","","","","resp_prompt","","","","","","","","","","","","","","","",""
"categorize-image","42","245389","0.0-2.0-2.0-1.15","tur8c0r5wkp38u4","practice_no_cue","5f5fc4d15f73d2076d871530","5f60e3c0a3b16e07647b2ff9","5f60e97d15b4690008323af0","true","744","./Stimuli/ImagesPractice/LN17.jpg","83","","","","test","true","N + M","83","","LN","LN17.jpg","forget","old","16","1","start","left","","","",""
"html-keyboard-response","43","254856","0.0-2.0-3.0","tur8c0r5wkp38u4","break","5f5fc4d15f73d2076d871530","5f60e3c0a3b16e07647b2ff9","5f60e97d15b4690008323af0","false","9465","<p style='font-size: 32px;'>Break</><br><br><br><br><br><p style='font-size: 24px;'>In the last block, you committed 2 errors and did not respond in time on 2 trials.
</p><p style='font-size: 24px;'>Try to respond as fast and accurately as possible in the next block as well! </p><p style='font-size: 24px;'>Press SPACE to continue.</p>","32","","","","","","","","","","","","","","","","","","","",""
"html-keyboard-response","44","259221","0.0-2.0-4.0","tur8c0r5wkp38u4","instructions","5f5fc4d15f73d2076d871530","5f60e3c0a3b16e07647b2ff9","5f60e97d15b4690008323af0","false","4364.000000000029","<div align=left> Great!<br><br>Are you ready to continue?<br><br>If you want to reread the instructions and redo the practice trials, <br>please press „Z“. <br><br>Press SPACE to CONTINUE with the experiment when you are ready. </div>","32","","","","","","","","","","","","","","","","","","","",""
"html-keyboard-response","45","293368","0.0-3.0-0.0","tur8c0r5wkp38u4","instructions","5f5fc4d15f73d2076d871530","5f60e3c0a3b16e07647b2ff9","5f60e97d15b4690008323af0","false","34144.00000000006","<div align=left>Great!<br> <strong>Attention</strong>! You will now receive a second, additional task! <br><br>To this point it was you <strong>first task</strong> to correctly <strong>classify objects</strong>. <br><br>As mentioned in the beginning, we aim to examine how well humans can remember previously learned information.<br>We would like to find out whether our memory improves if we only remember information that is relevant to us. <br><br>Therefore, your <strong>second task</strong> will be to <strong>remember</strong> the pictures you are to categorize. <br> After the learning phase, there will be a memory test phase, in which you will be asked to indicate whether you have seen a picture before or not. <br>Some, but not all pictures shown in the learning phase will appear in the memory test phase.<br>After classifying a picture, you will be told whether you should remember it for the memory test phase or not. <br>Thus, some pictures can be forgotten, whereas others have to be remembered. <br><br>Note: From now on, feedback will only be displayed if you responded incorrectly or not in time.<br><br>Press SPACE to continue.</div>","32","","","","","","","","","","","","","","","","","","","",""
"html-keyboard-response","46","305988","0.0-3.0-1.0","tur8c0r5wkp38u4","instructions","5f5fc4d15f73d2076d871530","5f60e3c0a3b16e07647b2ff9","5f60e97d15b4690008323af0","false","12614","<div align=left>In the following part, you will thus have to remember only some pictures. <br>Immediately after seeing and classifying the picture, a symbol will be displayed, indicating whether you should remember or forget the previous picture. <br><br>A <span style='color: dodgerblue; font-size: 28px'>O</span> indicates REMEMBER. That means, you have to remember this picture, because it will be tested later. <br><br>A <span style='color: darkorange; font-size:28px'>Ø</span> indicates FORGET. You do not have to remember this picture. <br><br> As you will have to remember a lot of pictures, it will be hard for you to remember all of them. <br>It will put you at an advantage if you instantly forget the pictures you are not asked to remember. <br> This will make it easier for you to remember the pictures that will be tested afterwards. <br><br>Press SPACE to continue.</div>","32","","","","","","","","","","","","","","","","","","","",""
"html-keyboard-response","47","312279","0.0-3.0-2.0","tur8c0r5wkp38u4","instructions","5f5fc4d15f73d2076d871530","5f60e3c0a3b16e07647b2ff9","5f60e97d15b4690008323af0","false","6288.000000000058","<div align=left> Now you have the chance to practice both tasks together.<br><br>Remember: <br> <br><li>Please place your index fingers on the <strong>'S'</strong> and <strong>'L'</strong> keys <br>to respond as fast and accurately as possible.</li><li>Every picture can be classified as either mechanical or non-mechanical.</li><li>If you do not respond in time or commit an error, you will receive a corresponding feedback. <br>Please try to respond as <strong> fast </strong> and as <strong> accurately as possible </strong>.</li><li> Please remember only the to-be-remembered <span style='color: dodgerblue; font-size: 28px'>O</span> pictures. <br></li><li> Please minimize distractions and stay focused. </li><br><br>Press SPACE to START</div>","32","","","","","","","","","","","","","","","","","","","",""
"html-keyboard-response","48","312981","0.0-3.0-3.0-0.0","tur8c0r5wkp38u4","practice_cue","5f5fc4d15f73d2076d871530","5f60e3c0a3b16e07647b2ff9","5f60e97d15b4690008323af0","false","null","<span style=""color: black; font-size: 48px"">N + M</span>","null","","","","resp_prompt","","","","","","","","","","","","","","","",""
"categorize-image","49","313622","0.0-3.0-3.0-1.0","tur8c0r5wkp38u4","practice_cue","5f5fc4d15f73d2076d871530","5f60e3c0a3b16e07647b2ff9","5f60e97d15b4690008323af0","true","634.0000000000582","./Stimuli/ImagesPractice/LN72.jpg","83","","","","test","true","N + M","83","","LN","LN72.jpg","remember","old","17","2","practice_forget","left","","","",""
"html-keyboard-response","50","315624","0.0-3.0-3.0-3.0","tur8c0r5wkp38u4","practice_cue","5f5fc4d15f73d2076d871530","5f60e3c0a3b16e07647b2ff9","5f60e97d15b4690008323af0","false","null","<div style=""align-items: center; display: flex; color: dodgerblue; font-size: 90px""><b>o</b></div>","null","","","","forget_cue","","","","","","","","","","","","","","","",""
"html-keyboard-response","51","316325","0.0-3.0-3.0-0.1","tur8c0r5wkp38u4","practice_cue","5f5fc4d15f73d2076d871530","5f60e3c0a3b16e07647b2ff9","5f60e97d15b4690008323af0","false","null","<span style=""color: black; font-size: 48px"">M + N</span>","null","","","","resp_prompt","","","","","","","","","","","","","","","",""
"categorize-image","52","317444","0.0-3.0-3.0-1.1","tur8c0r5wkp38u4","practice_cue","5f5fc4d15f73d2076d871530","5f60e3c0a3b16e07647b2ff9","5f60e97d15b4690008323af0","true","1112.0000000000582","./Stimuli/ImagesPractice/LM224.jpg","83","","","","test","true","M + N","83","","LM","LM224.jpg","forget","old","18","2","practice_forget","left","","","",""
"html-keyboard-response","53","319446","0.0-3.0-3.0-3.1","tur8c0r5wkp38u4","practice_cue","5f5fc4d15f73d2076d871530","5f60e3c0a3b16e07647b2ff9","5f60e97d15b4690008323af0","false","null","<div style=""align-items: center; display: flex; color: darkorange; font-size: 90px""><b>ø</b></div>","null","","","","forget_cue","","","","","","","","","","","","","","","",""
"html-keyboard-response","54","320149","0.0-3.0-3.0-0.2","tur8c0r5wkp38u4","practice_cue","5f5fc4d15f73d2076d871530","5f60e3c0a3b16e07647b2ff9","5f60e97d15b4690008323af0","false","null","<span style=""color: black; font-size: 48px"">N + M</span>","null","","","","resp_prompt","","","","","","","","","","","","","","","",""
"categorize-image","55","320824","0.0-3.0-3.0-1.2","tur8c0r5wkp38u4","practice_cue","5f5fc4d15f73d2076d871530","5f60e3c0a3b16e07647b2ff9","5f60e97d15b4690008323af0","true","669.0000000000582","./Stimuli/ImagesPractice/LM55.jpg","76","","","","test","true","N + M","76","","LM","LM55.jpg","forget","old","19","2","practice_forget","right","","","",""
"html-keyboard-response","56","322826","0.0-3.0-3.0-3.2","tur8c0r5wkp38u4","practice_cue","5f5fc4d15f73d2076d871530","5f60e3c0a3b16e07647b2ff9","5f60e97d15b4690008323af0","false","null","<div style=""align-items: center; display: flex; color: darkorange; font-size: 90px""><b>ø</b></div>","null","","","","forget_cue","","","","","","","","","","","","","","","",""
"html-keyboard-response","57","323528","0.0-3.0-3.0-0.3","tur8c0r5wkp38u4","practice_cue","5f5fc4d15f73d2076d871530","5f60e3c0a3b16e07647b2ff9","5f60e97d15b4690008323af0","false","null","<span style=""color: black; font-size: 48px"">M + N</span>","null","","","","resp_prompt","","","","","","","","","","","","","","","",""
"categorize-image","58","324223","0.0-3.0-3.0-1.3","tur8c0r5wkp38u4","practice_cue","5f5fc4d15f73d2076d871530","5f60e3c0a3b16e07647b2ff9","5f60e97d15b4690008323af0","true","685","./Stimuli/ImagesPractice/LM147.jpg","83","","","","test","true","M + N","83","","LM","LM147.jpg","remember","old","20","2","practice_forget","left","","","",""
"html-keyboard-response","59","326224","0.0-3.0-3.0-3.3","tur8c0r5wkp38u4","practice_cue","5f5fc4d15f73d2076d871530","5f60e3c0a3b16e07647b2ff9","5f60e97d15b4690008323af0","false","null","<div style=""align-items: center; display: flex; color: dodgerblue; font-size: 90px""><b>o</b></div>","null","","","","forget_cue","","","","","","","","","","","","","","","",""
"html-keyboard-response","60","326926","0.0-3.0-3.0-0.4","tur8c0r5wkp38u4","practice_cue","5f5fc4d15f73d2076d871530","5f60e3c0a3b16e07647b2ff9","5f60e97d15b4690008323af0","false","null","<span style=""color: black; font-size: 48px"">M + N</span>","null","","","","resp_prompt","","","","","","","","","","","","","","","",""
"categorize-image","61","327539","0.0-3.0-3.0-1.4","tur8c0r5wkp38u4","practice_cue","5f5fc4d15f73d2076d871530","5f60e3c0a3b16e07647b2ff9","5f60e97d15b4690008323af0","true","605.9999999999418","./Stimuli/ImagesPractice/LM143.jpg","83","","","","test","true","M + N","83","","LM","LM143.jpg","forget","old","21","2","practice_forget","left","","","",""
"html-keyboard-response","62","329540","0.0-3.0-3.0-3.4","tur8c0r5wkp38u4","practice_cue","5f5fc4d15f73d2076d871530","5f60e3c0a3b16e07647b2ff9","5f60e97d15b4690008323af0","false","null","<div style=""align-items: center; display: flex; color: darkorange; font-size: 90px""><b>ø</b></div>","null","","","","forget_cue","","","","","","","","","","","","","","","",""
"html-keyboard-response","63","330241","0.0-3.0-3.0-0.5","tur8c0r5wkp38u4","practice_cue","5f5fc4d15f73d2076d871530","5f60e3c0a3b16e07647b2ff9","5f60e97d15b4690008323af0","false","null","<span style=""color: black; font-size: 48px"">N + M</span>","null","","","","resp_prompt","","","","","","","","","","","","","","","",""
"categorize-image","64","330905","0.0-3.0-3.0-1.5","tur8c0r5wkp38u4","practice_cue","5f5fc4d15f73d2076d871530","5f60e3c0a3b16e07647b2ff9","5f60e97d15b4690008323af0","true","657","./Stimuli/ImagesPractice/SN76.jpg","83","","","","test","true","N + M","83","","SN","SN76.jpg","forget","old","22","2","practice_forget","left","","","",""
"html-keyboard-response","65","332907","0.0-3.0-3.0-3.5","tur8c0r5wkp38u4","practice_cue","5f5fc4d15f73d2076d871530","5f60e3c0a3b16e07647b2ff9","5f60e97d15b4690008323af0","false","null","<div style=""align-items: center; display: flex; color: darkorange; font-size: 90px""><b>ø</b></div>","null","","","","forget_cue","","","","","","","","","","","","","","","",""
"html-keyboard-response","66","333608","0.0-3.0-3.0-0.6","tur8c0r5wkp38u4","practice_cue","5f5fc4d15f73d2076d871530","5f60e3c0a3b16e07647b2ff9","5f60e97d15b4690008323af0","false","null","<span style=""color: black; font-size: 48px"">M + N</span>","null","","","","resp_prompt","","","","","","","","","","","","","","","",""
"categorize-image","67","334549","0.0-3.0-3.0-1.6","tur8c0r5wkp38u4","practice_cue","5f5fc4d15f73d2076d871530","5f60e3c0a3b16e07647b2ff9","5f60e97d15b4690008323af0","true","934","./Stimuli/ImagesPractice/LN109.jpg","76","","","","test","true","M + N","76","","LN","LN109.jpg","remember","old","23","2","practice_forget","right","","","",""
"html-keyboard-response","68","336550","0.0-3.0-3.0-3.6","tur8c0r5wkp38u4","practice_cue","5f5fc4d15f73d2076d871530","5f60e3c0a3b16e07647b2ff9","5f60e97d15b4690008323af0","false","null","<div style=""align-items: center; display: flex; color: dodgerblue; font-size: 90px""><b>o</b></div>","null","","","","forget_cue","","","","","","","","","","","","","","","",""
"html-keyboard-response","69","337252","0.0-3.0-3.0-0.7","tur8c0r5wkp38u4","practice_cue","5f5fc4d15f73d2076d871530","5f60e3c0a3b16e07647b2ff9","5f60e97d15b4690008323af0","false","null","<span style=""color: black; font-size: 48px"">M + N</span>","null","","","","resp_prompt","","","","","","","","","","","","","","","",""
"categorize-image","70","338171","0.0-3.0-3.0-1.7","tur8c0r5wkp38u4","practice_cue","5f5fc4d15f73d2076d871530","5f60e3c0a3b16e07647b2ff9","5f60e97d15b4690008323af0","true","913","./Stimuli/ImagesPractice/SM98.jpg","83","","","","test","true","M + N","83","","SM","SM98.jpg","forget","old","24","2","practice_forget","left","","","",""
"html-keyboard-response","71","340172","0.0-3.0-3.0-3.7","tur8c0r5wkp38u4","practice_cue","5f5fc4d15f73d2076d871530","5f60e3c0a3b16e07647b2ff9","5f60e97d15b4690008323af0","false","null","<div style=""align-items: center; display: flex; color: darkorange; font-size: 90px""><b>ø</b></div>","null","","","","forget_cue","","","","","","","","","","","","","","","",""
"html-keyboard-response","72","340874","0.0-3.0-3.0-0.8","tur8c0r5wkp38u4","practice_cue","5f5fc4d15f73d2076d871530","5f60e3c0a3b16e07647b2ff9","5f60e97d15b4690008323af0","false","null","<span style=""color: black; font-size: 48px"">M + N</span>","null","","","","resp_prompt","","","","","","","","","","","","","","","",""
"categorize-image","73","342091","0.0-3.0-3.0-1.8","tur8c0r5wkp38u4","practice_cue","5f5fc4d15f73d2076d871530","5f60e3c0a3b16e07647b2ff9","5f60e97d15b4690008323af0","true","1211","./Stimuli/ImagesPractice/SM97.jpg","83","","","","test","true","M + N","83","","SM","SM97.jpg","remember","old","25","2","practice_forget","left","","","",""
"html-keyboard-response","74","344093","0.0-3.0-3.0-3.8","tur8c0r5wkp38u4","practice_cue","5f5fc4d15f73d2076d871530","5f60e3c0a3b16e07647b2ff9","5f60e97d15b4690008323af0","false","null","<div style=""align-items: center; display: flex; color: dodgerblue; font-size: 90px""><b>o</b></div>","null","","","","forget_cue","","","","","","","","","","","","","","","",""
"html-keyboard-response","75","344795","0.0-3.0-3.0-0.9","tur8c0r5wkp38u4","practice_cue","5f5fc4d15f73d2076d871530","5f60e3c0a3b16e07647b2ff9","5f60e97d15b4690008323af0","false","null","<span style=""color: black; font-size: 48px"">N + M</span>","null","","","","resp_prompt","","","","","","","","","","","","","","","",""
"categorize-image","76","346280","0.0-3.0-3.0-1.9","tur8c0r5wkp38u4","practice_cue","5f5fc4d15f73d2076d871530","5f60e3c0a3b16e07647b2ff9","5f60e97d15b4690008323af0","true","1478","./Stimuli/ImagesPractice/SN205.jpg","83","","","","test","true","N + M","83","","SN","SN205.jpg","forget","old","26","2","practice_forget","left","","","",""
"html-keyboard-response","77","348282","0.0-3.0-3.0-3.9","tur8c0r5wkp38u4","practice_cue","5f5fc4d15f73d2076d871530","5f60e3c0a3b16e07647b2ff9","5f60e97d15b4690008323af0","false","null","<div style=""align-items: center; display: flex; color: darkorange; font-size: 90px""><b>ø</b></div>","null","","","","forget_cue","","","","","","","","","","","","","","","",""
"html-keyboard-response","78","348985","0.0-3.0-3.0-0.10","tur8c0r5wkp38u4","practice_cue","5f5fc4d15f73d2076d871530","5f60e3c0a3b16e07647b2ff9","5f60e97d15b4690008323af0","false","null","<span style=""color: black; font-size: 48px"">M + N</span>","null","","","","resp_prompt","","","","","","","","","","","","","","","",""
"categorize-image","79","349602","0.0-3.0-3.0-1.10","tur8c0r5wkp38u4","practice_cue","5f5fc4d15f73d2076d871530","5f60e3c0a3b16e07647b2ff9","5f60e97d15b4690008323af0","true","611","./Stimuli/ImagesPractice/SN75.jpg","76","","","","test","true","M + N","76","","SN","SN75.jpg","forget","old","27","2","practice_forget","right","","","",""
"html-keyboard-response","80","351605","0.0-3.0-3.0-3.10","tur8c0r5wkp38u4","practice_cue","5f5fc4d15f73d2076d871530","5f60e3c0a3b16e07647b2ff9","5f60e97d15b4690008323af0","false","null","<div style=""align-items: center; display: flex; color: darkorange; font-size: 90px""><b>ø</b></div>","null","","","","forget_cue","","","","","","","","","","","","","","","",""
"html-keyboard-response","81","352306","0.0-3.0-3.0-0.11","tur8c0r5wkp38u4","practice_cue","5f5fc4d15f73d2076d871530","5f60e3c0a3b16e07647b2ff9","5f60e97d15b4690008323af0","false","null","<span style=""color: black; font-size: 48px"">N + M</span>","null","","","","resp_prompt","","","","","","","","","","","","","","","",""
"categorize-image","82","353247","0.0-3.0-3.0-1.11","tur8c0r5wkp38u4","practice_cue","5f5fc4d15f73d2076d871530","5f60e3c0a3b16e07647b2ff9","5f60e97d15b4690008323af0","true","935.0000000000582","./Stimuli/ImagesPractice/SN222.jpg","83","","","","test","true","N + M","83","","SN","SN222.jpg","remember","old","28","2","practice_forget","left","","","",""
"html-keyboard-response","83","355248","0.0-3.0-3.0-3.11","tur8c0r5wkp38u4","practice_cue","5f5fc4d15f73d2076d871530","5f60e3c0a3b16e07647b2ff9","5f60e97d15b4690008323af0","false","null","<div style=""align-items: center; display: flex; color: dodgerblue; font-size: 90px""><b>o</b></div>","null","","","","forget_cue","","","","","","","","","","","","","","","",""
"html-keyboard-response","84","355950","0.0-3.0-3.0-0.12","tur8c0r5wkp38u4","practice_cue","5f5fc4d15f73d2076d871530","5f60e3c0a3b16e07647b2ff9","5f60e97d15b4690008323af0","false","null","<span style=""color: black; font-size: 48px"">N + M</span>","null","","","","resp_prompt","","","","","","","","","","","","","","","",""
"categorize-image","85","357956","0.0-3.0-3.0-1.12","tur8c0r5wkp38u4","practice_cue","5f5fc4d15f73d2076d871530","5f60e3c0a3b16e07647b2ff9","5f60e97d15b4690008323af0","true","null","./Stimuli/ImagesPractice/LN4.jpg","null","","","","test","false","N + M","83","","LN","LN4.jpg","remember","old","29","2","practice_forget","too_slow","","","",""
"html-keyboard-response","86","358458","0.0-3.0-3.0-2.12-0.12","tur8c0r5wkp38u4","practice_cue","5f5fc4d15f73d2076d871530","5f60e3c0a3b16e07647b2ff9","5f60e97d15b4690008323af0","false","null","<span style=""color: red; font-size: 48px"">Too slow!</span>","null","","","","feedback","","","","","","","","","","","","","","","",""
"html-keyboard-response","87","360460","0.0-3.0-3.0-3.12","tur8c0r5wkp38u4","practice_cue","5f5fc4d15f73d2076d871530","5f60e3c0a3b16e07647b2ff9","5f60e97d15b4690008323af0","false","null","<div style=""align-items: center; display: flex; color: dodgerblue; font-size: 90px""><b>o</b></div>","null","","","","forget_cue","","","","","","","","","","","","","","","",""
"html-keyboard-response","88","361162","0.0-3.0-3.0-0.13","tur8c0r5wkp38u4","practice_cue","5f5fc4d15f73d2076d871530","5f60e3c0a3b16e07647b2ff9","5f60e97d15b4690008323af0","false","null","<span style=""color: black; font-size: 48px"">N + M</span>","null","","","","resp_prompt","","","","","","","","","","","","","","","",""
"categorize-image","89","362582","0.0-3.0-3.0-1.13","tur8c0r5wkp38u4","practice_cue","5f5fc4d15f73d2076d871530","5f60e3c0a3b16e07647b2ff9","5f60e97d15b4690008323af0","true","1412.0000000000582","./Stimuli/ImagesPractice/SM35.jpg","83","","","","test","false","N + M","76","","SM","SM35.jpg","remember","old","30","2","practice_forget","left","","","",""
"html-keyboard-response","90","363084","0.0-3.0-3.0-2.13-0.13","tur8c0r5wkp38u4","practice_cue","5f5fc4d15f73d2076d871530","5f60e3c0a3b16e07647b2ff9","5f60e97d15b4690008323af0","false","null","<span style=""color: red; font-size: 48px"">Error!</span>","null","","","","feedback","","","","","","","","","","","","","","","",""
"html-keyboard-response","91","365086","0.0-3.0-3.0-3.13","tur8c0r5wkp38u4","practice_cue","5f5fc4d15f73d2076d871530","5f60e3c0a3b16e07647b2ff9","5f60e97d15b4690008323af0","false","null","<div style=""align-items: center; display: flex; color: dodgerblue; font-size: 90px""><b>o</b></div>","null","","","","forget_cue","","","","","","","","","","","","","","","",""
"html-keyboard-response","92","365788","0.0-3.0-3.0-0.14","tur8c0r5wkp38u4","practice_cue","5f5fc4d15f73d2076d871530","5f60e3c0a3b16e07647b2ff9","5f60e97d15b4690008323af0","false","null","<span style=""color: black; font-size: 48px"">N + M</span>","null","","","","resp_prompt","","","","","","","","","","","","","","","",""
"categorize-image","93","366838","0.0-3.0-3.0-1.14","tur8c0r5wkp38u4","practice_cue","5f5fc4d15f73d2076d871530","5f60e3c0a3b16e07647b2ff9","5f60e97d15b4690008323af0","true","1043","./Stimuli/ImagesPractice/LN17.jpg","83","","","","test","true","N + M","83","","LN","LN17.jpg","forget","old","31","2","practice_forget","left","","","",""
"html-keyboard-response","94","368840","0.0-3.0-3.0-3.14","tur8c0r5wkp38u4","practice_cue","5f5fc4d15f73d2076d871530","5f60e3c0a3b16e07647b2ff9","5f60e97d15b4690008323af0","false","null","<div style=""align-items: center; display: flex; color: darkorange; font-size: 90px""><b>ø</b></div>","null","","","","forget_cue","","","","","","","","","","","","","","","",""
"html-keyboard-response","95","369541","0.0-3.0-3.0-0.15","tur8c0r5wkp38u4","practice_cue","5f5fc4d15f73d2076d871530","5f60e3c0a3b16e07647b2ff9","5f60e97d15b4690008323af0","false","null","<span style=""color: black; font-size: 48px"">M + N</span>","null","","","","resp_prompt","","","","","","","","","","","","","","","",""
"categorize-image","96","370574","0.0-3.0-3.0-1.15","tur8c0r5wkp38u4","practice_cue","5f5fc4d15f73d2076d871530","5f60e3c0a3b16e07647b2ff9","5f60e97d15b4690008323af0","true","1019","./Stimuli/ImagesPractice/LM239.jpg","76","","","","test","false","M + N","83","","LM","LM239.jpg","remember","old","32","2","practice_forget","right","","","",""
"html-keyboard-response","97","371076","0.0-3.0-3.0-2.15-0.15","tur8c0r5wkp38u4","practice_cue","5f5fc4d15f73d2076d871530","5f60e3c0a3b16e07647b2ff9","5f60e97d15b4690008323af0","false","null","<span style=""color: red; font-size: 48px"">Error!</span>","null","","","","feedback","","","","","","","","","","","","","","","",""
"html-keyboard-response","98","373079","0.0-3.0-3.0-3.15","tur8c0r5wkp38u4","practice_cue","5f5fc4d15f73d2076d871530","5f60e3c0a3b16e07647b2ff9","5f60e97d15b4690008323af0","false","null","<div style=""align-items: center; display: flex; color: dodgerblue; font-size: 90px""><b>o</b></div>","null","","","","forget_cue","","","","","","","","","","","","","","","",""
"html-keyboard-response","99","375415","0.0-3.0-4.0","tur8c0r5wkp38u4","break","5f5fc4d15f73d2076d871530","5f60e3c0a3b16e07647b2ff9","5f60e97d15b4690008323af0","false","2335","<p style='font-size: 32px;'>Break</><br><br><br><br><br><p style='font-size: 24px;'>In the last block, you committed 2 errors and did not respond in time on 1 trials.
</p><p style='font-size: 24px;'>Try to respond as fast and accurately as possible in the next block as well! </p><p style='font-size: 24px;'>Press SPACE to continue.</p>","32","","","","","","","","","","","","","","","","","","","",""
"html-keyboard-response","100","390063","0.0-3.0-5.0","tur8c0r5wkp38u4","instructions","5f5fc4d15f73d2076d871530","5f60e3c0a3b16e07647b2ff9","5f60e97d15b4690008323af0","false","14648","<div align=left> Now, to practice, we kindly ask you to remember as many of the to-be-remembered pictures<br>of the previous learning phase as possible.<br><br>The pictures you were instructed to remember were the pictures followed by a <span style='color: dodgerblue; font-size: 28px'>O</span>.<br><br>In this memory test phase, you will also see some new pictures.<br>It is your task to remember whether you were presented with this specific picture in this study so far or not.<br>If you recognize an object (you have already seen it in this study), it is an OLD object. <br>If you do not recognize an object (you have NOT seen it in this study), it is a NEW object. <br><strong> Attention</strong>: As already mentioned, <span style='color: darkorange; font-size:28px'>Ø</span>-pictures will <strong>never</strong> appear in this memory test (neither as new objects). <br><br>Press SPACE to continue. </div>","32","","","","","","","","","","","","","","","","","","","",""
"html-keyboard-response","101","402290","0.0-3.0-6.0","tur8c0r5wkp38u4","instructions","5f5fc4d15f73d2076d871530","5f60e3c0a3b16e07647b2ff9","5f60e97d15b4690008323af0","false","12226","<div align=left> M and N no longer will appear on the left/right of the fixation cross. <br>Instead there will be a note at the bottom of the left or right side  <br>indicating which key you should press for an old or new object:  <br> <br>Press the <strong>right</strong> key to classify an object as <strong>old</strong> and press the <strong>left</strong>, to classify an object as <strong>new</strong>.<br>Please classify the objects as new/old by again placing your index finger on the 'S' and 'L' keys <br>and press them accordingly.<br><br><strong>Old:</strong> This object has been presented before. <br><strong>New:</strong> This object has <strong>not</strong> been presented.<br><br>Now please put your right and left index fingers on the 'S' and 'L' keys of your keyboard. <br>Please respond as fast and as accurately as possible!<br><br>Press SPACE to continue. </div>","32","","","","","","","","","","","","","","","","","","","",""
"categorize-image","102","405221","0.0-3.0-7.0-0.0","tur8c0r5wkp38u4","practice_recog","5f5fc4d15f73d2076d871530","5f60e3c0a3b16e07647b2ff9","5f60e97d15b4690008323af0","true","2425","./Stimuli/ImagesPractice/LN4.jpg","76","","","","test","true","","76","","LN","LN4.jpg","","old","33","3","practice_recog","right","","","",""
"categorize-image","103","407281","0.0-3.0-7.0-0.1","tur8c0r5wkp38u4","practice_recog","5f5fc4d15f73d2076d871530","5f60e3c0a3b16e07647b2ff9","5f60e97d15b4690008323af0","true","1554","./Stimuli/ImagesPractice/LN2.jpg","83","","","","test","true","","83","","LN","LN2.jpg","","new","34","3","practice_recog","left","","","",""
"categorize-image","104","409561","0.0-3.0-7.0-0.2","tur8c0r5wkp38u4","practice_recog","5f5fc4d15f73d2076d871530","5f60e3c0a3b16e07647b2ff9","5f60e97d15b4690008323af0","true","1774","./Stimuli/ImagesPractice/LN72.jpg","76","","","","test","true","","76","","LN","LN72.jpg","","old","35","3","practice_recog","right","","","",""
"categorize-image","105","411476","0.0-3.0-7.0-0.3","tur8c0r5wkp38u4","practice_recog","5f5fc4d15f73d2076d871530","5f60e3c0a3b16e07647b2ff9","5f60e97d15b4690008323af0","true","1410","./Stimuli/ImagesPractice/SN220.jpg","83","","","","test","true","","83","","SN","SN220.jpg","","new","36","3","practice_recog","left","","","",""
"categorize-image","106","413089","0.0-3.0-7.0-0.4","tur8c0r5wkp38u4","practice_recog","5f5fc4d15f73d2076d871530","5f60e3c0a3b16e07647b2ff9","5f60e97d15b4690008323af0","true","1107","./Stimuli/ImagesPractice/SM37.jpg","83","","","","test","true","","83","","SM","SM37.jpg","","new","37","3","practice_recog","left","","","",""
"categorize-image","107","414785","0.0-3.0-7.0-0.5","tur8c0r5wkp38u4","practice_recog","5f5fc4d15f73d2076d871530","5f60e3c0a3b16e07647b2ff9","5f60e97d15b4690008323af0","true","1191","./Stimuli/ImagesPractice/LM147.jpg","76","","","","test","true","","76","","LM","LM147.jpg","","old","38","3","practice_recog","right","","","",""
"categorize-image","108","417162","0.0-3.0-7.0-0.6","tur8c0r5wkp38u4","practice_recog","5f5fc4d15f73d2076d871530","5f60e3c0a3b16e07647b2ff9","5f60e97d15b4690008323af0","true","1870","./Stimuli/ImagesPractice/SM97.jpg","76","","","","test","true","","76","","SM","SM97.jpg","","old","39","3","practice_recog","right","","","",""
"categorize-image","109","418988","0.0-3.0-7.0-0.7","tur8c0r5wkp38u4","practice_recog","5f5fc4d15f73d2076d871530","5f60e3c0a3b16e07647b2ff9","5f60e97d15b4690008323af0","true","1320","./Stimuli/ImagesPractice/SN222.jpg","76","","","","test","true","","76","","SN","SN222.jpg","","old","40","3","practice_recog","right","","","",""
"categorize-image","110","421552","0.0-3.0-7.0-0.8","tur8c0r5wkp38u4","practice_recog","5f5fc4d15f73d2076d871530","5f60e3c0a3b16e07647b2ff9","5f60e97d15b4690008323af0","true","2060","./Stimuli/ImagesPractice/LM239.jpg","76","","","","test","true","","76","","LM","LM239.jpg","","old","41","3","practice_recog","right","","","",""
"categorize-image","111","423150","0.0-3.0-7.0-0.9","tur8c0r5wkp38u4","practice_recog","5f5fc4d15f73d2076d871530","5f60e3c0a3b16e07647b2ff9","5f60e97d15b4690008323af0","true","1093","./Stimuli/ImagesPractice/SN221.jpg","83","","","","test","true","","83","","SN","SN221.jpg","","new","42","3","practice_recog","left","","","",""
"categorize-image","112","425317","0.0-3.0-7.0-0.10","tur8c0r5wkp38u4","practice_recog","5f5fc4d15f73d2076d871530","5f60e3c0a3b16e07647b2ff9","5f60e97d15b4690008323af0","true","1661","./Stimuli/ImagesPractice/LN15.jpg","83","","","","test","true","","83","","LN","LN15.jpg","","new","43","3","practice_recog","left","","","",""
"categorize-image","113","426846","0.0-3.0-7.0-0.11","tur8c0r5wkp38u4","practice_recog","5f5fc4d15f73d2076d871530","5f60e3c0a3b16e07647b2ff9","5f60e97d15b4690008323af0","true","1024","./Stimuli/ImagesPractice/SM61.jpg","83","","","","test","true","","83","","SM","SM61.jpg","","new","44","3","practice_recog","left","","","",""
"categorize-image","114","428303","0.0-3.0-7.0-0.12","tur8c0r5wkp38u4","practice_recog","5f5fc4d15f73d2076d871530","5f60e3c0a3b16e07647b2ff9","5f60e97d15b4690008323af0","true","954","./Stimuli/ImagesPractice/SM62.jpg","83","","","","test","true","","83","","SM","SM62.jpg","","new","45","3","practice_recog","left","","","",""
"categorize-image","115","429736","0.0-3.0-7.0-0.13","tur8c0r5wkp38u4","practice_recog","5f5fc4d15f73d2076d871530","5f60e3c0a3b16e07647b2ff9","5f60e97d15b4690008323af0","true","930","./Stimuli/ImagesPractice/SM35.jpg","76","","","","test","true","","76","","SM","SM35.jpg","","old","46","3","practice_recog","right","","","",""
"categorize-image","116","431549","0.0-3.0-7.0-0.14","tur8c0r5wkp38u4","practice_recog","5f5fc4d15f73d2076d871530","5f60e3c0a3b16e07647b2ff9","5f60e97d15b4690008323af0","true","1307.9999999999418","./Stimuli/ImagesPractice/LM230.jpg","76","","","","test","false","","83","","LM","LM230.jpg","","new","47","3","practice_recog","right","","","",""
"categorize-image","117","435432","0.0-3.0-7.0-0.15","tur8c0r5wkp38u4","practice_recog","5f5fc4d15f73d2076d871530","5f60e3c0a3b16e07647b2ff9","5f60e97d15b4690008323af0","true","3378","./Stimuli/ImagesPractice/LN109.jpg","76","","","","test","true","","76","","LN","LN109.jpg","","old","48","3","practice_recog","right","","","",""
"html-keyboard-response","118","448144","0.0-3.0-8.0","tur8c0r5wkp38u4","instructions","5f5fc4d15f73d2076d871530","5f60e3c0a3b16e07647b2ff9","5f60e97d15b4690008323af0","false","12710","<div align=left> Great!<br><br>Are you ready to continue?<br>If you want to reread the instructions and redo the practice trials, please <br>press „Z“.<br><br>You can proceed when you are ready.<br><br>After the presentation of each object, you will receive an instruction whether to <br>remember or to forget the object.<br>We will test your memory of the following pictures only at the very end of <br>the experiment after all learning blocks are completed. <br><br>Press SPACE to CONTINUE when you are ready. </div>","32","","","","","","","","","","","","","","","","","","","",""
"html-keyboard-response","119","455494","0.0-4.0-0.0","tur8c0r5wkp38u4","instructions","5f5fc4d15f73d2076d871530","5f60e3c0a3b16e07647b2ff9","5f60e97d15b4690008323af0","false","7347","<div align=left> The actual experiment is about to start.<br>The practice trials are over!<br><br>Please always respond both fast and accurately!<br><br>Remember: <br> <br><li> Please place your index fingers on the <strong>'S'</strong> and <strong>'L'</strong> keys <br>to respond as fast and accurately as possible.</li><li> Every picture can be classified as either mechanical or non-mechanical.</li><li> If you do not respond in time or commit an error, you will receive a corresponding feedback.<br> Please try to respond as <strong> fast </strong> and as <strong> accurately as possible </strong>.</li><li> Remember the <span style='color: dodgerblue; font-size: 28px'>O</span> pictures. <br></li><li> Please minimize distractions and stay focused. </li><br><br>Press SPACE to START.</div>","32","","","","","","","","","","","","","","","","","","","",""
"html-keyboard-response","120","456195","0.0-4.0-1.0-0.0","tur8c0r5wkp38u4","prime","5f5fc4d15f73d2076d871530","5f60e3c0a3b16e07647b2ff9","5f60e97d15b4690008323af0","false","null","<span style=""color: black; font-size: 48px"">N + M</span>","null","","","","resp_prompt","","","","","","","","","","","","","","","",""
"categorize-image","121","457101","0.0-4.0-1.0-1.0","tur8c0r5wkp38u4","prime","5f5fc4d15f73d2076d871530","5f60e3c0a3b16e07647b2ff9","5f60e97d15b4690008323af0","true","899.9999999999418","./Stimuli/SelectedImages/LM/LM129.bmp","76","","","","test","true","N + M","76","repetition","LM","LM129.bmp","remember","","49","3","prime1","right","","","",""
"html-keyboard-response","122","459103","0.0-4.0-1.0-3.0","tur8c0r5wkp38u4","prime","5f5fc4d15f73d2076d871530","5f60e3c0a3b16e07647b2ff9","5f60e97d15b4690008323af0","false","null","<div style=""align-items: center; display: flex; color: dodgerblue; font-size: 90px""><b>o</b></div>","null","","","","forget_cue","","","","","","","","","","","","","","","",""
"html-keyboard-response","123","459805","0.0-4.0-1.0-0.1","tur8c0r5wkp38u4","prime","5f5fc4d15f73d2076d871530","5f60e3c0a3b16e07647b2ff9","5f60e97d15b4690008323af0","false","null","<span style=""color: black; font-size: 48px"">N + M</span>","null","","","","resp_prompt","","","","","","","","","","","","","","","",""
"categorize-image","124","460940","0.0-4.0-1.0-1.1","tur8c0r5wkp38u4","prime","5f5fc4d15f73d2076d871530","5f60e3c0a3b16e07647b2ff9","5f60e97d15b4690008323af0","true","1129","./Stimuli/SelectedImages/SN/SN128.bmp","83","","","","test","true","N + M","83","repetition","SN","SN128.bmp","forget","","50","3","prime1","left","","","",""
"html-keyboard-response","125","462941","0.0-4.0-1.0-3.1","tur8c0r5wkp38u4","prime","5f5fc4d15f73d2076d871530","5f60e3c0a3b16e07647b2ff9","5f60e97d15b4690008323af0","false","null","<div style=""align-items: center; display: flex; color: darkorange; font-size: 90px""><b>ø</b></div>","null","","","","forget_cue","","","","","","","","","","","","","","","",""
"html-keyboard-response","126","463643","0.0-4.0-1.0-0.2","tur8c0r5wkp38u4","prime","5f5fc4d15f73d2076d871530","5f60e3c0a3b16e07647b2ff9","5f60e97d15b4690008323af0","false","null","<span style=""color: black; font-size: 48px"">M + N</span>","null","","","","resp_prompt","","","","","","","","","","","","","","","",""
"categorize-image","127","464302","0.0-4.0-1.0-1.2","tur8c0r5wkp38u4","prime","5f5fc4d15f73d2076d871530","5f60e3c0a3b16e07647b2ff9","5f60e97d15b4690008323af0","true","652","./Stimuli/SelectedImages/LM/LM150.bmp","83","","","","test","true","M + N","83","repetition","LM","LM150.bmp","forget","","51","3","prime1","left","","","",""
"html-keyboard-response","128","466304","0.0-4.0-1.0-3.2","tur8c0r5wkp38u4","prime","5f5fc4d15f73d2076d871530","5f60e3c0a3b16e07647b2ff9","5f60e97d15b4690008323af0","false","null","<div style=""align-items: center; display: flex; color: darkorange; font-size: 90px""><b>ø</b></div>","null","","","","forget_cue","","","","","","","","","","","","","","","",""
"html-keyboard-response","129","467006","0.0-4.0-1.0-0.3","tur8c0r5wkp38u4","prime","5f5fc4d15f73d2076d871530","5f60e3c0a3b16e07647b2ff9","5f60e97d15b4690008323af0","false","null","<span style=""color: black; font-size: 48px"">N + M</span>","null","","","","resp_prompt","","","","","","","","","","","","","","","",""
"categorize-image","130","467683","0.0-4.0-1.0-1.3","tur8c0r5wkp38u4","prime","5f5fc4d15f73d2076d871530","5f60e3c0a3b16e07647b2ff9","5f60e97d15b4690008323af0","true","670","./Stimuli/SelectedImages/LN/LN128.bmp","83","","","","test","true","N + M","83","repetition","LN","LN128.bmp","remember","","52","3","prime1","left","","","",""
"html-keyboard-response","131","469685","0.0-4.0-1.0-3.3","tur8c0r5wkp38u4","prime","5f5fc4d15f73d2076d871530","5f60e3c0a3b16e07647b2ff9","5f60e97d15b4690008323af0","false","null","<div style=""align-items: center; display: flex; color: dodgerblue; font-size: 90px""><b>o</b></div>","null","","","","forget_cue","","","","","","","","","","","","","","","",""
"html-keyboard-response","132","470386","0.0-4.0-1.0-0.4","tur8c0r5wkp38u4","prime","5f5fc4d15f73d2076d871530","5f60e3c0a3b16e07647b2ff9","5f60e97d15b4690008323af0","false","null","<span style=""color: black; font-size: 48px"">N + M</span>","null","","","","resp_prompt","","","","","","","","","","","","","","","",""
"categorize-image","133","471745","0.0-4.0-1.0-1.4","tur8c0r5wkp38u4","prime","5f5fc4d15f73d2076d871530","5f60e3c0a3b16e07647b2ff9","5f60e97d15b4690008323af0","true","1353","./Stimuli/SelectedImages/LN/LN177.bmp","83","","","","test","true","N + M","83","switch","LN","LN177.bmp","remember","","53","3","prime1","left","","","",""
"html-keyboard-response","134","473747","0.0-4.0-1.0-3.4","tur8c0r5wkp38u4","prime","5f5fc4d15f73d2076d871530","5f60e3c0a3b16e07647b2ff9","5f60e97d15b4690008323af0","false","null","<div style=""align-items: center; display: flex; color: dodgerblue; font-size: 90px""><b>o</b></div>","null","","","","forget_cue","","","","","","","","","","","","","","","",""
"html-keyboard-response","135","474449","0.0-4.0-1.0-0.5","tur8c0r5wkp38u4","prime","5f5fc4d15f73d2076d871530","5f60e3c0a3b16e07647b2ff9","5f60e97d15b4690008323af0","false","null","<span style=""color: black; font-size: 48px"">N + M</span>","null","","","","resp_prompt","","","","","","","","","","","","","","","",""
"categorize-image","136","475099","0.0-4.0-1.0-1.5","tur8c0r5wkp38u4","prime","5f5fc4d15f73d2076d871530","5f60e3c0a3b16e07647b2ff9","5f60e97d15b4690008323af0","true","645","./Stimuli/SelectedImages/SM/SM106.bmp","76","","","","test","true","N + M","76","repetition","SM","SM106.bmp","forget","","54","3","prime1","right","","","",""
"html-keyboard-response","137","477101","0.0-4.0-1.0-3.5","tur8c0r5wkp38u4","prime","5f5fc4d15f73d2076d871530","5f60e3c0a3b16e07647b2ff9","5f60e97d15b4690008323af0","false","null","<div style=""align-items: center; display: flex; color: darkorange; font-size: 90px""><b>ø</b></div>","null","","","","forget_cue","","","","","","","","","","","","","","","",""
"html-keyboard-response","138","477803","0.0-4.0-1.0-0.6","tur8c0r5wkp38u4","prime","5f5fc4d15f73d2076d871530","5f60e3c0a3b16e07647b2ff9","5f60e97d15b4690008323af0","false","null","<span style=""color: black; font-size: 48px"">N + M</span>","null","","","","resp_prompt","","","","","","","","","","","","","","","",""
"categorize-image","139","478449","0.0-4.0-1.0-1.6","tur8c0r5wkp38u4","prime","5f5fc4d15f73d2076d871530","5f60e3c0a3b16e07647b2ff9","5f60e97d15b4690008323af0","true","638.9999999999418","./Stimuli/SelectedImages/LN/LN101.bmp","83","","","","test","true","N + M","83","repetition","LN","LN101.bmp","remember","","55","3","prime1","left","","","",""
"html-keyboard-response","140","480451","0.0-4.0-1.0-3.6","tur8c0r5wkp38u4","prime","5f5fc4d15f73d2076d871530","5f60e3c0a3b16e07647b2ff9","5f60e97d15b4690008323af0","false","null","<div style=""align-items: center; display: flex; color: dodgerblue; font-size: 90px""><b>o</b></div>","null","","","","forget_cue","","","","","","","","","","","","","","","",""
"html-keyboard-response","141","481153","0.0-4.0-1.0-0.7","tur8c0r5wkp38u4","prime","5f5fc4d15f73d2076d871530","5f60e3c0a3b16e07647b2ff9","5f60e97d15b4690008323af0","false","null","<span style=""color: black; font-size: 48px"">M + N</span>","null","","","","resp_prompt","","","","","","","","","","","","","","","",""
"categorize-image","142","481772","0.0-4.0-1.0-1.7","tur8c0r5wkp38u4","prime","5f5fc4d15f73d2076d871530","5f60e3c0a3b16e07647b2ff9","5f60e97d15b4690008323af0","true","612","./Stimuli/SelectedImages/LM/LM103.bmp","83","","","","test","true","M + N","83","switch","LM","LM103.bmp","remember","","56","3","prime1","left","","","",""
"html-keyboard-response","143","483774","0.0-4.0-1.0-3.7","tur8c0r5wkp38u4","prime","5f5fc4d15f73d2076d871530","5f60e3c0a3b16e07647b2ff9","5f60e97d15b4690008323af0","false","null","<div style=""align-items: center; display: flex; color: dodgerblue; font-size: 90px""><b>o</b></div>","null","","","","forget_cue","","","","","","","","","","","","","","","",""
"html-keyboard-response","144","484475","0.0-4.0-1.0-0.8","tur8c0r5wkp38u4","prime","5f5fc4d15f73d2076d871530","5f60e3c0a3b16e07647b2ff9","5f60e97d15b4690008323af0","false","null","<span style=""color: black; font-size: 48px"">N + M</span>","null","","","","resp_prompt","","","","","","","","","","","","","","","",""
"categorize-image","145","485153","0.0-4.0-1.0-1.8","tur8c0r5wkp38u4","prime","5f5fc4d15f73d2076d871530","5f60e3c0a3b16e07647b2ff9","5f60e97d15b4690008323af0","true","672","./Stimuli/SelectedImages/SM/SM195.bmp","76","","","","test","true","N + M","76","switch","SM","SM195.bmp","remember","","57","3","prime1","right","","","",""
"html-keyboard-response","146","487154","0.0-4.0-1.0-3.8","tur8c0r5wkp38u4","prime","5f5fc4d15f73d2076d871530","5f60e3c0a3b16e07647b2ff9","5f60e97d15b4690008323af0","false","null","<div style=""align-items: center; display: flex; color: dodgerblue; font-size: 90px""><b>o</b></div>","null","","","","forget_cue","","","","","","","","","","","","","","","",""
"html-keyboard-response","147","487857","0.0-4.0-1.0-0.9","tur8c0r5wkp38u4","prime","5f5fc4d15f73d2076d871530","5f60e3c0a3b16e07647b2ff9","5f60e97d15b4690008323af0","false","null","<span style=""color: black; font-size: 48px"">M + N</span>","null","","","","resp_prompt","","","","","","","","","","","","","","","",""
"categorize-image","148","488698","0.0-4.0-1.0-1.9","tur8c0r5wkp38u4","prime","5f5fc4d15f73d2076d871530","5f60e3c0a3b16e07647b2ff9","5f60e97d15b4690008323af0","true","834","./Stimuli/SelectedImages/SN/SN52.bmp","76","","","","test","true","M + N","76","switch","SN","SN52.bmp","forget","","58","3","prime1","right","","","",""
"html-keyboard-response","149","490702","0.0-4.0-1.0-3.9","tur8c0r5wkp38u4","prime","5f5fc4d15f73d2076d871530","5f60e3c0a3b16e07647b2ff9","5f60e97d15b4690008323af0","false","null","<div style=""align-items: center; display: flex; color: darkorange; font-size: 90px""><b>ø</b></div>","null","","","","forget_cue","","","","","","","","","","","","","","","",""
"html-keyboard-response","150","491404","0.0-4.0-1.0-0.10","tur8c0r5wkp38u4","prime","5f5fc4d15f73d2076d871530","5f60e3c0a3b16e07647b2ff9","5f60e97d15b4690008323af0","false","null","<span style=""color: black; font-size: 48px"">N + M</span>","null","","","","resp_prompt","","","","","","","","","","","","","","","",""
"categorize-image","151","492103","0.0-4.0-1.0-1.10","tur8c0r5wkp38u4","prime","5f5fc4d15f73d2076d871530","5f60e3c0a3b16e07647b2ff9","5f60e97d15b4690008323af0","true","693","./Stimuli/SelectedImages/SM/SM74.bmp","76","","","","test","true","N + M","76","switch","SM","SM74.bmp","forget","","59","3","prime1","right","","","",""
"html-keyboard-response","152","494105","0.0-4.0-1.0-3.10","tur8c0r5wkp38u4","prime","5f5fc4d15f73d2076d871530","5f60e3c0a3b16e07647b2ff9","5f60e97d15b4690008323af0","false","null","<div style=""align-items: center; display: flex; color: darkorange; font-size: 90px""><b>ø</b></div>","null","","","","forget_cue","","","","","","","","","","","","","","","",""
"html-keyboard-response","153","494807","0.0-4.0-1.0-0.11","tur8c0r5wkp38u4","prime","5f5fc4d15f73d2076d871530","5f60e3c0a3b16e07647b2ff9","5f60e97d15b4690008323af0","false","null","<span style=""color: black; font-size: 48px"">M + N</span>","null","","","","resp_prompt","","","","","","","","","","","","","","","",""
"categorize-image","154","496147","0.0-4.0-1.0-1.11","tur8c0r5wkp38u4","prime","5f5fc4d15f73d2076d871530","5f60e3c0a3b16e07647b2ff9","5f60e97d15b4690008323af0","true","1335","./Stimuli/SelectedImages/SN/SN187.bmp","76","","","","test","true","M + N","76","repetition","SN","SN187.bmp","forget","","60","3","prime1","right","","","",""
"html-keyboard-response","155","498149","0.0-4.0-1.0-3.11","tur8c0r5wkp38u4","prime","5f5fc4d15f73d2076d871530","5f60e3c0a3b16e07647b2ff9","5f60e97d15b4690008323af0","false","null","<div style=""align-items: center; display: flex; color: darkorange; font-size: 90px""><b>ø</b></div>","null","","","","forget_cue","","","","","","","","","","","","","","","",""
"html-keyboard-response","156","498850","0.0-4.0-1.0-0.12","tur8c0r5wkp38u4","prime","5f5fc4d15f73d2076d871530","5f60e3c0a3b16e07647b2ff9","5f60e97d15b4690008323af0","false","null","<span style=""color: black; font-size: 48px"">N + M</span>","null","","","","resp_prompt","","","","","","","","","","","","","","","",""
"categorize-image","157","500152","0.0-4.0-1.0-1.12","tur8c0r5wkp38u4","prime","5f5fc4d15f73d2076d871530","5f60e3c0a3b16e07647b2ff9","5f60e97d15b4690008323af0","true","1295","./Stimuli/SelectedImages/SN/SN140.bmp","83","","","","test","true","N + M","83","switch","SN","SN140.bmp","remember","","61","3","prime1","left","","","",""
"html-keyboard-response","158","502153","0.0-4.0-1.0-3.12","tur8c0r5wkp38u4","prime","5f5fc4d15f73d2076d871530","5f60e3c0a3b16e07647b2ff9","5f60e97d15b4690008323af0","false","null","<div style=""align-items: center; display: flex; color: dodgerblue; font-size: 90px""><b>o</b></div>","null","","","","forget_cue","","","","","","","","","","","","","","","",""
"html-keyboard-response","159","502854","0.0-4.0-1.0-0.13","tur8c0r5wkp38u4","prime","5f5fc4d15f73d2076d871530","5f60e3c0a3b16e07647b2ff9","5f60e97d15b4690008323af0","false","null","<span style=""color: black; font-size: 48px"">N + M</span>","null","","","","resp_prompt","","","","","","","","","","","","","","","",""
"categorize-image","160","503915","0.0-4.0-1.0-1.13","tur8c0r5wkp38u4","prime","5f5fc4d15f73d2076d871530","5f60e3c0a3b16e07647b2ff9","5f60e97d15b4690008323af0","true","1055","./Stimuli/SelectedImages/SM/SM128.bmp","76","","","","test","true","N + M","76","switch","SM","SM128.bmp","forget","","62","3","prime1","right","","","",""
"html-keyboard-response","161","505917","0.0-4.0-1.0-3.13","tur8c0r5wkp38u4","prime","5f5fc4d15f73d2076d871530","5f60e3c0a3b16e07647b2ff9","5f60e97d15b4690008323af0","false","null","<div style=""align-items: center; display: flex; color: darkorange; font-size: 90px""><b>ø</b></div>","null","","","","forget_cue","","","","","","","","","","","","","","","",""
"html-keyboard-response","162","506619","0.0-4.0-1.0-0.14","tur8c0r5wkp38u4","prime","5f5fc4d15f73d2076d871530","5f60e3c0a3b16e07647b2ff9","5f60e97d15b4690008323af0","false","null","<span style=""color: black; font-size: 48px"">N + M</span>","null","","","","resp_prompt","","","","","","","","","","","","","","","",""
"categorize-image","163","508624","0.0-4.0-1.0-1.14","tur8c0r5wkp38u4","prime","5f5fc4d15f73d2076d871530","5f60e3c0a3b16e07647b2ff9","5f60e97d15b4690008323af0","true","null","./Stimuli/SelectedImages/LN/LN13.bmp","null","","","","test","false","N + M","83","repetition","LN","LN13.bmp","forget","","63","3","prime1","too_slow","","","",""
"html-keyboard-response","164","509126","0.0-4.0-1.0-2.14-0.14","tur8c0r5wkp38u4","prime","5f5fc4d15f73d2076d871530","5f60e3c0a3b16e07647b2ff9","5f60e97d15b4690008323af0","false","null","<span style=""color: red; font-size: 48px"">Too slow!</span>","null","","","","feedback","","","","","","","","","","","","","","","",""
"html-keyboard-response","165","511129","0.0-4.0-1.0-3.14","tur8c0r5wkp38u4","prime","5f5fc4d15f73d2076d871530","5f60e3c0a3b16e07647b2ff9","5f60e97d15b4690008323af0","false","null","<div style=""align-items: center; display: flex; color: darkorange; font-size: 90px""><b>ø</b></div>","null","","","","forget_cue","","","","","","","","","","","","","","","",""
"html-keyboard-response","166","511831","0.0-4.0-1.0-0.15","tur8c0r5wkp38u4","prime","5f5fc4d15f73d2076d871530","5f60e3c0a3b16e07647b2ff9","5f60e97d15b4690008323af0","false","null","<span style=""color: black; font-size: 48px"">N + M</span>","null","","","","resp_prompt","","","","","","","","","","","","","","","",""
"categorize-image","167","512686","0.0-4.0-1.0-1.15","tur8c0r5wkp38u4","prime","5f5fc4d15f73d2076d871530","5f60e3c0a3b16e07647b2ff9","5f60e97d15b4690008323af0","true","848.0000000001164","./Stimuli/SelectedImages/SN/SN179.bmp","83","","","","test","true","N + M","83","switch","SN","SN179.bmp","remember","","64","3","prime1","left","","","",""
"html-keyboard-response","168","514688","0.0-4.0-1.0-3.15","tur8c0r5wkp38u4","prime","5f5fc4d15f73d2076d871530","5f60e3c0a3b16e07647b2ff9","5f60e97d15b4690008323af0","false","null","<div style=""align-items: center; display: flex; color: dodgerblue; font-size: 90px""><b>o</b></div>","null","","","","forget_cue","","","","","","","","","","","","","","","",""
"html-keyboard-response","169","515389","0.0-4.0-1.0-0.16","tur8c0r5wkp38u4","prime","5f5fc4d15f73d2076d871530","5f60e3c0a3b16e07647b2ff9","5f60e97d15b4690008323af0","false","null","<span style=""color: black; font-size: 48px"">M + N</span>","null","","","","resp_prompt","","","","","","","","","","","","","","","",""
"categorize-image","170","516962","0.0-4.0-1.0-1.16","tur8c0r5wkp38u4","prime","5f5fc4d15f73d2076d871530","5f60e3c0a3b16e07647b2ff9","5f60e97d15b4690008323af0","true","1563.0000000001164","./Stimuli/SelectedImages/SN/SN111.bmp","83","","","","test","false","M + N","76","repetition","SN","SN111.bmp","remember","","65","3","prime1","left","","","",""
"html-keyboard-response","171","517463","0.0-4.0-1.0-2.16-0.16","tur8c0r5wkp38u4","prime","5f5fc4d15f73d2076d871530","5f60e3c0a3b16e07647b2ff9","5f60e97d15b4690008323af0","false","null","<span style=""color: red; font-size: 48px"">Error!</span>","null","","","","feedback","","","","","","","","","","","","","","","",""
"html-keyboard-response","172","519465","0.0-4.0-1.0-3.16","tur8c0r5wkp38u4","prime","5f5fc4d15f73d2076d871530","5f60e3c0a3b16e07647b2ff9","5f60e97d15b4690008323af0","false","null","<div style=""align-items: center; display: flex; color: dodgerblue; font-size: 90px""><b>o</b></div>","null","","","","forget_cue","","","","","","","","","","","","","","","",""
"html-keyboard-response","173","520168","0.0-4.0-1.0-0.17","tur8c0r5wkp38u4","prime","5f5fc4d15f73d2076d871530","5f60e3c0a3b16e07647b2ff9","5f60e97d15b4690008323af0","false","null","<span style=""color: black; font-size: 48px"">N + M</span>","null","","","","resp_prompt","","","","","","","","","","","","","","","",""
"categorize-image","174","521449","0.0-4.0-1.0-1.17","tur8c0r5wkp38u4","prime","5f5fc4d15f73d2076d871530","5f60e3c0a3b16e07647b2ff9","5f60e97d15b4690008323af0","true","1275.9999999999418","./Stimuli/SelectedImages/SM/SM78.bmp","76","","","","test","true","N + M","76","repetition","SM","SM78.bmp","remember","","66","3","prime1","right","","","",""
"html-keyboard-response","175","523451","0.0-4.0-1.0-3.17","tur8c0r5wkp38u4","prime","5f5fc4d15f73d2076d871530","5f60e3c0a3b16e07647b2ff9","5f60e97d15b4690008323af0","false","null","<div style=""align-items: center; display: flex; color: dodgerblue; font-size: 90px""><b>o</b></div>","null","","","","forget_cue","","","","","","","","","","","","","","","",""
"html-keyboard-response","176","524152","0.0-4.0-1.0-0.18","tur8c0r5wkp38u4","prime","5f5fc4d15f73d2076d871530","5f60e3c0a3b16e07647b2ff9","5f60e97d15b4690008323af0","false","null","<span style=""color: black; font-size: 48px"">M + N</span>","null","","","","resp_prompt","","","","","","","","","","","","","","","",""
"categorize-image","177","524905","0.0-4.0-1.0-1.18","tur8c0r5wkp38u4","prime","5f5fc4d15f73d2076d871530","5f60e3c0a3b16e07647b2ff9","5f60e97d15b4690008323af0","true","748.0000000001164","./Stimuli/SelectedImages/SM/SM148.bmp","83","","","","test","true","M + N","83","repetition","SM","SM148.bmp","remember","","67","3","prime1","left","","","",""
"html-keyboard-response","178","526906","0.0-4.0-1.0-3.18","tur8c0r5wkp38u4","prime","5f5fc4d15f73d2076d871530","5f60e3c0a3b16e07647b2ff9","5f60e97d15b4690008323af0","false","null","<div style=""align-items: center; display: flex; color: dodgerblue; font-size: 90px""><b>o</b></div>","null","","","","forget_cue","","","","","","","","","","","","","","","",""
"html-keyboard-response","179","527608","0.0-4.0-1.0-0.19","tur8c0r5wkp38u4","prime","5f5fc4d15f73d2076d871530","5f60e3c0a3b16e07647b2ff9","5f60e97d15b4690008323af0","false","null","<span style=""color: black; font-size: 48px"">M + N</span>","null","","","","resp_prompt","","","","","","","","","","","","","","","",""
"categorize-image","180","528860","0.0-4.0-1.0-1.19","tur8c0r5wkp38u4","prime","5f5fc4d15f73d2076d871530","5f60e3c0a3b16e07647b2ff9","5f60e97d15b4690008323af0","true","1245","./Stimuli/SelectedImages/LM/LM179.bmp","83","","","","test","true","M + N","83","repetition","LM","LM179.bmp","remember","","68","3","prime1","left","","","",""
"html-keyboard-response","181","530861","0.0-4.0-1.0-3.19","tur8c0r5wkp38u4","prime","5f5fc4d15f73d2076d871530","5f60e3c0a3b16e07647b2ff9","5f60e97d15b4690008323af0","false","null","<div style=""align-items: center; display: flex; color: dodgerblue; font-size: 90px""><b>o</b></div>","null","","","","forget_cue","","","","","","","","","","","","","","","",""
"html-keyboard-response","182","531563","0.0-4.0-1.0-0.20","tur8c0r5wkp38u4","prime","5f5fc4d15f73d2076d871530","5f60e3c0a3b16e07647b2ff9","5f60e97d15b4690008323af0","false","null","<span style=""color: black; font-size: 48px"">N + M</span>","null","","","","resp_prompt","","","","","","","","","","","","","","","",""
"categorize-image","183","533040","0.0-4.0-1.0-1.20","tur8c0r5wkp38u4","prime","5f5fc4d15f73d2076d871530","5f60e3c0a3b16e07647b2ff9","5f60e97d15b4690008323af0","true","1471","./Stimuli/SelectedImages/SN/SN60.bmp","76","","","","test","false","N + M","83","repetition","SN","SN60.bmp","remember","","69","3","prime1","right","","","",""
"html-keyboard-response","184","533541","0.0-4.0-1.0-2.20-0.20","tur8c0r5wkp38u4","prime","5f5fc4d15f73d2076d871530","5f60e3c0a3b16e07647b2ff9","5f60e97d15b4690008323af0","false","null","<span style=""color: red; font-size: 48px"">Error!</span>","null","","","","feedback","","","","","","","","","","","","","","","",""
"html-keyboard-response","185","535542","0.0-4.0-1.0-3.20","tur8c0r5wkp38u4","prime","5f5fc4d15f73d2076d871530","5f60e3c0a3b16e07647b2ff9","5f60e97d15b4690008323af0","false","null","<div style=""align-items: center; display: flex; color: dodgerblue; font-size: 90px""><b>o</b></div>","null","","","","forget_cue","","","","","","","","","","","","","","","",""
"html-keyboard-response","186","536244","0.0-4.0-1.0-0.21","tur8c0r5wkp38u4","prime","5f5fc4d15f73d2076d871530","5f60e3c0a3b16e07647b2ff9","5f60e97d15b4690008323af0","false","null","<span style=""color: black; font-size: 48px"">M + N</span>","null","","","","resp_prompt","","","","","","","","","","","","","","","",""
"categorize-image","187","537195","0.0-4.0-1.0-1.21","tur8c0r5wkp38u4","prime","5f5fc4d15f73d2076d871530","5f60e3c0a3b16e07647b2ff9","5f60e97d15b4690008323af0","true","945","./Stimuli/SelectedImages/LN/LN42.bmp","76","","","","test","true","M + N","76","repetition","LN","LN42.bmp","remember","","70","3","prime1","right","","","",""
"html-keyboard-response","188","539197","0.0-4.0-1.0-3.21","tur8c0r5wkp38u4","prime","5f5fc4d15f73d2076d871530","5f60e3c0a3b16e07647b2ff9","5f60e97d15b4690008323af0","false","null","<div style=""align-items: center; display: flex; color: dodgerblue; font-size: 90px""><b>o</b></div>","null","","","","forget_cue","","","","","","","","","","","","","","","",""
"html-keyboard-response","189","539899","0.0-4.0-1.0-0.22","tur8c0r5wkp38u4","prime","5f5fc4d15f73d2076d871530","5f60e3c0a3b16e07647b2ff9","5f60e97d15b4690008323af0","false","null","<span style=""color: black; font-size: 48px"">M + N</span>","null","","","","resp_prompt","","","","","","","","","","","","","","","",""
"categorize-image","190","541443","0.0-4.0-1.0-1.22","tur8c0r5wkp38u4","prime","5f5fc4d15f73d2076d871530","5f60e3c0a3b16e07647b2ff9","5f60e97d15b4690008323af0","true","1539","./Stimuli/SelectedImages/SM/SM24.bmp","83","","","","test","true","M + N","83","switch","SM","SM24.bmp","forget","","71","3","prime1","left","","","",""
"html-keyboard-response","191","543445","0.0-4.0-1.0-3.22","tur8c0r5wkp38u4","prime","5f5fc4d15f73d2076d871530","5f60e3c0a3b16e07647b2ff9","5f60e97d15b4690008323af0","false","null","<div style=""align-items: center; display: flex; color: darkorange; font-size: 90px""><b>ø</b></div>","null","","","","forget_cue","","","","","","","","","","","","","","","",""
"html-keyboard-response","192","544147","0.0-4.0-1.0-0.23","tur8c0r5wkp38u4","prime","5f5fc4d15f73d2076d871530","5f60e3c0a3b16e07647b2ff9","5f60e97d15b4690008323af0","false","null","<span style=""color: black; font-size: 48px"">M + N</span>","null","","","","resp_prompt","","","","","","","","","","","","","","","",""
"categorize-image","193","545544","0.0-4.0-1.0-1.23","tur8c0r5wkp38u4","prime","5f5fc4d15f73d2076d871530","5f60e3c0a3b16e07647b2ff9","5f60e97d15b4690008323af0","true","1391","./Stimuli/SelectedImages/SM/SM73.bmp","83","","","","test","true","M + N","83","repetition","SM","SM73.bmp","forget","","72","3","prime1","left","","","",""
"html-keyboard-response","194","547546","0.0-4.0-1.0-3.23","tur8c0r5wkp38u4","prime","5f5fc4d15f73d2076d871530","5f60e3c0a3b16e07647b2ff9","5f60e97d15b4690008323af0","false","null","<div style=""align-items: center; display: flex; color: darkorange; font-size: 90px""><b>ø</b></div>","null","","","","forget_cue","","","","","","","","","","","","","","","",""
"html-keyboard-response","195","548248","0.0-4.0-1.0-0.24","tur8c0r5wkp38u4","prime","5f5fc4d15f73d2076d871530","5f60e3c0a3b16e07647b2ff9","5f60e97d15b4690008323af0","false","null","<span style=""color: black; font-size: 48px"">N + M</span>","null","","","","resp_prompt","","","","","","","","","","","","","","","",""
"categorize-image","196","549480","0.0-4.0-1.0-1.24","tur8c0r5wkp38u4","prime","5f5fc4d15f73d2076d871530","5f60e3c0a3b16e07647b2ff9","5f60e97d15b4690008323af0","true","1226","./Stimuli/SelectedImages/SN/SN27.bmp","83","","","","test","true","N + M","83","switch","SN","SN27.bmp","forget","","73","3","prime1","left","","","",""
"html-keyboard-response","197","551481","0.0-4.0-1.0-3.24","tur8c0r5wkp38u4","prime","5f5fc4d15f73d2076d871530","5f60e3c0a3b16e07647b2ff9","5f60e97d15b4690008323af0","false","null","<div style=""align-items: center; display: flex; color: darkorange; font-size: 90px""><b>ø</b></div>","null","","","","forget_cue","","","","","","","","","","","","","","","",""
"html-keyboard-response","198","552183","0.0-4.0-1.0-0.25","tur8c0r5wkp38u4","prime","5f5fc4d15f73d2076d871530","5f60e3c0a3b16e07647b2ff9","5f60e97d15b4690008323af0","false","null","<span style=""color: black; font-size: 48px"">N + M</span>","null","","","","resp_prompt","","","","","","","","","","","","","","","",""
"categorize-image","199","553099","0.0-4.0-1.0-1.25","tur8c0r5wkp38u4","prime","5f5fc4d15f73d2076d871530","5f60e3c0a3b16e07647b2ff9","5f60e97d15b4690008323af0","true","911","./Stimuli/SelectedImages/LN/LN150.bmp","83","","","","test","true","N + M","83","switch","LN","LN150.bmp","forget","","74","3","prime1","left","","","",""
"html-keyboard-response","200","555101","0.0-4.0-1.0-3.25","tur8c0r5wkp38u4","prime","5f5fc4d15f73d2076d871530","5f60e3c0a3b16e07647b2ff9","5f60e97d15b4690008323af0","false","null","<div style=""align-items: center; display: flex; color: darkorange; font-size: 90px""><b>ø</b></div>","null","","","","forget_cue","","","","","","","","","","","","","","","",""
"html-keyboard-response","201","555803","0.0-4.0-1.0-0.26","tur8c0r5wkp38u4","prime","5f5fc4d15f73d2076d871530","5f60e3c0a3b16e07647b2ff9","5f60e97d15b4690008323af0","false","null","<span style=""color: black; font-size: 48px"">M + N</span>","null","","","","resp_prompt","","","","","","","","","","","","","","","",""
"categorize-image","202","556754","0.0-4.0-1.0-1.26","tur8c0r5wkp38u4","prime","5f5fc4d15f73d2076d871530","5f60e3c0a3b16e07647b2ff9","5f60e97d15b4690008323af0","true","945","./Stimuli/SelectedImages/LM/LM48.bmp","83","","","","test","true","M + N","83","switch","LM","LM48.bmp","forget","","75","3","prime1","left","","","",""
"html-keyboard-response","203","558756","0.0-4.0-1.0-3.26","tur8c0r5wkp38u4","prime","5f5fc4d15f73d2076d871530","5f60e3c0a3b16e07647b2ff9","5f60e97d15b4690008323af0","false","null","<div style=""align-items: center; display: flex; color: darkorange; font-size: 90px""><b>ø</b></div>","null","","","","forget_cue","","","","","","","","","","","","","","","",""
"html-keyboard-response","204","559458","0.0-4.0-1.0-0.27","tur8c0r5wkp38u4","prime","5f5fc4d15f73d2076d871530","5f60e3c0a3b16e07647b2ff9","5f60e97d15b4690008323af0","false","null","<span style=""color: black; font-size: 48px"">N + M</span>","null","","","","resp_prompt","","","","","","","","","","","","","","","",""
"categorize-image","205","560244","0.0-4.0-1.0-1.27","tur8c0r5wkp38u4","prime","5f5fc4d15f73d2076d871530","5f60e3c0a3b16e07647b2ff9","5f60e97d15b4690008323af0","true","777","./Stimuli/SelectedImages/SN/SN182.bmp","83","","","","test","true","N + M","83","switch","SN","SN182.bmp","forget","","76","3","prime1","left","","","",""
"html-keyboard-response","206","562246","0.0-4.0-1.0-3.27","tur8c0r5wkp38u4","prime","5f5fc4d15f73d2076d871530","5f60e3c0a3b16e07647b2ff9","5f60e97d15b4690008323af0","false","null","<div style=""align-items: center; display: flex; color: darkorange; font-size: 90px""><b>ø</b></div>","null","","","","forget_cue","","","","","","","","","","","","","","","",""
"html-keyboard-response","207","562947","0.0-4.0-1.0-0.28","tur8c0r5wkp38u4","prime","5f5fc4d15f73d2076d871530","5f60e3c0a3b16e07647b2ff9","5f60e97d15b4690008323af0","false","null","<span style=""color: black; font-size: 48px"">N + M</span>","null","","","","resp_prompt","","","","","","","","","","","","","","","",""
"categorize-image","208","563644","0.0-4.0-1.0-1.28","tur8c0r5wkp38u4","prime","5f5fc4d15f73d2076d871530","5f60e3c0a3b16e07647b2ff9","5f60e97d15b4690008323af0","true","688.9999999998836","./Stimuli/SelectedImages/SM/SM207.bmp","76","","","","test","true","N + M","76","repetition","SM","SM207.bmp","remember","","77","3","prime1","right","","","",""
"html-keyboard-response","209","565645","0.0-4.0-1.0-3.28","tur8c0r5wkp38u4","prime","5f5fc4d15f73d2076d871530","5f60e3c0a3b16e07647b2ff9","5f60e97d15b4690008323af0","false","null","<div style=""align-items: center; display: flex; color: dodgerblue; font-size: 90px""><b>o</b></div>","null","","","","forget_cue","","","","","","","","","","","","","","","",""
"html-keyboard-response","210","566347","0.0-4.0-1.0-0.29","tur8c0r5wkp38u4","prime","5f5fc4d15f73d2076d871530","5f60e3c0a3b16e07647b2ff9","5f60e97d15b4690008323af0","false","null","<span style=""color: black; font-size: 48px"">M + N</span>","null","","","","resp_prompt","","","","","","","","","","","","","","","",""
"categorize-image","211","567044","0.0-4.0-1.0-1.29","tur8c0r5wkp38u4","prime","5f5fc4d15f73d2076d871530","5f60e3c0a3b16e07647b2ff9","5f60e97d15b4690008323af0","true","690","./Stimuli/SelectedImages/LM/LM57.bmp","83","","","","test","true","M + N","83","switch","LM","LM57.bmp","remember","","78","3","prime1","left","","","",""
"html-keyboard-response","212","569046","0.0-4.0-1.0-3.29","tur8c0r5wkp38u4","prime","5f5fc4d15f73d2076d871530","5f60e3c0a3b16e07647b2ff9","5f60e97d15b4690008323af0","false","null","<div style=""align-items: center; display: flex; color: dodgerblue; font-size: 90px""><b>o</b></div>","null","","","","forget_cue","","","","","","","","","","","","","","","",""
"html-keyboard-response","213","569748","0.0-4.0-1.0-0.30","tur8c0r5wkp38u4","prime","5f5fc4d15f73d2076d871530","5f60e3c0a3b16e07647b2ff9","5f60e97d15b4690008323af0","false","null","<span style=""color: black; font-size: 48px"">M + N</span>","null","","","","resp_prompt","","","","","","","","","","","","","","","",""
"categorize-image","214","570431","0.0-4.0-1.0-1.30","tur8c0r5wkp38u4","prime","5f5fc4d15f73d2076d871530","5f60e3c0a3b16e07647b2ff9","5f60e97d15b4690008323af0","true","677","./Stimuli/SelectedImages/LN/LN131.bmp","76","","","","test","true","M + N","76","switch","LN","LN131.bmp","remember","","79","3","prime1","right","","","",""
"html-keyboard-response","215","572433","0.0-4.0-1.0-3.30","tur8c0r5wkp38u4","prime","5f5fc4d15f73d2076d871530","5f60e3c0a3b16e07647b2ff9","5f60e97d15b4690008323af0","false","null","<div style=""align-items: center; display: flex; color: dodgerblue; font-size: 90px""><b>o</b></div>","null","","","","forget_cue","","","","","","","","","","","","","","","",""
"html-keyboard-response","216","573134","0.0-4.0-1.0-0.31","tur8c0r5wkp38u4","prime","5f5fc4d15f73d2076d871530","5f60e3c0a3b16e07647b2ff9","5f60e97d15b4690008323af0","false","null","<span style=""color: black; font-size: 48px"">N + M</span>","null","","","","resp_prompt","","","","","","","","","","","","","","","",""
"categorize-image","217","573776","0.0-4.0-1.0-1.31","tur8c0r5wkp38u4","prime","5f5fc4d15f73d2076d871530","5f60e3c0a3b16e07647b2ff9","5f60e97d15b4690008323af0","true","635","./Stimuli/SelectedImages/LM/LM58.bmp","76","","","","test","true","N + M","76","switch","LM","LM58.bmp","remember","","80","3","prime1","right","","","",""
"html-keyboard-response","218","575778","0.0-4.0-1.0-3.31","tur8c0r5wkp38u4","prime","5f5fc4d15f73d2076d871530","5f60e3c0a3b16e07647b2ff9","5f60e97d15b4690008323af0","false","null","<div style=""align-items: center; display: flex; color: dodgerblue; font-size: 90px""><b>o</b></div>","null","","","","forget_cue","","","","","","","","","","","","","","","",""
"html-keyboard-response","219","576480","0.0-4.0-1.0-0.32","tur8c0r5wkp38u4","prime","5f5fc4d15f73d2076d871530","5f60e3c0a3b16e07647b2ff9","5f60e97d15b4690008323af0","false","null","<span style=""color: black; font-size: 48px"">N + M</span>","null","","","","resp_prompt","","","","","","","","","","","","","","","",""
"categorize-image","220","577594","0.0-4.0-1.0-1.32","tur8c0r5wkp38u4","prime","5f5fc4d15f73d2076d871530","5f60e3c0a3b16e07647b2ff9","5f60e97d15b4690008323af0","true","1107","./Stimuli/SelectedImages/LM/LM100.bmp","76","","","","test","true","N + M","76","switch","LM","LM100.bmp","forget","","81","3","prime1","right","","","",""
"html-keyboard-response","221","579595","0.0-4.0-1.0-3.32","tur8c0r5wkp38u4","prime","5f5fc4d15f73d2076d871530","5f60e3c0a3b16e07647b2ff9","5f60e97d15b4690008323af0","false","null","<div style=""align-items: center; display: flex; color: darkorange; font-size: 90px""><b>ø</b></div>","null","","","","forget_cue","","","","","","","","","","","","","","","",""
"html-keyboard-response","222","580296","0.0-4.0-1.0-0.33","tur8c0r5wkp38u4","prime","5f5fc4d15f73d2076d871530","5f60e3c0a3b16e07647b2ff9","5f60e97d15b4690008323af0","false","null","<span style=""color: black; font-size: 48px"">N + M</span>","null","","","","resp_prompt","","","","","","","","","","","","","","","",""
"categorize-image","223","580861","0.0-4.0-1.0-1.33","tur8c0r5wkp38u4","prime","5f5fc4d15f73d2076d871530","5f60e3c0a3b16e07647b2ff9","5f60e97d15b4690008323af0","true","557","./Stimuli/SelectedImages/LM/LM59.bmp","76","","","","test","true","N + M","76","repetition","LM","LM59.bmp","remember","","82","3","prime1","right","","","",""
"html-keyboard-response","224","582863","0.0-4.0-1.0-3.33","tur8c0r5wkp38u4","prime","5f5fc4d15f73d2076d871530","5f60e3c0a3b16e07647b2ff9","5f60e97d15b4690008323af0","false","null","<div style=""align-items: center; display: flex; color: dodgerblue; font-size: 90px""><b>o</b></div>","null","","","","forget_cue","","","","","","","","","","","","","","","",""
"html-keyboard-response","225","583565","0.0-4.0-1.0-0.34","tur8c0r5wkp38u4","prime","5f5fc4d15f73d2076d871530","5f60e3c0a3b16e07647b2ff9","5f60e97d15b4690008323af0","false","null","<span style=""color: black; font-size: 48px"">M + N</span>","null","","","","resp_prompt","","","","","","","","","","","","","","","",""
"categorize-image","226","584076","0.0-4.0-1.0-1.34","tur8c0r5wkp38u4","prime","5f5fc4d15f73d2076d871530","5f60e3c0a3b16e07647b2ff9","5f60e97d15b4690008323af0","true","505","./Stimuli/SelectedImages/LM/LM235.bmp","83","","","","test","true","M + N","83","switch","LM","LM235.bmp","forget","","83","3","prime1","left","","","",""
"html-keyboard-response","227","586078","0.0-4.0-1.0-3.34","tur8c0r5wkp38u4","prime","5f5fc4d15f73d2076d871530","5f60e3c0a3b16e07647b2ff9","5f60e97d15b4690008323af0","false","null","<div style=""align-items: center; display: flex; color: darkorange; font-size: 90px""><b>ø</b></div>","null","","","","forget_cue","","","","","","","","","","","","","","","",""
"html-keyboard-response","228","586780","0.0-4.0-1.0-0.35","tur8c0r5wkp38u4","prime","5f5fc4d15f73d2076d871530","5f60e3c0a3b16e07647b2ff9","5f60e97d15b4690008323af0","false","null","<span style=""color: black; font-size: 48px"">N + M</span>","null","","","","resp_prompt","","","","","","","","","","","","","","","",""
"categorize-image","229","587771","0.0-4.0-1.0-1.35","tur8c0r5wkp38u4","prime","5f5fc4d15f73d2076d871530","5f60e3c0a3b16e07647b2ff9","5f60e97d15b4690008323af0","true","984","./Stimuli/SelectedImages/SN/SN49.bmp","83","","","","test","true","N + M","83","repetition","SN","SN49.bmp","forget","","84","3","prime1","left","","","",""
"html-keyboard-response","230","589772","0.0-4.0-1.0-3.35","tur8c0r5wkp38u4","prime","5f5fc4d15f73d2076d871530","5f60e3c0a3b16e07647b2ff9","5f60e97d15b4690008323af0","false","null","<div style=""align-items: center; display: flex; color: darkorange; font-size: 90px""><b>ø</b></div>","null","","","","forget_cue","","","","","","","","","","","","","","","",""
"html-keyboard-response","231","590473","0.0-4.0-1.0-0.36","tur8c0r5wkp38u4","prime","5f5fc4d15f73d2076d871530","5f60e3c0a3b16e07647b2ff9","5f60e97d15b4690008323af0","false","null","<span style=""color: black; font-size: 48px"">M + N</span>","null","","","","resp_prompt","","","","","","","","","","","","","","","",""
"categorize-image","232","591110","0.0-4.0-1.0-1.36","tur8c0r5wkp38u4","prime","5f5fc4d15f73d2076d871530","5f60e3c0a3b16e07647b2ff9","5f60e97d15b4690008323af0","true","631","./Stimuli/SelectedImages/SM/SM108.bmp","83","","","","test","true","M + N","83","switch","SM","SM108.bmp","remember","","85","3","prime1","left","","","",""
"html-keyboard-response","233","593112","0.0-4.0-1.0-3.36","tur8c0r5wkp38u4","prime","5f5fc4d15f73d2076d871530","5f60e3c0a3b16e07647b2ff9","5f60e97d15b4690008323af0","false","null","<div style=""align-items: center; display: flex; color: dodgerblue; font-size: 90px""><b>o</b></div>","null","","","","forget_cue","","","","","","","","","","","","","","","",""
"html-keyboard-response","234","593814","0.0-4.0-1.0-0.37","tur8c0r5wkp38u4","prime","5f5fc4d15f73d2076d871530","5f60e3c0a3b16e07647b2ff9","5f60e97d15b4690008323af0","false","null","<span style=""color: black; font-size: 48px"">M + N</span>","null","","","","resp_prompt","","","","","","","","","","","","","","","",""
"categorize-image","235","594380","0.0-4.0-1.0-1.37","tur8c0r5wkp38u4","prime","5f5fc4d15f73d2076d871530","5f60e3c0a3b16e07647b2ff9","5f60e97d15b4690008323af0","true","560","./Stimuli/SelectedImages/LM/LM157.bmp","83","","","","test","true","M + N","83","repetition","LM","LM157.bmp","forget","","86","3","prime1","left","","","",""
"html-keyboard-response","236","596380","0.0-4.0-1.0-3.37","tur8c0r5wkp38u4","prime","5f5fc4d15f73d2076d871530","5f60e3c0a3b16e07647b2ff9","5f60e97d15b4690008323af0","false","null","<div style=""align-items: center; display: flex; color: darkorange; font-size: 90px""><b>ø</b></div>","null","","","","forget_cue","","","","","","","","","","","","","","","",""
"html-keyboard-response","237","597083","0.0-4.0-1.0-0.38","tur8c0r5wkp38u4","prime","5f5fc4d15f73d2076d871530","5f60e3c0a3b16e07647b2ff9","5f60e97d15b4690008323af0","false","null","<span style=""color: black; font-size: 48px"">N + M</span>","null","","","","resp_prompt","","","","","","","","","","","","","","","",""
"categorize-image","238","597836","0.0-4.0-1.0-1.38","tur8c0r5wkp38u4","prime","5f5fc4d15f73d2076d871530","5f60e3c0a3b16e07647b2ff9","5f60e97d15b4690008323af0","true","740","./Stimuli/SelectedImages/LN/LN28.bmp","83","","","","test","true","N + M","83","switch","LN","LN28.bmp","forget","","87","3","prime1","left","","","",""
"html-keyboard-response","239","599837","0.0-4.0-1.0-3.38","tur8c0r5wkp38u4","prime","5f5fc4d15f73d2076d871530","5f60e3c0a3b16e07647b2ff9","5f60e97d15b4690008323af0","false","null","<div style=""align-items: center; display: flex; color: darkorange; font-size: 90px""><b>ø</b></div>","null","","","","forget_cue","","","","","","","","","","","","","","","",""
"html-keyboard-response","240","600540","0.0-4.0-1.0-0.39","tur8c0r5wkp38u4","prime","5f5fc4d15f73d2076d871530","5f60e3c0a3b16e07647b2ff9","5f60e97d15b4690008323af0","false","null","<span style=""color: black; font-size: 48px"">M + N</span>","null","","","","resp_prompt","","","","","","","","","","","","","","","",""
"categorize-image","241","601137","0.0-4.0-1.0-1.39","tur8c0r5wkp38u4","prime","5f5fc4d15f73d2076d871530","5f60e3c0a3b16e07647b2ff9","5f60e97d15b4690008323af0","true","591","./Stimuli/SelectedImages/SM/SM205.bmp","83","","","","test","true","M + N","83","repetition","SM","SM205.bmp","forget","","88","3","prime1","left","","","",""
"html-keyboard-response","242","603139","0.0-4.0-1.0-3.39","tur8c0r5wkp38u4","prime","5f5fc4d15f73d2076d871530","5f60e3c0a3b16e07647b2ff9","5f60e97d15b4690008323af0","false","null","<div style=""align-items: center; display: flex; color: darkorange; font-size: 90px""><b>ø</b></div>","null","","","","forget_cue","","","","","","","","","","","","","","","",""
"html-keyboard-response","243","603841","0.0-4.0-1.0-0.40","tur8c0r5wkp38u4","prime","5f5fc4d15f73d2076d871530","5f60e3c0a3b16e07647b2ff9","5f60e97d15b4690008323af0","false","null","<span style=""color: black; font-size: 48px"">N + M</span>","null","","","","resp_prompt","","","","","","","","","","","","","","","",""
"categorize-image","244","605278","0.0-4.0-1.0-1.40","tur8c0r5wkp38u4","prime","5f5fc4d15f73d2076d871530","5f60e3c0a3b16e07647b2ff9","5f60e97d15b4690008323af0","true","1428","./Stimuli/SelectedImages/LM/LM209.bmp","76","","","","test","true","N + M","76","switch","LM","LM209.bmp","remember","","89","3","prime1","right","","","",""
"html-keyboard-response","245","607280","0.0-4.0-1.0-3.40","tur8c0r5wkp38u4","prime","5f5fc4d15f73d2076d871530","5f60e3c0a3b16e07647b2ff9","5f60e97d15b4690008323af0","false","null","<div style=""align-items: center; display: flex; color: dodgerblue; font-size: 90px""><b>o</b></div>","null","","","","forget_cue","","","","","","","","","","","","","","","",""
"html-keyboard-response","246","607982","0.0-4.0-1.0-0.41","tur8c0r5wkp38u4","prime","5f5fc4d15f73d2076d871530","5f60e3c0a3b16e07647b2ff9","5f60e97d15b4690008323af0","false","null","<span style=""color: black; font-size: 48px"">N + M</span>","null","","","","resp_prompt","","","","","","","","","","","","","","","",""
"categorize-image","247","608577","0.0-4.0-1.0-1.41","tur8c0r5wkp38u4","prime","5f5fc4d15f73d2076d871530","5f60e3c0a3b16e07647b2ff9","5f60e97d15b4690008323af0","true","588","./Stimuli/SelectedImages/SM/SM17.bmp","76","","","","test","true","N + M","76","repetition","SM","SM17.bmp","forget","","90","3","prime1","right","","","",""
"html-keyboard-response","248","610579","0.0-4.0-1.0-3.41","tur8c0r5wkp38u4","prime","5f5fc4d15f73d2076d871530","5f60e3c0a3b16e07647b2ff9","5f60e97d15b4690008323af0","false","null","<div style=""align-items: center; display: flex; color: darkorange; font-size: 90px""><b>ø</b></div>","null","","","","forget_cue","","","","","","","","","","","","","","","",""
"html-keyboard-response","249","611281","0.0-4.0-1.0-0.42","tur8c0r5wkp38u4","prime","5f5fc4d15f73d2076d871530","5f60e3c0a3b16e07647b2ff9","5f60e97d15b4690008323af0","false","null","<span style=""color: black; font-size: 48px"">N + M</span>","null","","","","resp_prompt","","","","","","","","","","","","","","","",""
"categorize-image","250","612259","0.0-4.0-1.0-1.42","tur8c0r5wkp38u4","prime","5f5fc4d15f73d2076d871530","5f60e3c0a3b16e07647b2ff9","5f60e97d15b4690008323af0","true","971.0000000001164","./Stimuli/SelectedImages/LN/LN82.bmp","83","","","","test","true","N + M","83","switch","LN","LN82.bmp","remember","","91","3","prime1","left","","","",""
"html-keyboard-response","251","614260","0.0-4.0-1.0-3.42","tur8c0r5wkp38u4","prime","5f5fc4d15f73d2076d871530","5f60e3c0a3b16e07647b2ff9","5f60e97d15b4690008323af0","false","null","<div style=""align-items: center; display: flex; color: dodgerblue; font-size: 90px""><b>o</b></div>","null","","","","forget_cue","","","","","","","","","","","","","","","",""
"html-keyboard-response","252","614962","0.0-4.0-1.0-0.43","tur8c0r5wkp38u4","prime","5f5fc4d15f73d2076d871530","5f60e3c0a3b16e07647b2ff9","5f60e97d15b4690008323af0","false","null","<span style=""color: black; font-size: 48px"">M + N</span>","null","","","","resp_prompt","","","","","","","","","","","","","","","",""
"categorize-image","253","616712","0.0-4.0-1.0-1.43","tur8c0r5wkp38u4","prime","5f5fc4d15f73d2076d871530","5f60e3c0a3b16e07647b2ff9","5f60e97d15b4690008323af0","true","1744","./Stimuli/SelectedImages/SM/SM213.bmp","83","","","","test","true","M + N","83","switch","SM","SM213.bmp","forget","","92","3","prime1","left","","","",""
"html-keyboard-response","254","618713","0.0-4.0-1.0-3.43","tur8c0r5wkp38u4","prime","5f5fc4d15f73d2076d871530","5f60e3c0a3b16e07647b2ff9","5f60e97d15b4690008323af0","false","null","<div style=""align-items: center; display: flex; color: darkorange; font-size: 90px""><b>ø</b></div>","null","","","","forget_cue","","","","","","","","","","","","","","","",""
"html-keyboard-response","255","619415","0.0-4.0-1.0-0.44","tur8c0r5wkp38u4","prime","5f5fc4d15f73d2076d871530","5f60e3c0a3b16e07647b2ff9","5f60e97d15b4690008323af0","false","null","<span style=""color: black; font-size: 48px"">N + M</span>","null","","","","resp_prompt","","","","","","","","","","","","","","","",""
"categorize-image","256","620139","0.0-4.0-1.0-1.44","tur8c0r5wkp38u4","prime","5f5fc4d15f73d2076d871530","5f60e3c0a3b16e07647b2ff9","5f60e97d15b4690008323af0","true","718","./Stimuli/SelectedImages/SM/SM76.bmp","83","","","","test","false","N + M","76","switch","SM","SM76.bmp","remember","","93","3","prime1","left","","","",""
