"trial_type","trial_index","time_elapsed","internal_node_id","subject","exp_part","prolific_PID","study_ID","session_ID","use","rt","stimulus","key_press","button_pressed","responses","question_order","trial_part","correct","resp_map","correct_resp","probe_condition","category","image","forget_condition","list","trial_num","block_num","block","response","test_part","n_span","sequence","num_spaces"
"pavlovia","0","3","0.0-0.0","tl3nub5qmaodl5n","","5dd35a387f1bbf35bd0d18b2","5f60e3c0a3b16e07647b2ff9","5f60eeb8ade02d000bc39921","false","","","","","","","","","","","","","","","","","","","","","","",""
"html-keyboard-response","1","20434","0.0-1.0-0.0-0.0","tl3nub5qmaodl5n","welcome","5dd35a387f1bbf35bd0d18b2","5f60e3c0a3b16e07647b2ff9","5f60eeb8ade02d000bc39921","false","20428.09999999008","<div align=left>Dear participant, <br> thank you for participating in an online study of the Cognition, Action, and Sustainability Unit of the University of Freiburg! <br> <br>The aim of this study is to examine our ability to remember previously learned information. <br>Our goal is to find out, whether our memory improves, when we only remember information that is relevant to us. <br>The experiment will take about 35 minutes to complete. <br> <br>Please, note that you can only participate in this study if you are using a device with a keyboard (PC, Laptop etc.) <br>and not if you are using a mobile device such as a tablet or smartphone.<br> <br>Press 'SPACE' to proceed to the experiment. </div>","32","","","","","","","","","","","","","","","","","","","",""
"html-keyboard-response","2","54061","0.0-1.0-0.0-1.0","tl3nub5qmaodl5n","welcome","5dd35a387f1bbf35bd0d18b2","5f60e3c0a3b16e07647b2ff9","5f60eeb8ade02d000bc39921","false","33625.694999995176","<div align=left><strong> Time Course of this experiment: </strong> <br><br> <strong> 1.</strong>  First, please fill in some information regarding your demographic data. <br><br> <strong> 2.</strong>  Next, your task will be to classify everyday objects. <br>In addition, you will be asked to remember certain objects and recall them later. <br>Working on these tasks requires your undivided attention and concentration.<br>It is therefore essential that you eliminate any sources of distraction in your  <br>environment and ensure that you will not be disturbed. <br><br><strong> 3.</strong>  At the end of the experiment, you will be asked to answer a few additional questions. <br> <br><strong> Important:</strong> After finishing the experiment, only close the browser window <br> by clicking on the 'end the experiment'-button when you are asked to do so. <br>Closing the browser window prematurely will make the allocation of your participation credit impossible. <br><br> Press 'SPACE' to start the experiment. </div>","32","","","","","","","","","","","","","","","","","","","",""
"html-button-response","3","64235","0.0-1.0-0.0-2.0","tl3nub5qmaodl5n","welcome","5dd35a387f1bbf35bd0d18b2","5f60e3c0a3b16e07647b2ff9","5f60eeb8ade02d000bc39921","true","10173.680000007153","<div align=left><strong> Informed consent </strong>  <br>The aim of our research is to better understand human behavior and mental processes. <br>In the following study your behavior (e.g. choices, reaction times) will be studied. <br> <br><strong> Voluntariness and Anonymity </strong> <br>Your participation in this study is  <strong> voluntary</strong>.<br>You may withdraw your consent to participate at any time without providing a reason for doing so and without fear of prejudice. <br><br>As no personal data will be collected, <strong>your data and your person cannot be connected after data collection</strong> – the data-set is anonymous. <br>Respectively, deletion of your data will not be possible after data collection has been completed, as we cannot retrace your data-set.<br>The results and anonymized data collected in this study will be published as a scientific publication. <br>This will happen in an <strong>anonymized format</strong>, so that no data can be traced back to a specific person. <br> <br>The anonymized data of this study will be made available to other researchers and/or in a data archive on the Internet as a means of transparency and to enable subsequent re-use. By doing so, this study follows the recommendations of the Deutsche Forschungsgemeinschaft (DFG, German Research Foundation) and Deutsche Gesellschaft für Psychologie (DGPS, German Psychological Society) regarding quality assurance in research.<br>If you have any questions now or after the experiment, please contact our team (experiments@cs.uni-freiburg.de).<br><br><br>I hereby declare, that I understand the above described conditions of participation and I agree to participate under these conditions. <br><br> </div>","","0","","","","","","","","","","","","","","","","","","",""
"html-keyboard-response","4","112439","0.0-1.0-0.0-3.0","tl3nub5qmaodl5n","welcome","5dd35a387f1bbf35bd0d18b2","5f60e3c0a3b16e07647b2ff9","5f60eeb8ade02d000bc39921","false","48201.860000001034","<div align=left><strong> General information concerning the experiment </strong>  <br> <br>Please follow the instructions:<ol> <li><strong> Do not leave this tab (your browser window) during the experiment and do not reload this tab! </strong>  <br>If you do switch tabs/windows during the experiment (to check your mail or visit another website, for example), <br>the experiment will end automatically and you will <strong>not receive credit</strong> for your participation. <br>Repeated participation or resumption of the experiment is impossible.</li> <br><li>Please close all other programs for the duration of your participation. </li> <br><li>Please mute or turn off your phone and put it out of your reach. </li> <br><li>Please also take off any disturbing accessories (such as wristwatches, bracelets, etc.). </li> <br><li>If you have music playing in the background, please turn it off now. </li> <br></ol>Thank you! <br>Press 'SPACE' to continue. </div>","32","","","","","","","","","","","","","","","","","","","",""
"survey-text","5","119232","0.0-1.0-1.0-0.0","tl3nub5qmaodl5n","demographics","5dd35a387f1bbf35bd0d18b2","5f60e3c0a3b16e07647b2ff9","5f60eeb8ade02d000bc39921","true","6788.385000021663","","","","{""age"":""26""}","","","","","","","","","","","","","","","","","",""
"survey-multi-choice","6","149057","0.0-1.0-1.0-1.0","tl3nub5qmaodl5n","demographics","5dd35a387f1bbf35bd0d18b2","5f60e3c0a3b16e07647b2ff9","5f60eeb8ade02d000bc39921","true","29822.084999992512","","","","{""gender"":""male"",""school"":""others"",""education"":""High school graduate, diploma or equivalent""}","[0,1,2]","","","","","","","","","","","","","","","","",""
"html-keyboard-response","7","173844","0.0-1.0-2.0","tl3nub5qmaodl5n","instructions","5dd35a387f1bbf35bd0d18b2","5f60e3c0a3b16e07647b2ff9","5f60eeb8ade02d000bc39921","false","24785.015000001295","<div align=left> The experiment is now about to start: <br> <br>In the following part, you will be presented pictures of everyday objects. <br>Your first task is to <strong>classify these objects. </strong> <br> <br> You will classify them either as mechanical or non-mechanical objects. <br> <br>Objects that include any kind of technical mechanism (for example, wheels, switches, levers, <br> electronic components) fall under the category of <strong>mechanical</strong> objects. <br>Only objects without any kind of technical mechanism should be classified as <strong>non-mechanical</strong>. <br><br>Press 'SPACE' to continue. </div>","32","","","","","","","","","","","","","","","","","","","",""
"html-keyboard-response","8","233400","0.0-2.0-0.0","tl3nub5qmaodl5n","instructions","5dd35a387f1bbf35bd0d18b2","5f60e3c0a3b16e07647b2ff9","5f60eeb8ade02d000bc39921","false","59555.31999998493","<div align=justify>You will classify the objects using the <strong>'S'</strong> and the <strong>'L'</strong> keys on your keyboard.<br>For doing so, please place your <strong>left index finger</strong> on the <strong>'S'</strong> key and place your <strong>right index finger</strong> on the <strong>'L'</strong> key. <br><br> Each trial starts with an instruction, indicating which key ('S'/'L') you need to press to classify <br>the object as mechanical (letter M) or non-mechanical (letter N).<br>The instruction <strong>M + N</strong> indicates that, in the current trial, by pressing the left key ('S') you classify the displayed object as mechanical (M) <br> and by pressing the right key ('L') you classify the object as non-mechanical (N). <br>The instruction <strong>N + M</strong> on the other hand indicates that by pressing the left key ('S') you classify the displayed object as non-mechanical (N) <br> and by pressing the right key ('L') you classify the object as mechanical (M). <br><br>Please press the key corresponding to the correct classification as fast as possible as soon as the object is displayed and try to avoid making mistakes.<br>If you do not respond within a 2 second window, a corresponding feedback will be displayed and the next trial will start.<br> The experiment is divided into multiple blocks to give you the opportunity to take a break after each block. <br>First, you can now practice this task. <br><br>Please place your <strong>LEFT INDEX FINGER</strong> on the 'S' key and your <strong>RIGHT INDEX FINGER</strong> on the 'L' key now. <br><br>Press SPACE to continue.</div>","32","","","","","","","","","","","","","","","","","","","",""
"html-keyboard-response","9","252009","0.0-2.0-1.0","tl3nub5qmaodl5n","instructions","5dd35a387f1bbf35bd0d18b2","5f60e3c0a3b16e07647b2ff9","5f60eeb8ade02d000bc39921","false","18607.495000003837","<div align=left> You will now have time to practice this task.<br><br>Remember: <br> <br><li>Please place your index fingers on the <strong>'S'</strong> and <strong>'L'</strong> keys <br>to respond as fast and accurately as possible.</li><li>Every picture can be classified as either mechanical or non-mechanical.</li><li>If you do not respond in time or commit an error, you will receive a corresponding feedback. </li><li> Please try to respond as <strong> fast </strong> and as <strong> accurately as possible </strong> .<br><li>To ensure optimal results, please minimize distractions and stay focused. </li><br><br>Press SPACE to continue.</div>","32","","","","","","","","","","","","","","","","","","","",""
"html-keyboard-response","10","252712","0.0-2.0-2.0-0.0","tl3nub5qmaodl5n","practice_no_cue","5dd35a387f1bbf35bd0d18b2","5f60e3c0a3b16e07647b2ff9","5f60eeb8ade02d000bc39921","false","null","<span style=""color: black; font-size: 48px"">M + N</span>","null","","","","resp_prompt","","","","","","","","","","","","","","","",""
"categorize-image","11","254344","0.0-2.0-2.0-1.0","tl3nub5qmaodl5n","practice_no_cue","5dd35a387f1bbf35bd0d18b2","5f60e3c0a3b16e07647b2ff9","5f60eeb8ade02d000bc39921","true","1129.7400000039488","./Stimuli/ImagesPractice/LN72.jpg","76","","","","test","true","M + N","76","","LN","LN72.jpg","remember","old","1","1","start","right","","","",""
"html-keyboard-response","12","255046","0.0-2.0-2.0-0.1","tl3nub5qmaodl5n","practice_no_cue","5dd35a387f1bbf35bd0d18b2","5f60e3c0a3b16e07647b2ff9","5f60eeb8ade02d000bc39921","false","null","<span style=""color: black; font-size: 48px"">N + M</span>","null","","","","resp_prompt","","","","","","","","","","","","","","","",""
"categorize-image","13","256190","0.0-2.0-2.0-1.1","tl3nub5qmaodl5n","practice_no_cue","5dd35a387f1bbf35bd0d18b2","5f60e3c0a3b16e07647b2ff9","5f60eeb8ade02d000bc39921","true","642.0250000082888","./Stimuli/ImagesPractice/LM230.jpg","83","","","","test","false","N + M","76","","LM","LM230.jpg","remember","old","2","1","start","left","","","",""
"html-keyboard-response","14","256891","0.0-2.0-2.0-0.2","tl3nub5qmaodl5n","practice_no_cue","5dd35a387f1bbf35bd0d18b2","5f60e3c0a3b16e07647b2ff9","5f60eeb8ade02d000bc39921","false","null","<span style=""color: black; font-size: 48px"">M + N</span>","null","","","","resp_prompt","","","","","","","","","","","","","","","",""
"categorize-image","15","258043","0.0-2.0-2.0-1.2","tl3nub5qmaodl5n","practice_no_cue","5dd35a387f1bbf35bd0d18b2","5f60e3c0a3b16e07647b2ff9","5f60eeb8ade02d000bc39921","true","649.6099999931175","./Stimuli/ImagesPractice/SM35.jpg","83","","","","test","true","M + N","83","","SM","SM35.jpg","forget","old","3","1","start","left","","","",""
"html-keyboard-response","16","258745","0.0-2.0-2.0-0.3","tl3nub5qmaodl5n","practice_no_cue","5dd35a387f1bbf35bd0d18b2","5f60e3c0a3b16e07647b2ff9","5f60eeb8ade02d000bc39921","false","null","<span style=""color: black; font-size: 48px"">M + N</span>","null","","","","resp_prompt","","","","","","","","","","","","","","","",""
"categorize-image","17","259770","0.0-2.0-2.0-1.3","tl3nub5qmaodl5n","practice_no_cue","5dd35a387f1bbf35bd0d18b2","5f60e3c0a3b16e07647b2ff9","5f60eeb8ade02d000bc39921","true","522.9800000088289","./Stimuli/ImagesPractice/SM37.jpg","83","","","","test","true","M + N","83","","SM","SM37.jpg","forget","old","4","1","start","left","","","",""
"html-keyboard-response","18","260472","0.0-2.0-2.0-0.4","tl3nub5qmaodl5n","practice_no_cue","5dd35a387f1bbf35bd0d18b2","5f60e3c0a3b16e07647b2ff9","5f60eeb8ade02d000bc39921","false","null","<span style=""color: black; font-size: 48px"">M + N</span>","null","","","","resp_prompt","","","","","","","","","","","","","","","",""
"categorize-image","19","261632","0.0-2.0-2.0-1.4","tl3nub5qmaodl5n","practice_no_cue","5dd35a387f1bbf35bd0d18b2","5f60e3c0a3b16e07647b2ff9","5f60eeb8ade02d000bc39921","true","657.9750000091735","./Stimuli/ImagesPractice/SN205.jpg","76","","","","test","true","M + N","76","","SN","SN205.jpg","remember","old","5","1","start","right","","","",""
"html-keyboard-response","20","262335","0.0-2.0-2.0-0.5","tl3nub5qmaodl5n","practice_no_cue","5dd35a387f1bbf35bd0d18b2","5f60e3c0a3b16e07647b2ff9","5f60eeb8ade02d000bc39921","false","null","<span style=""color: black; font-size: 48px"">N + M</span>","null","","","","resp_prompt","","","","","","","","","","","","","","","",""
"categorize-image","21","263499","0.0-2.0-2.0-1.5","tl3nub5qmaodl5n","practice_no_cue","5dd35a387f1bbf35bd0d18b2","5f60e3c0a3b16e07647b2ff9","5f60eeb8ade02d000bc39921","true","662.6849999884143","./Stimuli/ImagesPractice/LM147.jpg","83","","","","test","false","N + M","76","","LM","LM147.jpg","forget","old","6","1","start","left","","","",""
"html-keyboard-response","22","264202","0.0-2.0-2.0-0.6","tl3nub5qmaodl5n","practice_no_cue","5dd35a387f1bbf35bd0d18b2","5f60e3c0a3b16e07647b2ff9","5f60eeb8ade02d000bc39921","false","null","<span style=""color: black; font-size: 48px"">N + M</span>","null","","","","resp_prompt","","","","","","","","","","","","","","","",""
"categorize-image","23","265447","0.0-2.0-2.0-1.6","tl3nub5qmaodl5n","practice_no_cue","5dd35a387f1bbf35bd0d18b2","5f60e3c0a3b16e07647b2ff9","5f60eeb8ade02d000bc39921","true","742.9849999898579","./Stimuli/ImagesPractice/LM143.jpg","83","","","","test","false","N + M","76","","LM","LM143.jpg","forget","old","7","1","start","left","","","",""
"html-keyboard-response","24","266150","0.0-2.0-2.0-0.7","tl3nub5qmaodl5n","practice_no_cue","5dd35a387f1bbf35bd0d18b2","5f60e3c0a3b16e07647b2ff9","5f60eeb8ade02d000bc39921","false","null","<span style=""color: black; font-size: 48px"">N + M</span>","null","","","","resp_prompt","","","","","","","","","","","","","","","",""
"categorize-image","25","267591","0.0-2.0-2.0-1.7","tl3nub5qmaodl5n","practice_no_cue","5dd35a387f1bbf35bd0d18b2","5f60e3c0a3b16e07647b2ff9","5f60eeb8ade02d000bc39921","true","940.3549999988172","./Stimuli/ImagesPractice/LN2.jpg","76","","","","test","false","N + M","83","","LN","LN2.jpg","forget","old","8","1","start","right","","","",""
"html-keyboard-response","26","268293","0.0-2.0-2.0-0.8","tl3nub5qmaodl5n","practice_no_cue","5dd35a387f1bbf35bd0d18b2","5f60e3c0a3b16e07647b2ff9","5f60eeb8ade02d000bc39921","false","null","<span style=""color: black; font-size: 48px"">N + M</span>","null","","","","resp_prompt","","","","","","","","","","","","","","","",""
"categorize-image","27","270016","0.0-2.0-2.0-1.8","tl3nub5qmaodl5n","practice_no_cue","5dd35a387f1bbf35bd0d18b2","5f60e3c0a3b16e07647b2ff9","5f60eeb8ade02d000bc39921","true","1221.5950000099838","./Stimuli/ImagesPractice/LM239.jpg","83","","","","test","false","N + M","76","","LM","LM239.jpg","remember","old","9","1","start","left","","","",""
"html-keyboard-response","28","270718","0.0-2.0-2.0-0.9","tl3nub5qmaodl5n","practice_no_cue","5dd35a387f1bbf35bd0d18b2","5f60e3c0a3b16e07647b2ff9","5f60eeb8ade02d000bc39921","false","null","<span style=""color: black; font-size: 48px"">M + N</span>","null","","","","resp_prompt","","","","","","","","","","","","","","","",""
"categorize-image","29","272620","0.0-2.0-2.0-1.9","tl3nub5qmaodl5n","practice_no_cue","5dd35a387f1bbf35bd0d18b2","5f60e3c0a3b16e07647b2ff9","5f60eeb8ade02d000bc39921","true","1401.064999983646","./Stimuli/ImagesPractice/SM61.jpg","76","","","","test","false","M + N","83","","SM","SM61.jpg","forget","old","10","1","start","right","","","",""
"html-keyboard-response","30","273322","0.0-2.0-2.0-0.10","tl3nub5qmaodl5n","practice_no_cue","5dd35a387f1bbf35bd0d18b2","5f60e3c0a3b16e07647b2ff9","5f60eeb8ade02d000bc39921","false","null","<span style=""color: black; font-size: 48px"">M + N</span>","null","","","","resp_prompt","","","","","","","","","","","","","","","",""
"categorize-image","31","275030","0.0-2.0-2.0-1.10","tl3nub5qmaodl5n","practice_no_cue","5dd35a387f1bbf35bd0d18b2","5f60e3c0a3b16e07647b2ff9","5f60eeb8ade02d000bc39921","true","1206.5349999757018","./Stimuli/ImagesPractice/SN220.jpg","76","","","","test","true","M + N","76","","SN","SN220.jpg","remember","old","11","1","start","right","","","",""
"html-keyboard-response","32","275732","0.0-2.0-2.0-0.11","tl3nub5qmaodl5n","practice_no_cue","5dd35a387f1bbf35bd0d18b2","5f60e3c0a3b16e07647b2ff9","5f60eeb8ade02d000bc39921","false","null","<span style=""color: black; font-size: 48px"">N + M</span>","null","","","","resp_prompt","","","","","","","","","","","","","","","",""
"categorize-image","33","277793","0.0-2.0-2.0-1.11","tl3nub5qmaodl5n","practice_no_cue","5dd35a387f1bbf35bd0d18b2","5f60e3c0a3b16e07647b2ff9","5f60eeb8ade02d000bc39921","true","1559.2399999732152","./Stimuli/ImagesPractice/SM62.jpg","83","","","","test","false","N + M","76","","SM","SM62.jpg","remember","old","12","1","start","left","","","",""
"html-keyboard-response","34","278494","0.0-2.0-2.0-0.12","tl3nub5qmaodl5n","practice_no_cue","5dd35a387f1bbf35bd0d18b2","5f60e3c0a3b16e07647b2ff9","5f60eeb8ade02d000bc39921","false","null","<span style=""color: black; font-size: 48px"">N + M</span>","null","","","","resp_prompt","","","","","","","","","","","","","","","",""
"categorize-image","35","279851","0.0-2.0-2.0-1.12","tl3nub5qmaodl5n","practice_no_cue","5dd35a387f1bbf35bd0d18b2","5f60e3c0a3b16e07647b2ff9","5f60eeb8ade02d000bc39921","true","854.1449999902397","./Stimuli/ImagesPractice/LM224.jpg","76","","","","test","true","N + M","76","","LM","LM224.jpg","forget","old","13","1","start","right","","","",""
"html-keyboard-response","36","280552","0.0-2.0-2.0-0.13","tl3nub5qmaodl5n","practice_no_cue","5dd35a387f1bbf35bd0d18b2","5f60e3c0a3b16e07647b2ff9","5f60eeb8ade02d000bc39921","false","null","<span style=""color: black; font-size: 48px"">M + N</span>","null","","","","resp_prompt","","","","","","","","","","","","","","","",""
"categorize-image","37","281776","0.0-2.0-2.0-1.13","tl3nub5qmaodl5n","practice_no_cue","5dd35a387f1bbf35bd0d18b2","5f60e3c0a3b16e07647b2ff9","5f60eeb8ade02d000bc39921","true","721.0099999792874","./Stimuli/ImagesPractice/SN76.jpg","76","","","","test","true","M + N","76","","SN","SN76.jpg","remember","old","14","1","start","right","","","",""
"html-keyboard-response","38","282478","0.0-2.0-2.0-0.14","tl3nub5qmaodl5n","practice_no_cue","5dd35a387f1bbf35bd0d18b2","5f60e3c0a3b16e07647b2ff9","5f60eeb8ade02d000bc39921","false","null","<span style=""color: black; font-size: 48px"">N + M</span>","null","","","","resp_prompt","","","","","","","","","","","","","","","",""
"categorize-image","39","283733","0.0-2.0-2.0-1.14","tl3nub5qmaodl5n","practice_no_cue","5dd35a387f1bbf35bd0d18b2","5f60e3c0a3b16e07647b2ff9","5f60eeb8ade02d000bc39921","true","753.9549999928568","./Stimuli/ImagesPractice/LN15.jpg","83","","","","test","true","N + M","83","","LN","LN15.jpg","remember","old","15","1","start","left","","","",""
"html-keyboard-response","40","284434","0.0-2.0-2.0-0.15","tl3nub5qmaodl5n","practice_no_cue","5dd35a387f1bbf35bd0d18b2","5f60e3c0a3b16e07647b2ff9","5f60eeb8ade02d000bc39921","false","null","<span style=""color: black; font-size: 48px"">M + N</span>","null","","","","resp_prompt","","","","","","","","","","","","","","","",""
"categorize-image","41","285847","0.0-2.0-2.0-1.15","tl3nub5qmaodl5n","practice_no_cue","5dd35a387f1bbf35bd0d18b2","5f60e3c0a3b16e07647b2ff9","5f60eeb8ade02d000bc39921","true","911.0800000198651","./Stimuli/ImagesPractice/SN222.jpg","76","","","","test","true","M + N","76","","SN","SN222.jpg","forget","old","16","1","start","right","","","",""
"html-keyboard-response","42","293405","0.0-2.0-3.0","tl3nub5qmaodl5n","break","5dd35a387f1bbf35bd0d18b2","5f60e3c0a3b16e07647b2ff9","5f60eeb8ade02d000bc39921","false","7555.595000012545","<p style='font-size: 32px;'>Break</><br><br><br><br><br><p style='font-size: 24px;'>In the last block, you committed 7 errors and did not respond in time on 0 trials.
</p><p style='font-size: 24px;'>Try to respond as fast and accurately as possible in the next block as well! </p><p style='font-size: 24px;'>Press SPACE to continue.</p>","32","","","","","","","","","","","","","","","","","","","",""
"html-keyboard-response","43","297148","0.0-2.0-4.0","tl3nub5qmaodl5n","instructions","5dd35a387f1bbf35bd0d18b2","5f60e3c0a3b16e07647b2ff9","5f60eeb8ade02d000bc39921","false","3741.4500000013504","<div align=left> Great!<br><br>Are you ready to continue?<br><br>If you want to reread the instructions and redo the practice trials, <br>please press „Z“. <br><br>Press SPACE to CONTINUE with the experiment when you are ready. </div>","32","","","","","","","","","","","","","","","","","","","",""
"html-keyboard-response","44","341719","0.0-3.0-0.0","tl3nub5qmaodl5n","instructions","5dd35a387f1bbf35bd0d18b2","5f60e3c0a3b16e07647b2ff9","5f60eeb8ade02d000bc39921","false","44570.11499998043","<div align=left>Great!<br> <strong>Attention</strong>! You will now receive a second, additional task! <br><br>To this point it was you <strong>first task</strong> to correctly <strong>classify objects</strong>. <br><br>As mentioned in the beginning, we aim to examine how well humans can remember previously learned information.<br>We would like to find out whether our memory improves if we only remember information that is relevant to us. <br><br>Therefore, your <strong>second task</strong> will be to <strong>remember</strong> the pictures you are to categorize. <br> After the learning phase, there will be a memory test phase, in which you will be asked to indicate whether you have seen a picture before or not. <br>Some, but not all pictures shown in the learning phase will appear in the memory test phase.<br>After classifying a picture, you will be told whether you should remember it for the memory test phase or not. <br>Thus, some pictures can be forgotten, whereas others have to be remembered. <br><br>Note: From now on, feedback will only be displayed if you responded incorrectly or not in time.<br><br>Press SPACE to continue.</div>","32","","","","","","","","","","","","","","","","","","","",""
"html-keyboard-response","45","372861","0.0-3.0-1.0","tl3nub5qmaodl5n","instructions","5dd35a387f1bbf35bd0d18b2","5f60e3c0a3b16e07647b2ff9","5f60eeb8ade02d000bc39921","false","31141.31500001531","<div align=left>In the following part, you will thus have to remember only some pictures. <br>Immediately after seeing and classifying the picture, a symbol will be displayed, indicating whether you should remember or forget the previous picture. <br><br>A <span style='color: dodgerblue; font-size: 28px'>O</span> indicates REMEMBER. That means, you have to remember this picture, because it will be tested later. <br><br>A <span style='color: darkorange; font-size:28px'>Ø</span> indicates FORGET. You do not have to remember this picture. <br><br> As you will have to remember a lot of pictures, it will be hard for you to remember all of them. <br>It will put you at an advantage if you instantly forget the pictures you are not asked to remember. <br> This will make it easier for you to remember the pictures that will be tested afterwards. <br><br>Press SPACE to continue.</div>","32","","","","","","","","","","","","","","","","","","","",""
"html-keyboard-response","46","393843","0.0-3.0-2.0","tl3nub5qmaodl5n","instructions","5dd35a387f1bbf35bd0d18b2","5f60e3c0a3b16e07647b2ff9","5f60eeb8ade02d000bc39921","false","20981.560000014724","<div align=left> Now you have the chance to practice both tasks together.<br><br>Remember: <br> <br><li>Please place your index fingers on the <strong>'S'</strong> and <strong>'L'</strong> keys <br>to respond as fast and accurately as possible.</li><li>Every picture can be classified as either mechanical or non-mechanical.</li><li>If you do not respond in time or commit an error, you will receive a corresponding feedback. <br>Please try to respond as <strong> fast </strong> and as <strong> accurately as possible </strong>.</li><li> Please remember only the to-be-remembered <span style='color: dodgerblue; font-size: 28px'>O</span> pictures. <br></li><li> Please minimize distractions and stay focused. </li><br><br>Press SPACE to START</div>","32","","","","","","","","","","","","","","","","","","","",""
"html-keyboard-response","47","394545","0.0-3.0-3.0-0.0","tl3nub5qmaodl5n","practice_cue","5dd35a387f1bbf35bd0d18b2","5f60e3c0a3b16e07647b2ff9","5f60eeb8ade02d000bc39921","false","null","<span style=""color: black; font-size: 48px"">N + M</span>","null","","","","resp_prompt","","","","","","","","","","","","","","","",""
"categorize-image","48","395179","0.0-3.0-3.0-1.0","tl3nub5qmaodl5n","practice_cue","5dd35a387f1bbf35bd0d18b2","5f60e3c0a3b16e07647b2ff9","5f60eeb8ade02d000bc39921","true","630.0500000070315","./Stimuli/ImagesPractice/LM147.jpg","83","","","","test","false","N + M","76","","LM","LM147.jpg","forget","old","17","2","practice_forget","left","","","",""
"html-keyboard-response","49","395682","0.0-3.0-3.0-2.0-0.0","tl3nub5qmaodl5n","practice_cue","5dd35a387f1bbf35bd0d18b2","5f60e3c0a3b16e07647b2ff9","5f60eeb8ade02d000bc39921","false","null","<span style=""color: red; font-size: 48px"">Error!</span>","null","","","","feedback","","","","","","","","","","","","","","","",""
"html-keyboard-response","50","397683","0.0-3.0-3.0-3.0","tl3nub5qmaodl5n","practice_cue","5dd35a387f1bbf35bd0d18b2","5f60e3c0a3b16e07647b2ff9","5f60eeb8ade02d000bc39921","false","null","<div style=""align-items: center; display: flex; color: darkorange; font-size: 90px""><b>ø</b></div>","null","","","","forget_cue","","","","","","","","","","","","","","","",""
"html-keyboard-response","51","398385","0.0-3.0-3.0-0.1","tl3nub5qmaodl5n","practice_cue","5dd35a387f1bbf35bd0d18b2","5f60e3c0a3b16e07647b2ff9","5f60eeb8ade02d000bc39921","false","null","<span style=""color: black; font-size: 48px"">N + M</span>","null","","","","resp_prompt","","","","","","","","","","","","","","","",""
"categorize-image","52","398994","0.0-3.0-3.0-1.1","tl3nub5qmaodl5n","practice_cue","5dd35a387f1bbf35bd0d18b2","5f60e3c0a3b16e07647b2ff9","5f60eeb8ade02d000bc39921","true","605.6499999831431","./Stimuli/ImagesPractice/LM224.jpg","76","","","","test","true","N + M","76","","LM","LM224.jpg","forget","old","18","2","practice_forget","right","","","",""
"html-keyboard-response","53","400995","0.0-3.0-3.0-3.1","tl3nub5qmaodl5n","practice_cue","5dd35a387f1bbf35bd0d18b2","5f60e3c0a3b16e07647b2ff9","5f60eeb8ade02d000bc39921","false","null","<div style=""align-items: center; display: flex; color: darkorange; font-size: 90px""><b>ø</b></div>","null","","","","forget_cue","","","","","","","","","","","","","","","",""
"html-keyboard-response","54","401700","0.0-3.0-3.0-0.2","tl3nub5qmaodl5n","practice_cue","5dd35a387f1bbf35bd0d18b2","5f60e3c0a3b16e07647b2ff9","5f60eeb8ade02d000bc39921","false","null","<span style=""color: black; font-size: 48px"">M + N</span>","null","","","","resp_prompt","","","","","","","","","","","","","","","",""
"categorize-image","55","402402","0.0-3.0-3.0-1.2","tl3nub5qmaodl5n","practice_cue","5dd35a387f1bbf35bd0d18b2","5f60e3c0a3b16e07647b2ff9","5f60eeb8ade02d000bc39921","true","700.1499999896623","./Stimuli/ImagesPractice/SM37.jpg","83","","","","test","true","M + N","83","","SM","SM37.jpg","forget","old","19","2","practice_forget","left","","","",""
"html-keyboard-response","56","404404","0.0-3.0-3.0-3.2","tl3nub5qmaodl5n","practice_cue","5dd35a387f1bbf35bd0d18b2","5f60e3c0a3b16e07647b2ff9","5f60eeb8ade02d000bc39921","false","null","<div style=""align-items: center; display: flex; color: darkorange; font-size: 90px""><b>ø</b></div>","null","","","","forget_cue","","","","","","","","","","","","","","","",""
"html-keyboard-response","57","405106","0.0-3.0-3.0-0.3","tl3nub5qmaodl5n","practice_cue","5dd35a387f1bbf35bd0d18b2","5f60e3c0a3b16e07647b2ff9","5f60eeb8ade02d000bc39921","false","null","<span style=""color: black; font-size: 48px"">M + N</span>","null","","","","resp_prompt","","","","","","","","","","","","","","","",""
"categorize-image","58","405627","0.0-3.0-3.0-1.3","tl3nub5qmaodl5n","practice_cue","5dd35a387f1bbf35bd0d18b2","5f60e3c0a3b16e07647b2ff9","5f60eeb8ade02d000bc39921","true","518.3299999916926","./Stimuli/ImagesPractice/SN222.jpg","76","","","","test","true","M + N","76","","SN","SN222.jpg","forget","old","20","2","practice_forget","right","","","",""
"html-keyboard-response","59","407629","0.0-3.0-3.0-3.3","tl3nub5qmaodl5n","practice_cue","5dd35a387f1bbf35bd0d18b2","5f60e3c0a3b16e07647b2ff9","5f60eeb8ade02d000bc39921","false","null","<div style=""align-items: center; display: flex; color: darkorange; font-size: 90px""><b>ø</b></div>","null","","","","forget_cue","","","","","","","","","","","","","","","",""
"html-keyboard-response","60","408330","0.0-3.0-3.0-0.4","tl3nub5qmaodl5n","practice_cue","5dd35a387f1bbf35bd0d18b2","5f60e3c0a3b16e07647b2ff9","5f60eeb8ade02d000bc39921","false","null","<span style=""color: black; font-size: 48px"">N + M</span>","null","","","","resp_prompt","","","","","","","","","","","","","","","",""
"categorize-image","61","408912","0.0-3.0-3.0-1.4","tl3nub5qmaodl5n","practice_cue","5dd35a387f1bbf35bd0d18b2","5f60e3c0a3b16e07647b2ff9","5f60eeb8ade02d000bc39921","true","579.0399999823421","./Stimuli/ImagesPractice/LN2.jpg","83","","","","test","true","N + M","83","","LN","LN2.jpg","forget","old","21","2","practice_forget","left","","","",""
"html-keyboard-response","62","410914","0.0-3.0-3.0-3.4","tl3nub5qmaodl5n","practice_cue","5dd35a387f1bbf35bd0d18b2","5f60e3c0a3b16e07647b2ff9","5f60eeb8ade02d000bc39921","false","null","<div style=""align-items: center; display: flex; color: darkorange; font-size: 90px""><b>ø</b></div>","null","","","","forget_cue","","","","","","","","","","","","","","","",""
"html-keyboard-response","63","411615","0.0-3.0-3.0-0.5","tl3nub5qmaodl5n","practice_cue","5dd35a387f1bbf35bd0d18b2","5f60e3c0a3b16e07647b2ff9","5f60eeb8ade02d000bc39921","false","null","<span style=""color: black; font-size: 48px"">M + N</span>","null","","","","resp_prompt","","","","","","","","","","","","","","","",""
"categorize-image","64","412194","0.0-3.0-3.0-1.5","tl3nub5qmaodl5n","practice_cue","5dd35a387f1bbf35bd0d18b2","5f60e3c0a3b16e07647b2ff9","5f60eeb8ade02d000bc39921","true","575.5050000152551","./Stimuli/ImagesPractice/LN72.jpg","76","","","","test","true","M + N","76","","LN","LN72.jpg","remember","old","22","2","practice_forget","right","","","",""
"html-keyboard-response","65","414195","0.0-3.0-3.0-3.5","tl3nub5qmaodl5n","practice_cue","5dd35a387f1bbf35bd0d18b2","5f60e3c0a3b16e07647b2ff9","5f60eeb8ade02d000bc39921","false","null","<div style=""align-items: center; display: flex; color: dodgerblue; font-size: 90px""><b>o</b></div>","null","","","","forget_cue","","","","","","","","","","","","","","","",""
"html-keyboard-response","66","414897","0.0-3.0-3.0-0.6","tl3nub5qmaodl5n","practice_cue","5dd35a387f1bbf35bd0d18b2","5f60e3c0a3b16e07647b2ff9","5f60eeb8ade02d000bc39921","false","null","<span style=""color: black; font-size: 48px"">N + M</span>","null","","","","resp_prompt","","","","","","","","","","","","","","","",""
"categorize-image","67","415546","0.0-3.0-3.0-1.6","tl3nub5qmaodl5n","practice_cue","5dd35a387f1bbf35bd0d18b2","5f60e3c0a3b16e07647b2ff9","5f60eeb8ade02d000bc39921","true","646.069999987958","./Stimuli/ImagesPractice/LM230.jpg","76","","","","test","true","N + M","76","","LM","LM230.jpg","remember","old","23","2","practice_forget","right","","","",""
"html-keyboard-response","68","417548","0.0-3.0-3.0-3.6","tl3nub5qmaodl5n","practice_cue","5dd35a387f1bbf35bd0d18b2","5f60e3c0a3b16e07647b2ff9","5f60eeb8ade02d000bc39921","false","null","<div style=""align-items: center; display: flex; color: dodgerblue; font-size: 90px""><b>o</b></div>","null","","","","forget_cue","","","","","","","","","","","","","","","",""
"html-keyboard-response","69","418249","0.0-3.0-3.0-0.7","tl3nub5qmaodl5n","practice_cue","5dd35a387f1bbf35bd0d18b2","5f60e3c0a3b16e07647b2ff9","5f60eeb8ade02d000bc39921","false","null","<span style=""color: black; font-size: 48px"">M + N</span>","null","","","","resp_prompt","","","","","","","","","","","","","","","",""
"categorize-image","70","418833","0.0-3.0-3.0-1.7","tl3nub5qmaodl5n","practice_cue","5dd35a387f1bbf35bd0d18b2","5f60e3c0a3b16e07647b2ff9","5f60eeb8ade02d000bc39921","true","581.225000001723","./Stimuli/ImagesPractice/SN205.jpg","76","","","","test","true","M + N","76","","SN","SN205.jpg","remember","old","24","2","practice_forget","right","","","",""
"html-keyboard-response","71","420834","0.0-3.0-3.0-3.7","tl3nub5qmaodl5n","practice_cue","5dd35a387f1bbf35bd0d18b2","5f60e3c0a3b16e07647b2ff9","5f60eeb8ade02d000bc39921","false","null","<div style=""align-items: center; display: flex; color: dodgerblue; font-size: 90px""><b>o</b></div>","null","","","","forget_cue","","","","","","","","","","","","","","","",""
"html-keyboard-response","72","421535","0.0-3.0-3.0-0.8","tl3nub5qmaodl5n","practice_cue","5dd35a387f1bbf35bd0d18b2","5f60e3c0a3b16e07647b2ff9","5f60eeb8ade02d000bc39921","false","null","<span style=""color: black; font-size: 48px"">N + M</span>","null","","","","resp_prompt","","","","","","","","","","","","","","","",""
"categorize-image","73","422070","0.0-3.0-3.0-1.8","tl3nub5qmaodl5n","practice_cue","5dd35a387f1bbf35bd0d18b2","5f60e3c0a3b16e07647b2ff9","5f60eeb8ade02d000bc39921","true","532.3649999918416","./Stimuli/ImagesPractice/SM62.jpg","76","","","","test","true","N + M","76","","SM","SM62.jpg","remember","old","25","2","practice_forget","right","","","",""
"html-keyboard-response","74","424071","0.0-3.0-3.0-3.8","tl3nub5qmaodl5n","practice_cue","5dd35a387f1bbf35bd0d18b2","5f60e3c0a3b16e07647b2ff9","5f60eeb8ade02d000bc39921","false","null","<div style=""align-items: center; display: flex; color: dodgerblue; font-size: 90px""><b>o</b></div>","null","","","","forget_cue","","","","","","","","","","","","","","","",""
"html-keyboard-response","75","424773","0.0-3.0-3.0-0.9","tl3nub5qmaodl5n","practice_cue","5dd35a387f1bbf35bd0d18b2","5f60e3c0a3b16e07647b2ff9","5f60eeb8ade02d000bc39921","false","null","<span style=""color: black; font-size: 48px"">N + M</span>","null","","","","resp_prompt","","","","","","","","","","","","","","","",""
"categorize-image","76","425319","0.0-3.0-3.0-1.9","tl3nub5qmaodl5n","practice_cue","5dd35a387f1bbf35bd0d18b2","5f60e3c0a3b16e07647b2ff9","5f60eeb8ade02d000bc39921","true","542.9949999961536","./Stimuli/ImagesPractice/LN15.jpg","83","","","","test","true","N + M","83","","LN","LN15.jpg","remember","old","26","2","practice_forget","left","","","",""
"html-keyboard-response","77","427319","0.0-3.0-3.0-3.9","tl3nub5qmaodl5n","practice_cue","5dd35a387f1bbf35bd0d18b2","5f60e3c0a3b16e07647b2ff9","5f60eeb8ade02d000bc39921","false","null","<div style=""align-items: center; display: flex; color: dodgerblue; font-size: 90px""><b>o</b></div>","null","","","","forget_cue","","","","","","","","","","","","","","","",""
"html-keyboard-response","78","428022","0.0-3.0-3.0-0.10","tl3nub5qmaodl5n","practice_cue","5dd35a387f1bbf35bd0d18b2","5f60e3c0a3b16e07647b2ff9","5f60eeb8ade02d000bc39921","false","null","<span style=""color: black; font-size: 48px"">N + M</span>","null","","","","resp_prompt","","","","","","","","","","","","","","","",""
"categorize-image","79","428705","0.0-3.0-3.0-1.10","tl3nub5qmaodl5n","practice_cue","5dd35a387f1bbf35bd0d18b2","5f60e3c0a3b16e07647b2ff9","5f60eeb8ade02d000bc39921","true","680.9650000068359","./Stimuli/ImagesPractice/LM143.jpg","76","","","","test","true","N + M","76","","LM","LM143.jpg","forget","old","27","2","practice_forget","right","","","",""
"html-keyboard-response","80","430706","0.0-3.0-3.0-3.10","tl3nub5qmaodl5n","practice_cue","5dd35a387f1bbf35bd0d18b2","5f60e3c0a3b16e07647b2ff9","5f60eeb8ade02d000bc39921","false","null","<div style=""align-items: center; display: flex; color: darkorange; font-size: 90px""><b>ø</b></div>","null","","","","forget_cue","","","","","","","","","","","","","","","",""
"html-keyboard-response","81","431409","0.0-3.0-3.0-0.11","tl3nub5qmaodl5n","practice_cue","5dd35a387f1bbf35bd0d18b2","5f60e3c0a3b16e07647b2ff9","5f60eeb8ade02d000bc39921","false","null","<span style=""color: black; font-size: 48px"">M + N</span>","null","","","","resp_prompt","","","","","","","","","","","","","","","",""
"categorize-image","82","431930","0.0-3.0-3.0-1.11","tl3nub5qmaodl5n","practice_cue","5dd35a387f1bbf35bd0d18b2","5f60e3c0a3b16e07647b2ff9","5f60eeb8ade02d000bc39921","true","518.0899999977555","./Stimuli/ImagesPractice/SM35.jpg","83","","","","test","true","M + N","83","","SM","SM35.jpg","forget","old","28","2","practice_forget","left","","","",""
"html-keyboard-response","83","433932","0.0-3.0-3.0-3.11","tl3nub5qmaodl5n","practice_cue","5dd35a387f1bbf35bd0d18b2","5f60e3c0a3b16e07647b2ff9","5f60eeb8ade02d000bc39921","false","null","<div style=""align-items: center; display: flex; color: darkorange; font-size: 90px""><b>ø</b></div>","null","","","","forget_cue","","","","","","","","","","","","","","","",""
"html-keyboard-response","84","434633","0.0-3.0-3.0-0.12","tl3nub5qmaodl5n","practice_cue","5dd35a387f1bbf35bd0d18b2","5f60e3c0a3b16e07647b2ff9","5f60eeb8ade02d000bc39921","false","null","<span style=""color: black; font-size: 48px"">N + M</span>","null","","","","resp_prompt","","","","","","","","","","","","","","","",""
"categorize-image","85","435288","0.0-3.0-3.0-1.12","tl3nub5qmaodl5n","practice_cue","5dd35a387f1bbf35bd0d18b2","5f60e3c0a3b16e07647b2ff9","5f60eeb8ade02d000bc39921","true","652.8650000109337","./Stimuli/ImagesPractice/LM239.jpg","83","","","","test","false","N + M","76","","LM","LM239.jpg","remember","old","29","2","practice_forget","left","","","",""
"html-keyboard-response","86","435790","0.0-3.0-3.0-2.12-0.12","tl3nub5qmaodl5n","practice_cue","5dd35a387f1bbf35bd0d18b2","5f60e3c0a3b16e07647b2ff9","5f60eeb8ade02d000bc39921","false","null","<span style=""color: red; font-size: 48px"">Error!</span>","null","","","","feedback","","","","","","","","","","","","","","","",""
"html-keyboard-response","87","437792","0.0-3.0-3.0-3.12","tl3nub5qmaodl5n","practice_cue","5dd35a387f1bbf35bd0d18b2","5f60e3c0a3b16e07647b2ff9","5f60eeb8ade02d000bc39921","false","null","<div style=""align-items: center; display: flex; color: dodgerblue; font-size: 90px""><b>o</b></div>","null","","","","forget_cue","","","","","","","","","","","","","","","",""
"html-keyboard-response","88","438493","0.0-3.0-3.0-0.13","tl3nub5qmaodl5n","practice_cue","5dd35a387f1bbf35bd0d18b2","5f60e3c0a3b16e07647b2ff9","5f60eeb8ade02d000bc39921","false","null","<span style=""color: black; font-size: 48px"">M + N</span>","null","","","","resp_prompt","","","","","","","","","","","","","","","",""
"categorize-image","89","439272","0.0-3.0-3.0-1.13","tl3nub5qmaodl5n","practice_cue","5dd35a387f1bbf35bd0d18b2","5f60e3c0a3b16e07647b2ff9","5f60eeb8ade02d000bc39921","true","776.0899999993853","./Stimuli/ImagesPractice/SM61.jpg","76","","","","test","false","M + N","83","","SM","SM61.jpg","forget","old","30","2","practice_forget","right","","","",""
"html-keyboard-response","90","439774","0.0-3.0-3.0-2.13-0.13","tl3nub5qmaodl5n","practice_cue","5dd35a387f1bbf35bd0d18b2","5f60e3c0a3b16e07647b2ff9","5f60eeb8ade02d000bc39921","false","null","<span style=""color: red; font-size: 48px"">Error!</span>","null","","","","feedback","","","","","","","","","","","","","","","",""
"html-keyboard-response","91","441776","0.0-3.0-3.0-3.13","tl3nub5qmaodl5n","practice_cue","5dd35a387f1bbf35bd0d18b2","5f60e3c0a3b16e07647b2ff9","5f60eeb8ade02d000bc39921","false","null","<div style=""align-items: center; display: flex; color: darkorange; font-size: 90px""><b>ø</b></div>","null","","","","forget_cue","","","","","","","","","","","","","","","",""
"html-keyboard-response","92","442478","0.0-3.0-3.0-0.14","tl3nub5qmaodl5n","practice_cue","5dd35a387f1bbf35bd0d18b2","5f60e3c0a3b16e07647b2ff9","5f60eeb8ade02d000bc39921","false","null","<span style=""color: black; font-size: 48px"">M + N</span>","null","","","","resp_prompt","","","","","","","","","","","","","","","",""
"categorize-image","93","443045","0.0-3.0-3.0-1.14","tl3nub5qmaodl5n","practice_cue","5dd35a387f1bbf35bd0d18b2","5f60e3c0a3b16e07647b2ff9","5f60eeb8ade02d000bc39921","true","564.2200000002049","./Stimuli/ImagesPractice/SN76.jpg","76","","","","test","true","M + N","76","","SN","SN76.jpg","remember","old","31","2","practice_forget","right","","","",""
"html-keyboard-response","94","445047","0.0-3.0-3.0-3.14","tl3nub5qmaodl5n","practice_cue","5dd35a387f1bbf35bd0d18b2","5f60e3c0a3b16e07647b2ff9","5f60eeb8ade02d000bc39921","false","null","<div style=""align-items: center; display: flex; color: dodgerblue; font-size: 90px""><b>o</b></div>","null","","","","forget_cue","","","","","","","","","","","","","","","",""
"html-keyboard-response","95","445748","0.0-3.0-3.0-0.15","tl3nub5qmaodl5n","practice_cue","5dd35a387f1bbf35bd0d18b2","5f60e3c0a3b16e07647b2ff9","5f60eeb8ade02d000bc39921","false","null","<span style=""color: black; font-size: 48px"">M + N</span>","null","","","","resp_prompt","","","","","","","","","","","","","","","",""
"categorize-image","96","446555","0.0-3.0-3.0-1.15","tl3nub5qmaodl5n","practice_cue","5dd35a387f1bbf35bd0d18b2","5f60e3c0a3b16e07647b2ff9","5f60eeb8ade02d000bc39921","true","805.1200000045355","./Stimuli/ImagesPractice/SN220.jpg","76","","","","test","true","M + N","76","","SN","SN220.jpg","remember","old","32","2","practice_forget","right","","","",""
"html-keyboard-response","97","448557","0.0-3.0-3.0-3.15","tl3nub5qmaodl5n","practice_cue","5dd35a387f1bbf35bd0d18b2","5f60e3c0a3b16e07647b2ff9","5f60eeb8ade02d000bc39921","false","null","<div style=""align-items: center; display: flex; color: dodgerblue; font-size: 90px""><b>o</b></div>","null","","","","forget_cue","","","","","","","","","","","","","","","",""
"html-keyboard-response","98","456312","0.0-3.0-4.0","tl3nub5qmaodl5n","break","5dd35a387f1bbf35bd0d18b2","5f60e3c0a3b16e07647b2ff9","5f60eeb8ade02d000bc39921","false","7754.114999988815","<p style='font-size: 32px;'>Break</><br><br><br><br><br><p style='font-size: 24px;'>In the last block, you committed 3 errors and did not respond in time on 0 trials.
</p><p style='font-size: 24px;'>Try to respond as fast and accurately as possible in the next block as well! </p><p style='font-size: 24px;'>Press SPACE to continue.</p>","32","","","","","","","","","","","","","","","","","","","",""
"html-keyboard-response","99","477118","0.0-3.0-5.0","tl3nub5qmaodl5n","instructions","5dd35a387f1bbf35bd0d18b2","5f60e3c0a3b16e07647b2ff9","5f60eeb8ade02d000bc39921","false","20805.209999991348","<div align=left> Now, to practice, we kindly ask you to remember as many of the to-be-remembered pictures<br>of the previous learning phase as possible.<br><br>The pictures you were instructed to remember were the pictures followed by a <span style='color: dodgerblue; font-size: 28px'>O</span>.<br><br>In this memory test phase, you will also see some new pictures.<br>It is your task to remember whether you were presented with this specific picture in this study so far or not.<br>If you recognize an object (you have already seen it in this study), it is an OLD object. <br>If you do not recognize an object (you have NOT seen it in this study), it is a NEW object. <br><strong> Attention</strong>: As already mentioned, <span style='color: darkorange; font-size:28px'>Ø</span>-pictures will <strong>never</strong> appear in this memory test (neither as new objects). <br><br>Press SPACE to continue. </div>","32","","","","","","","","","","","","","","","","","","","",""
"html-keyboard-response","100","510605","0.0-3.0-6.0","tl3nub5qmaodl5n","instructions","5dd35a387f1bbf35bd0d18b2","5f60e3c0a3b16e07647b2ff9","5f60eeb8ade02d000bc39921","false","33485.96499999985","<div align=left> M and N no longer will appear on the left/right of the fixation cross. <br>Instead there will be a note at the bottom of the left or right side  <br>indicating which key you should press for an old or new object:  <br> <br>Press the <strong>right</strong> key to classify an object as <strong>old</strong> and press the <strong>left</strong>, to classify an object as <strong>new</strong>.<br>Please classify the objects as new/old by again placing your index finger on the 'S' and 'L' keys <br>and press them accordingly.<br><br><strong>Old:</strong> This object has been presented before. <br><strong>New:</strong> This object has <strong>not</strong> been presented.<br><br>Now please put your right and left index fingers on the 'S' and 'L' keys of your keyboard. <br>Please respond as fast and as accurately as possible!<br><br>Press SPACE to continue. </div>","32","","","","","","","","","","","","","","","","","","","",""
"categorize-image","101","512274","0.0-3.0-7.0-0.0","tl3nub5qmaodl5n","practice_recog","5dd35a387f1bbf35bd0d18b2","5f60e3c0a3b16e07647b2ff9","5f60eeb8ade02d000bc39921","true","1166.720000008354","./Stimuli/ImagesPractice/LN72.jpg","76","","","","test","false","","83","","LN","LN72.jpg","","old","33","3","practice_recog","right","","","",""
"categorize-image","102","513889","0.0-3.0-7.0-0.1","tl3nub5qmaodl5n","practice_recog","5dd35a387f1bbf35bd0d18b2","5f60e3c0a3b16e07647b2ff9","5f60eeb8ade02d000bc39921","true","1112.9049999872223","./Stimuli/ImagesPractice/SN205.jpg","83","","","","test","true","","83","","SN","SN205.jpg","","old","34","3","practice_recog","left","","","",""
"categorize-image","103","515419","0.0-3.0-7.0-0.2","tl3nub5qmaodl5n","practice_recog","5dd35a387f1bbf35bd0d18b2","5f60e3c0a3b16e07647b2ff9","5f60eeb8ade02d000bc39921","true","1027.105000015581","./Stimuli/ImagesPractice/LN17.jpg","76","","","","test","true","","76","","LN","LN17.jpg","","new","35","3","practice_recog","right","","","",""
"categorize-image","104","517791","0.0-3.0-7.0-0.3","tl3nub5qmaodl5n","practice_recog","5dd35a387f1bbf35bd0d18b2","5f60e3c0a3b16e07647b2ff9","5f60eeb8ade02d000bc39921","true","1869.1800000087824","./Stimuli/ImagesPractice/LN109.jpg","76","","","","test","true","","76","","LN","LN109.jpg","","new","36","3","practice_recog","right","","","",""
"categorize-image","105","519455","0.0-3.0-7.0-0.4","tl3nub5qmaodl5n","practice_recog","5dd35a387f1bbf35bd0d18b2","5f60e3c0a3b16e07647b2ff9","5f60eeb8ade02d000bc39921","true","1161.0599999839906","./Stimuli/ImagesPractice/SM97.jpg","76","","","","test","true","","76","","SM","SM97.jpg","","new","37","3","practice_recog","right","","","",""
"categorize-image","106","520791","0.0-3.0-7.0-0.5","tl3nub5qmaodl5n","practice_recog","5dd35a387f1bbf35bd0d18b2","5f60e3c0a3b16e07647b2ff9","5f60eeb8ade02d000bc39921","true","833.3949999941979","./Stimuli/ImagesPractice/LN15.jpg","83","","","","test","true","","83","","LN","LN15.jpg","","old","38","3","practice_recog","left","","","",""
"categorize-image","107","522237","0.0-3.0-7.0-0.6","tl3nub5qmaodl5n","practice_recog","5dd35a387f1bbf35bd0d18b2","5f60e3c0a3b16e07647b2ff9","5f60eeb8ade02d000bc39921","true","943.8700000173412","./Stimuli/ImagesPractice/SM98.jpg","76","","","","test","true","","76","","SM","SM98.jpg","","new","39","3","practice_recog","right","","","",""
"categorize-image","108","523757","0.0-3.0-7.0-0.7","tl3nub5qmaodl5n","practice_recog","5dd35a387f1bbf35bd0d18b2","5f60e3c0a3b16e07647b2ff9","5f60eeb8ade02d000bc39921","true","1018.3599999872968","./Stimuli/ImagesPractice/SN220.jpg","83","","","","test","true","","83","","SN","SN220.jpg","","old","40","3","practice_recog","left","","","",""
"categorize-image","109","525147","0.0-3.0-7.0-0.8","tl3nub5qmaodl5n","practice_recog","5dd35a387f1bbf35bd0d18b2","5f60e3c0a3b16e07647b2ff9","5f60eeb8ade02d000bc39921","true","888.280000013765","./Stimuli/ImagesPractice/SN76.jpg","83","","","","test","true","","83","","SN","SN76.jpg","","old","41","3","practice_recog","left","","","",""
"categorize-image","110","526429","0.0-3.0-7.0-0.9","tl3nub5qmaodl5n","practice_recog","5dd35a387f1bbf35bd0d18b2","5f60e3c0a3b16e07647b2ff9","5f60eeb8ade02d000bc39921","true","778.9449999982025","./Stimuli/ImagesPractice/SN221.jpg","76","","","","test","true","","76","","SN","SN221.jpg","","new","42","3","practice_recog","right","","","",""
"categorize-image","111","528561","0.0-3.0-7.0-0.10","tl3nub5qmaodl5n","practice_recog","5dd35a387f1bbf35bd0d18b2","5f60e3c0a3b16e07647b2ff9","5f60eeb8ade02d000bc39921","true","1629.1600000113249","./Stimuli/ImagesPractice/LM55.jpg","76","","","","test","true","","76","","LM","LM55.jpg","","new","43","3","practice_recog","right","","","",""
"categorize-image","112","530262","0.0-3.0-7.0-0.11","tl3nub5qmaodl5n","practice_recog","5dd35a387f1bbf35bd0d18b2","5f60e3c0a3b16e07647b2ff9","5f60eeb8ade02d000bc39921","true","1199.3150000052992","./Stimuli/ImagesPractice/LN4.jpg","76","","","","test","true","","76","","LN","LN4.jpg","","new","44","3","practice_recog","right","","","",""
"categorize-image","113","531680","0.0-3.0-7.0-0.12","tl3nub5qmaodl5n","practice_recog","5dd35a387f1bbf35bd0d18b2","5f60e3c0a3b16e07647b2ff9","5f60eeb8ade02d000bc39921","true","916.0100000153761","./Stimuli/ImagesPractice/SM62.jpg","83","","","","test","true","","83","","SM","SM62.jpg","","old","45","3","practice_recog","left","","","",""
"categorize-image","114","533466","0.0-3.0-7.0-0.13","tl3nub5qmaodl5n","practice_recog","5dd35a387f1bbf35bd0d18b2","5f60e3c0a3b16e07647b2ff9","5f60eeb8ade02d000bc39921","true","1283.8349999801721","./Stimuli/ImagesPractice/LM230.jpg","83","","","","test","true","","83","","LM","LM230.jpg","","old","46","3","practice_recog","left","","","",""
"categorize-image","115","535182","0.0-3.0-7.0-0.14","tl3nub5qmaodl5n","practice_recog","5dd35a387f1bbf35bd0d18b2","5f60e3c0a3b16e07647b2ff9","5f60eeb8ade02d000bc39921","true","1214.2199999943841","./Stimuli/ImagesPractice/SN75.jpg","76","","","","test","true","","76","","SN","SN75.jpg","","new","47","3","practice_recog","right","","","",""
"categorize-image","116","536528","0.0-3.0-7.0-0.15","tl3nub5qmaodl5n","practice_recog","5dd35a387f1bbf35bd0d18b2","5f60e3c0a3b16e07647b2ff9","5f60eeb8ade02d000bc39921","true","842.8300000086892","./Stimuli/ImagesPractice/LM239.jpg","83","","","","test","true","","83","","LM","LM239.jpg","","old","48","3","practice_recog","left","","","",""
"html-keyboard-response","117","541427","0.0-3.0-8.0","tl3nub5qmaodl5n","instructions","5dd35a387f1bbf35bd0d18b2","5f60e3c0a3b16e07647b2ff9","5f60eeb8ade02d000bc39921","false","4898.47000001464","<div align=left> Great!<br><br>Are you ready to continue?<br>If you want to reread the instructions and redo the practice trials, please <br>press „Z“.<br><br>You can proceed when you are ready.<br><br>After the presentation of each object, you will receive an instruction whether to <br>remember or to forget the object.<br>We will test your memory of the following pictures only at the very end of <br>the experiment after all learning blocks are completed. <br><br>Press SPACE to CONTINUE when you are ready. </div>","32","","","","","","","","","","","","","","","","","","","",""
"html-keyboard-response","118","543021","0.0-4.0-0.0","tl3nub5qmaodl5n","instructions","5dd35a387f1bbf35bd0d18b2","5f60e3c0a3b16e07647b2ff9","5f60eeb8ade02d000bc39921","false","1592.609999992419","<div align=left> The actual experiment is about to start.<br>The practice trials are over!<br><br>Please always respond both fast and accurately!<br><br>Remember: <br> <br><li> Please place your index fingers on the <strong>'S'</strong> and <strong>'L'</strong> keys <br>to respond as fast and accurately as possible.</li><li> Every picture can be classified as either mechanical or non-mechanical.</li><li> If you do not respond in time or commit an error, you will receive a corresponding feedback.<br> Please try to respond as <strong> fast </strong> and as <strong> accurately as possible </strong>.</li><li> Remember the <span style='color: dodgerblue; font-size: 28px'>O</span> pictures. <br></li><li> Please minimize distractions and stay focused. </li><br><br>Press SPACE to START.</div>","32","","","","","","","","","","","","","","","","","","","",""
"html-keyboard-response","119","543723","0.0-4.0-1.0-0.0","tl3nub5qmaodl5n","prime","5dd35a387f1bbf35bd0d18b2","5f60e3c0a3b16e07647b2ff9","5f60eeb8ade02d000bc39921","false","null","<span style=""color: black; font-size: 48px"">N + M</span>","null","","","","resp_prompt","","","","","","","","","","","","","","","",""
"categorize-image","120","544362","0.0-4.0-1.0-1.0","tl3nub5qmaodl5n","prime","5dd35a387f1bbf35bd0d18b2","5f60e3c0a3b16e07647b2ff9","5f60eeb8ade02d000bc39921","true","636.3450000062585","./Stimuli/SelectedImages/LN/LN28.bmp","83","","","","test","true","N + M","83","switch","LN","LN28.bmp","remember","","49","3","prime1","left","","","",""
"html-keyboard-response","121","546364","0.0-4.0-1.0-3.0","tl3nub5qmaodl5n","prime","5dd35a387f1bbf35bd0d18b2","5f60e3c0a3b16e07647b2ff9","5f60eeb8ade02d000bc39921","false","null","<div style=""align-items: center; display: flex; color: dodgerblue; font-size: 90px""><b>o</b></div>","null","","","","forget_cue","","","","","","","","","","","","","","","",""
"html-keyboard-response","122","547065","0.0-4.0-1.0-0.1","tl3nub5qmaodl5n","prime","5dd35a387f1bbf35bd0d18b2","5f60e3c0a3b16e07647b2ff9","5f60eeb8ade02d000bc39921","false","null","<span style=""color: black; font-size: 48px"">N + M</span>","null","","","","resp_prompt","","","","","","","","","","","","","","","",""
"categorize-image","123","547964","0.0-4.0-1.0-1.1","tl3nub5qmaodl5n","prime","5dd35a387f1bbf35bd0d18b2","5f60e3c0a3b16e07647b2ff9","5f60eeb8ade02d000bc39921","true","895.989999989979","./Stimuli/SelectedImages/SM/SM106.bmp","76","","","","test","true","N + M","76","switch","SM","SM106.bmp","forget","","50","3","prime1","right","","","",""
"html-keyboard-response","124","549965","0.0-4.0-1.0-3.1","tl3nub5qmaodl5n","prime","5dd35a387f1bbf35bd0d18b2","5f60e3c0a3b16e07647b2ff9","5f60eeb8ade02d000bc39921","false","null","<div style=""align-items: center; display: flex; color: darkorange; font-size: 90px""><b>ø</b></div>","null","","","","forget_cue","","","","","","","","","","","","","","","",""
"html-keyboard-response","125","550667","0.0-4.0-1.0-0.2","tl3nub5qmaodl5n","prime","5dd35a387f1bbf35bd0d18b2","5f60e3c0a3b16e07647b2ff9","5f60eeb8ade02d000bc39921","false","null","<span style=""color: black; font-size: 48px"">N + M</span>","null","","","","resp_prompt","","","","","","","","","","","","","","","",""
"categorize-image","126","551377","0.0-4.0-1.0-1.2","tl3nub5qmaodl5n","prime","5dd35a387f1bbf35bd0d18b2","5f60e3c0a3b16e07647b2ff9","5f60eeb8ade02d000bc39921","true","706.7749999987427","./Stimuli/SelectedImages/LN/LN59.bmp","83","","","","test","true","N + M","83","repetition","LN","LN59.bmp","forget","","51","3","prime1","left","","","",""
"html-keyboard-response","127","553379","0.0-4.0-1.0-3.2","tl3nub5qmaodl5n","prime","5dd35a387f1bbf35bd0d18b2","5f60e3c0a3b16e07647b2ff9","5f60eeb8ade02d000bc39921","false","null","<div style=""align-items: center; display: flex; color: darkorange; font-size: 90px""><b>ø</b></div>","null","","","","forget_cue","","","","","","","","","","","","","","","",""
"html-keyboard-response","128","554080","0.0-4.0-1.0-0.3","tl3nub5qmaodl5n","prime","5dd35a387f1bbf35bd0d18b2","5f60e3c0a3b16e07647b2ff9","5f60eeb8ade02d000bc39921","false","null","<span style=""color: black; font-size: 48px"">M + N</span>","null","","","","resp_prompt","","","","","","","","","","","","","","","",""
"categorize-image","129","554759","0.0-4.0-1.0-1.3","tl3nub5qmaodl5n","prime","5dd35a387f1bbf35bd0d18b2","5f60e3c0a3b16e07647b2ff9","5f60eeb8ade02d000bc39921","true","676.7300000065006","./Stimuli/SelectedImages/LN/LN150.bmp","76","","","","test","true","M + N","76","switch","LN","LN150.bmp","remember","","52","3","prime1","right","","","",""
"html-keyboard-response","130","556761","0.0-4.0-1.0-3.3","tl3nub5qmaodl5n","prime","5dd35a387f1bbf35bd0d18b2","5f60e3c0a3b16e07647b2ff9","5f60eeb8ade02d000bc39921","false","null","<div style=""align-items: center; display: flex; color: dodgerblue; font-size: 90px""><b>o</b></div>","null","","","","forget_cue","","","","","","","","","","","","","","","",""
"html-keyboard-response","131","557462","0.0-4.0-1.0-0.4","tl3nub5qmaodl5n","prime","5dd35a387f1bbf35bd0d18b2","5f60e3c0a3b16e07647b2ff9","5f60eeb8ade02d000bc39921","false","null","<span style=""color: black; font-size: 48px"">N + M</span>","null","","","","resp_prompt","","","","","","","","","","","","","","","",""
"categorize-image","132","558064","0.0-4.0-1.0-1.4","tl3nub5qmaodl5n","prime","5dd35a387f1bbf35bd0d18b2","5f60e3c0a3b16e07647b2ff9","5f60eeb8ade02d000bc39921","true","599.1199999989476","./Stimuli/SelectedImages/SN/SN60.bmp","83","","","","test","true","N + M","83","repetition","SN","SN60.bmp","forget","","53","3","prime1","left","","","",""
"html-keyboard-response","133","560065","0.0-4.0-1.0-3.4","tl3nub5qmaodl5n","prime","5dd35a387f1bbf35bd0d18b2","5f60e3c0a3b16e07647b2ff9","5f60eeb8ade02d000bc39921","false","null","<div style=""align-items: center; display: flex; color: darkorange; font-size: 90px""><b>ø</b></div>","null","","","","forget_cue","","","","","","","","","","","","","","","",""
"html-keyboard-response","134","560766","0.0-4.0-1.0-0.5","tl3nub5qmaodl5n","prime","5dd35a387f1bbf35bd0d18b2","5f60e3c0a3b16e07647b2ff9","5f60eeb8ade02d000bc39921","false","null","<span style=""color: black; font-size: 48px"">N + M</span>","null","","","","resp_prompt","","","","","","","","","","","","","","","",""
"categorize-image","135","561500","0.0-4.0-1.0-1.5","tl3nub5qmaodl5n","prime","5dd35a387f1bbf35bd0d18b2","5f60e3c0a3b16e07647b2ff9","5f60eeb8ade02d000bc39921","true","731.195000000298","./Stimuli/SelectedImages/LM/LM75.bmp","76","","","","test","true","N + M","76","switch","LM","LM75.bmp","forget","","54","3","prime1","right","","","",""
"html-keyboard-response","136","563501","0.0-4.0-1.0-3.5","tl3nub5qmaodl5n","prime","5dd35a387f1bbf35bd0d18b2","5f60e3c0a3b16e07647b2ff9","5f60eeb8ade02d000bc39921","false","null","<div style=""align-items: center; display: flex; color: darkorange; font-size: 90px""><b>ø</b></div>","null","","","","forget_cue","","","","","","","","","","","","","","","",""
"html-keyboard-response","137","564203","0.0-4.0-1.0-0.6","tl3nub5qmaodl5n","prime","5dd35a387f1bbf35bd0d18b2","5f60e3c0a3b16e07647b2ff9","5f60eeb8ade02d000bc39921","false","null","<span style=""color: black; font-size: 48px"">M + N</span>","null","","","","resp_prompt","","","","","","","","","","","","","","","",""
"categorize-image","138","564937","0.0-4.0-1.0-1.6","tl3nub5qmaodl5n","prime","5dd35a387f1bbf35bd0d18b2","5f60e3c0a3b16e07647b2ff9","5f60eeb8ade02d000bc39921","true","730.8699999994133","./Stimuli/SelectedImages/LN/LN111.bmp","76","","","","test","true","M + N","76","switch","LN","LN111.bmp","forget","","55","3","prime1","right","","","",""
"html-keyboard-response","139","566938","0.0-4.0-1.0-3.6","tl3nub5qmaodl5n","prime","5dd35a387f1bbf35bd0d18b2","5f60e3c0a3b16e07647b2ff9","5f60eeb8ade02d000bc39921","false","null","<div style=""align-items: center; display: flex; color: darkorange; font-size: 90px""><b>ø</b></div>","null","","","","forget_cue","","","","","","","","","","","","","","","",""
"html-keyboard-response","140","567639","0.0-4.0-1.0-0.7","tl3nub5qmaodl5n","prime","5dd35a387f1bbf35bd0d18b2","5f60e3c0a3b16e07647b2ff9","5f60eeb8ade02d000bc39921","false","null","<span style=""color: black; font-size: 48px"">N + M</span>","null","","","","resp_prompt","","","","","","","","","","","","","","","",""
"categorize-image","141","568402","0.0-4.0-1.0-1.7","tl3nub5qmaodl5n","prime","5dd35a387f1bbf35bd0d18b2","5f60e3c0a3b16e07647b2ff9","5f60eeb8ade02d000bc39921","true","759.9449999979697","./Stimuli/SelectedImages/LM/LM100.bmp","76","","","","test","true","N + M","76","repetition","LM","LM100.bmp","remember","","56","3","prime1","right","","","",""
"html-keyboard-response","142","570404","0.0-4.0-1.0-3.7","tl3nub5qmaodl5n","prime","5dd35a387f1bbf35bd0d18b2","5f60e3c0a3b16e07647b2ff9","5f60eeb8ade02d000bc39921","false","null","<div style=""align-items: center; display: flex; color: dodgerblue; font-size: 90px""><b>o</b></div>","null","","","","forget_cue","","","","","","","","","","","","","","","",""
"html-keyboard-response","143","571106","0.0-4.0-1.0-0.8","tl3nub5qmaodl5n","prime","5dd35a387f1bbf35bd0d18b2","5f60e3c0a3b16e07647b2ff9","5f60eeb8ade02d000bc39921","false","null","<span style=""color: black; font-size: 48px"">M + N</span>","null","","","","resp_prompt","","","","","","","","","","","","","","","",""
"categorize-image","144","571840","0.0-4.0-1.0-1.8","tl3nub5qmaodl5n","prime","5dd35a387f1bbf35bd0d18b2","5f60e3c0a3b16e07647b2ff9","5f60eeb8ade02d000bc39921","true","730.2900000067893","./Stimuli/SelectedImages/SN/SN64.bmp","76","","","","test","true","M + N","76","switch","SN","SN64.bmp","remember","","57","3","prime1","right","","","",""
"html-keyboard-response","145","573842","0.0-4.0-1.0-3.8","tl3nub5qmaodl5n","prime","5dd35a387f1bbf35bd0d18b2","5f60e3c0a3b16e07647b2ff9","5f60eeb8ade02d000bc39921","false","null","<div style=""align-items: center; display: flex; color: dodgerblue; font-size: 90px""><b>o</b></div>","null","","","","forget_cue","","","","","","","","","","","","","","","",""
"html-keyboard-response","146","574543","0.0-4.0-1.0-0.9","tl3nub5qmaodl5n","prime","5dd35a387f1bbf35bd0d18b2","5f60e3c0a3b16e07647b2ff9","5f60eeb8ade02d000bc39921","false","null","<span style=""color: black; font-size: 48px"">M + N</span>","null","","","","resp_prompt","","","","","","","","","","","","","","","",""
"categorize-image","147","575731","0.0-4.0-1.0-1.9","tl3nub5qmaodl5n","prime","5dd35a387f1bbf35bd0d18b2","5f60e3c0a3b16e07647b2ff9","5f60eeb8ade02d000bc39921","true","1185.219999984838","./Stimuli/SelectedImages/SM/SM207.bmp","83","","","","test","true","M + N","83","switch","SM","SM207.bmp","remember","","58","3","prime1","left","","","",""
"html-keyboard-response","148","577733","0.0-4.0-1.0-3.9","tl3nub5qmaodl5n","prime","5dd35a387f1bbf35bd0d18b2","5f60e3c0a3b16e07647b2ff9","5f60eeb8ade02d000bc39921","false","null","<div style=""align-items: center; display: flex; color: dodgerblue; font-size: 90px""><b>o</b></div>","null","","","","forget_cue","","","","","","","","","","","","","","","",""
"html-keyboard-response","149","578434","0.0-4.0-1.0-0.10","tl3nub5qmaodl5n","prime","5dd35a387f1bbf35bd0d18b2","5f60e3c0a3b16e07647b2ff9","5f60eeb8ade02d000bc39921","false","null","<span style=""color: black; font-size: 48px"">N + M</span>","null","","","","resp_prompt","","","","","","","","","","","","","","","",""
"categorize-image","150","579477","0.0-4.0-1.0-1.10","tl3nub5qmaodl5n","prime","5dd35a387f1bbf35bd0d18b2","5f60e3c0a3b16e07647b2ff9","5f60eeb8ade02d000bc39921","true","1039.42499999539","./Stimuli/SelectedImages/LN/LN82.bmp","83","","","","test","true","N + M","83","repetition","LN","LN82.bmp","remember","","59","3","prime1","left","","","",""
"html-keyboard-response","151","581478","0.0-4.0-1.0-3.10","tl3nub5qmaodl5n","prime","5dd35a387f1bbf35bd0d18b2","5f60e3c0a3b16e07647b2ff9","5f60eeb8ade02d000bc39921","false","null","<div style=""align-items: center; display: flex; color: dodgerblue; font-size: 90px""><b>o</b></div>","null","","","","forget_cue","","","","","","","","","","","","","","","",""
"html-keyboard-response","152","582180","0.0-4.0-1.0-0.11","tl3nub5qmaodl5n","prime","5dd35a387f1bbf35bd0d18b2","5f60e3c0a3b16e07647b2ff9","5f60eeb8ade02d000bc39921","false","null","<span style=""color: black; font-size: 48px"">N + M</span>","null","","","","resp_prompt","","","","","","","","","","","","","","","",""
"categorize-image","153","583079","0.0-4.0-1.0-1.11","tl3nub5qmaodl5n","prime","5dd35a387f1bbf35bd0d18b2","5f60e3c0a3b16e07647b2ff9","5f60eeb8ade02d000bc39921","true","896.294999984093","./Stimuli/SelectedImages/SM/SM128.bmp","76","","","","test","true","N + M","76","repetition","SM","SM128.bmp","remember","","60","3","prime1","right","","","",""
"html-keyboard-response","154","585081","0.0-4.0-1.0-3.11","tl3nub5qmaodl5n","prime","5dd35a387f1bbf35bd0d18b2","5f60e3c0a3b16e07647b2ff9","5f60eeb8ade02d000bc39921","false","null","<div style=""align-items: center; display: flex; color: dodgerblue; font-size: 90px""><b>o</b></div>","null","","","","forget_cue","","","","","","","","","","","","","","","",""
"html-keyboard-response","155","585781","0.0-4.0-1.0-0.12","tl3nub5qmaodl5n","prime","5dd35a387f1bbf35bd0d18b2","5f60e3c0a3b16e07647b2ff9","5f60eeb8ade02d000bc39921","false","null","<span style=""color: black; font-size: 48px"">N + M</span>","null","","","","resp_prompt","","","","","","","","","","","","","","","",""
"categorize-image","156","586446","0.0-4.0-1.0-1.12","tl3nub5qmaodl5n","prime","5dd35a387f1bbf35bd0d18b2","5f60e3c0a3b16e07647b2ff9","5f60eeb8ade02d000bc39921","true","661.8500000040513","./Stimuli/SelectedImages/SM/SM78.bmp","76","","","","test","true","N + M","76","switch","SM","SM78.bmp","remember","","61","3","prime1","right","","","",""
"html-keyboard-response","157","588447","0.0-4.0-1.0-3.12","tl3nub5qmaodl5n","prime","5dd35a387f1bbf35bd0d18b2","5f60e3c0a3b16e07647b2ff9","5f60eeb8ade02d000bc39921","false","null","<div style=""align-items: center; display: flex; color: dodgerblue; font-size: 90px""><b>o</b></div>","null","","","","forget_cue","","","","","","","","","","","","","","","",""
"html-keyboard-response","158","589149","0.0-4.0-1.0-0.13","tl3nub5qmaodl5n","prime","5dd35a387f1bbf35bd0d18b2","5f60e3c0a3b16e07647b2ff9","5f60eeb8ade02d000bc39921","false","null","<span style=""color: black; font-size: 48px"">M + N</span>","null","","","","resp_prompt","","","","","","","","","","","","","","","",""
"categorize-image","159","590308","0.0-4.0-1.0-1.13","tl3nub5qmaodl5n","prime","5dd35a387f1bbf35bd0d18b2","5f60e3c0a3b16e07647b2ff9","5f60eeb8ade02d000bc39921","true","1155.849999981001","./Stimuli/SelectedImages/SN/SN27.bmp","76","","","","test","true","M + N","76","repetition","SN","SN27.bmp","forget","","62","3","prime1","right","","","",""
"html-keyboard-response","160","592309","0.0-4.0-1.0-3.13","tl3nub5qmaodl5n","prime","5dd35a387f1bbf35bd0d18b2","5f60e3c0a3b16e07647b2ff9","5f60eeb8ade02d000bc39921","false","null","<div style=""align-items: center; display: flex; color: darkorange; font-size: 90px""><b>ø</b></div>","null","","","","forget_cue","","","","","","","","","","","","","","","",""
"html-keyboard-response","161","593011","0.0-4.0-1.0-0.14","tl3nub5qmaodl5n","prime","5dd35a387f1bbf35bd0d18b2","5f60e3c0a3b16e07647b2ff9","5f60eeb8ade02d000bc39921","false","null","<span style=""color: black; font-size: 48px"">M + N</span>","null","","","","resp_prompt","","","","","","","","","","","","","","","",""
"categorize-image","162","593798","0.0-4.0-1.0-1.14","tl3nub5qmaodl5n","prime","5dd35a387f1bbf35bd0d18b2","5f60e3c0a3b16e07647b2ff9","5f60eeb8ade02d000bc39921","true","784.8649999941699","./Stimuli/SelectedImages/LM/LM103.bmp","83","","","","test","true","M + N","83","switch","LM","LM103.bmp","remember","","63","3","prime1","left","","","",""
"html-keyboard-response","163","595800","0.0-4.0-1.0-3.14","tl3nub5qmaodl5n","prime","5dd35a387f1bbf35bd0d18b2","5f60e3c0a3b16e07647b2ff9","5f60eeb8ade02d000bc39921","false","null","<div style=""align-items: center; display: flex; color: dodgerblue; font-size: 90px""><b>o</b></div>","null","","","","forget_cue","","","","","","","","","","","","","","","",""
"html-keyboard-response","164","596502","0.0-4.0-1.0-0.15","tl3nub5qmaodl5n","prime","5dd35a387f1bbf35bd0d18b2","5f60e3c0a3b16e07647b2ff9","5f60eeb8ade02d000bc39921","false","null","<span style=""color: black; font-size: 48px"">N + M</span>","null","","","","resp_prompt","","","","","","","","","","","","","","","",""
"categorize-image","165","597269","0.0-4.0-1.0-1.15","tl3nub5qmaodl5n","prime","5dd35a387f1bbf35bd0d18b2","5f60e3c0a3b16e07647b2ff9","5f60eeb8ade02d000bc39921","true","764.1599999915343","./Stimuli/SelectedImages/LM/LM216.bmp","76","","","","test","true","N + M","76","repetition","LM","LM216.bmp","remember","","64","3","prime1","right","","","",""
"html-keyboard-response","166","599270","0.0-4.0-1.0-3.15","tl3nub5qmaodl5n","prime","5dd35a387f1bbf35bd0d18b2","5f60e3c0a3b16e07647b2ff9","5f60eeb8ade02d000bc39921","false","null","<div style=""align-items: center; display: flex; color: dodgerblue; font-size: 90px""><b>o</b></div>","null","","","","forget_cue","","","","","","","","","","","","","","","",""
"html-keyboard-response","167","599972","0.0-4.0-1.0-0.16","tl3nub5qmaodl5n","prime","5dd35a387f1bbf35bd0d18b2","5f60e3c0a3b16e07647b2ff9","5f60eeb8ade02d000bc39921","false","null","<span style=""color: black; font-size: 48px"">M + N</span>","null","","","","resp_prompt","","","","","","","","","","","","","","","",""
"categorize-image","168","600742","0.0-4.0-1.0-1.16","tl3nub5qmaodl5n","prime","5dd35a387f1bbf35bd0d18b2","5f60e3c0a3b16e07647b2ff9","5f60eeb8ade02d000bc39921","true","766.1650000081863","./Stimuli/SelectedImages/SN/SN155.bmp","76","","","","test","true","M + N","76","switch","SN","SN155.bmp","forget","","65","3","prime1","right","","","",""
"html-keyboard-response","169","602743","0.0-4.0-1.0-3.16","tl3nub5qmaodl5n","prime","5dd35a387f1bbf35bd0d18b2","5f60e3c0a3b16e07647b2ff9","5f60eeb8ade02d000bc39921","false","null","<div style=""align-items: center; display: flex; color: darkorange; font-size: 90px""><b>ø</b></div>","null","","","","forget_cue","","","","","","","","","","","","","","","",""
"html-keyboard-response","170","603444","0.0-4.0-1.0-0.17","tl3nub5qmaodl5n","prime","5dd35a387f1bbf35bd0d18b2","5f60e3c0a3b16e07647b2ff9","5f60eeb8ade02d000bc39921","false","null","<span style=""color: black; font-size: 48px"">M + N</span>","null","","","","resp_prompt","","","","","","","","","","","","","","","",""
"categorize-image","171","604077","0.0-4.0-1.0-1.17","tl3nub5qmaodl5n","prime","5dd35a387f1bbf35bd0d18b2","5f60e3c0a3b16e07647b2ff9","5f60eeb8ade02d000bc39921","true","629.7149999882095","./Stimuli/SelectedImages/SN/SN111.bmp","76","","","","test","true","M + N","76","repetition","SN","SN111.bmp","remember","","66","3","prime1","right","","","",""
"html-keyboard-response","172","606080","0.0-4.0-1.0-3.17","tl3nub5qmaodl5n","prime","5dd35a387f1bbf35bd0d18b2","5f60e3c0a3b16e07647b2ff9","5f60eeb8ade02d000bc39921","false","null","<div style=""align-items: center; display: flex; color: dodgerblue; font-size: 90px""><b>o</b></div>","null","","","","forget_cue","","","","","","","","","","","","","","","",""
"html-keyboard-response","173","606782","0.0-4.0-1.0-0.18","tl3nub5qmaodl5n","prime","5dd35a387f1bbf35bd0d18b2","5f60e3c0a3b16e07647b2ff9","5f60eeb8ade02d000bc39921","false","null","<span style=""color: black; font-size: 48px"">M + N</span>","null","","","","resp_prompt","","","","","","","","","","","","","","","",""
"categorize-image","174","607350","0.0-4.0-1.0-1.18","tl3nub5qmaodl5n","prime","5dd35a387f1bbf35bd0d18b2","5f60e3c0a3b16e07647b2ff9","5f60eeb8ade02d000bc39921","true","565.8500000135973","./Stimuli/SelectedImages/LM/LM179.bmp","83","","","","test","true","M + N","83","switch","LM","LM179.bmp","remember","","67","3","prime1","left","","","",""
"html-keyboard-response","175","609351","0.0-4.0-1.0-3.18","tl3nub5qmaodl5n","prime","5dd35a387f1bbf35bd0d18b2","5f60e3c0a3b16e07647b2ff9","5f60eeb8ade02d000bc39921","false","null","<div style=""align-items: center; display: flex; color: dodgerblue; font-size: 90px""><b>o</b></div>","null","","","","forget_cue","","","","","","","","","","","","","","","",""
"html-keyboard-response","176","610053","0.0-4.0-1.0-0.19","tl3nub5qmaodl5n","prime","5dd35a387f1bbf35bd0d18b2","5f60e3c0a3b16e07647b2ff9","5f60eeb8ade02d000bc39921","false","null","<span style=""color: black; font-size: 48px"">M + N</span>","null","","","","resp_prompt","","","","","","","","","","","","","","","",""
"categorize-image","177","610784","0.0-4.0-1.0-1.19","tl3nub5qmaodl5n","prime","5dd35a387f1bbf35bd0d18b2","5f60e3c0a3b16e07647b2ff9","5f60eeb8ade02d000bc39921","true","727.9649999982212","./Stimuli/SelectedImages/LM/LM48.bmp","83","","","","test","true","M + N","83","repetition","LM","LM48.bmp","forget","","68","3","prime1","left","","","",""
"html-keyboard-response","178","612785","0.0-4.0-1.0-3.19","tl3nub5qmaodl5n","prime","5dd35a387f1bbf35bd0d18b2","5f60e3c0a3b16e07647b2ff9","5f60eeb8ade02d000bc39921","false","null","<div style=""align-items: center; display: flex; color: darkorange; font-size: 90px""><b>ø</b></div>","null","","","","forget_cue","","","","","","","","","","","","","","","",""
"html-keyboard-response","179","613487","0.0-4.0-1.0-0.20","tl3nub5qmaodl5n","prime","5dd35a387f1bbf35bd0d18b2","5f60e3c0a3b16e07647b2ff9","5f60eeb8ade02d000bc39921","false","null","<span style=""color: black; font-size: 48px"">N + M</span>","null","","","","resp_prompt","","","","","","","","","","","","","","","",""
"categorize-image","180","614224","0.0-4.0-1.0-1.20","tl3nub5qmaodl5n","prime","5dd35a387f1bbf35bd0d18b2","5f60e3c0a3b16e07647b2ff9","5f60eeb8ade02d000bc39921","true","734.0650000260212","./Stimuli/SelectedImages/SN/SN140.bmp","83","","","","test","true","N + M","83","switch","SN","SN140.bmp","forget","","69","3","prime1","left","","","",""
"html-keyboard-response","181","616226","0.0-4.0-1.0-3.20","tl3nub5qmaodl5n","prime","5dd35a387f1bbf35bd0d18b2","5f60e3c0a3b16e07647b2ff9","5f60eeb8ade02d000bc39921","false","null","<div style=""align-items: center; display: flex; color: darkorange; font-size: 90px""><b>ø</b></div>","null","","","","forget_cue","","","","","","","","","","","","","","","",""
"html-keyboard-response","182","616927","0.0-4.0-1.0-0.21","tl3nub5qmaodl5n","prime","5dd35a387f1bbf35bd0d18b2","5f60e3c0a3b16e07647b2ff9","5f60eeb8ade02d000bc39921","false","null","<span style=""color: black; font-size: 48px"">M + N</span>","null","","","","resp_prompt","","","","","","","","","","","","","","","",""
"categorize-image","183","617584","0.0-4.0-1.0-1.21","tl3nub5qmaodl5n","prime","5dd35a387f1bbf35bd0d18b2","5f60e3c0a3b16e07647b2ff9","5f60eeb8ade02d000bc39921","true","653.874999989057","./Stimuli/SelectedImages/SM/SM73.bmp","83","","","","test","true","M + N","83","repetition","SM","SM73.bmp","remember","","70","3","prime1","left","","","",""
"html-keyboard-response","184","619586","0.0-4.0-1.0-3.21","tl3nub5qmaodl5n","prime","5dd35a387f1bbf35bd0d18b2","5f60e3c0a3b16e07647b2ff9","5f60eeb8ade02d000bc39921","false","null","<div style=""align-items: center; display: flex; color: dodgerblue; font-size: 90px""><b>o</b></div>","null","","","","forget_cue","","","","","","","","","","","","","","","",""
"html-keyboard-response","185","620287","0.0-4.0-1.0-0.22","tl3nub5qmaodl5n","prime","5dd35a387f1bbf35bd0d18b2","5f60e3c0a3b16e07647b2ff9","5f60eeb8ade02d000bc39921","false","null","<span style=""color: black; font-size: 48px"">N + M</span>","null","","","","resp_prompt","","","","","","","","","","","","","","","",""
"categorize-image","186","620839","0.0-4.0-1.0-1.22","tl3nub5qmaodl5n","prime","5dd35a387f1bbf35bd0d18b2","5f60e3c0a3b16e07647b2ff9","5f60eeb8ade02d000bc39921","true","548.689999995986","./Stimuli/SelectedImages/SN/SN128.bmp","83","","","","test","true","N + M","83","switch","SN","SN128.bmp","remember","","71","3","prime1","left","","","",""
"html-keyboard-response","187","622841","0.0-4.0-1.0-3.22","tl3nub5qmaodl5n","prime","5dd35a387f1bbf35bd0d18b2","5f60e3c0a3b16e07647b2ff9","5f60eeb8ade02d000bc39921","false","null","<div style=""align-items: center; display: flex; color: dodgerblue; font-size: 90px""><b>o</b></div>","null","","","","forget_cue","","","","","","","","","","","","","","","",""
"html-keyboard-response","188","623543","0.0-4.0-1.0-0.23","tl3nub5qmaodl5n","prime","5dd35a387f1bbf35bd0d18b2","5f60e3c0a3b16e07647b2ff9","5f60eeb8ade02d000bc39921","false","null","<span style=""color: black; font-size: 48px"">N + M</span>","null","","","","resp_prompt","","","","","","","","","","","","","","","",""
"categorize-image","189","624303","0.0-4.0-1.0-1.23","tl3nub5qmaodl5n","prime","5dd35a387f1bbf35bd0d18b2","5f60e3c0a3b16e07647b2ff9","5f60eeb8ade02d000bc39921","true","758.2399999955669","./Stimuli/SelectedImages/LM/LM235.bmp","76","","","","test","true","N + M","76","switch","LM","LM235.bmp","forget","","72","3","prime1","right","","","",""
"html-keyboard-response","190","626306","0.0-4.0-1.0-3.23","tl3nub5qmaodl5n","prime","5dd35a387f1bbf35bd0d18b2","5f60e3c0a3b16e07647b2ff9","5f60eeb8ade02d000bc39921","false","null","<div style=""align-items: center; display: flex; color: darkorange; font-size: 90px""><b>ø</b></div>","null","","","","forget_cue","","","","","","","","","","","","","","","",""
"html-keyboard-response","191","627007","0.0-4.0-1.0-0.24","tl3nub5qmaodl5n","prime","5dd35a387f1bbf35bd0d18b2","5f60e3c0a3b16e07647b2ff9","5f60eeb8ade02d000bc39921","false","null","<span style=""color: black; font-size: 48px"">N + M</span>","null","","","","resp_prompt","","","","","","","","","","","","","","","",""
"categorize-image","192","627720","0.0-4.0-1.0-1.24","tl3nub5qmaodl5n","prime","5dd35a387f1bbf35bd0d18b2","5f60e3c0a3b16e07647b2ff9","5f60eeb8ade02d000bc39921","true","710.0650000211317","./Stimuli/SelectedImages/SN/SN49.bmp","83","","","","test","true","N + M","83","repetition","SN","SN49.bmp","forget","","73","3","prime1","left","","","",""
"html-keyboard-response","193","629722","0.0-4.0-1.0-3.24","tl3nub5qmaodl5n","prime","5dd35a387f1bbf35bd0d18b2","5f60e3c0a3b16e07647b2ff9","5f60eeb8ade02d000bc39921","false","null","<div style=""align-items: center; display: flex; color: darkorange; font-size: 90px""><b>ø</b></div>","null","","","","forget_cue","","","","","","","","","","","","","","","",""
"html-keyboard-response","194","630423","0.0-4.0-1.0-0.25","tl3nub5qmaodl5n","prime","5dd35a387f1bbf35bd0d18b2","5f60e3c0a3b16e07647b2ff9","5f60eeb8ade02d000bc39921","false","null","<span style=""color: black; font-size: 48px"">M + N</span>","null","","","","resp_prompt","","","","","","","","","","","","","","","",""
"categorize-image","195","631730","0.0-4.0-1.0-1.25","tl3nub5qmaodl5n","prime","5dd35a387f1bbf35bd0d18b2","5f60e3c0a3b16e07647b2ff9","5f60eeb8ade02d000bc39921","true","1305.0050000019837","./Stimuli/SelectedImages/SN/SN93.bmp","83","","","","test","false","M + N","76","repetition","SN","SN93.bmp","remember","","74","3","prime1","left","","","",""
"html-keyboard-response","196","632232","0.0-4.0-1.0-2.25-0.25","tl3nub5qmaodl5n","prime","5dd35a387f1bbf35bd0d18b2","5f60e3c0a3b16e07647b2ff9","5f60eeb8ade02d000bc39921","false","null","<span style=""color: red; font-size: 48px"">Error!</span>","null","","","","feedback","","","","","","","","","","","","","","","",""
"html-keyboard-response","197","634234","0.0-4.0-1.0-3.25","tl3nub5qmaodl5n","prime","5dd35a387f1bbf35bd0d18b2","5f60e3c0a3b16e07647b2ff9","5f60eeb8ade02d000bc39921","false","null","<div style=""align-items: center; display: flex; color: dodgerblue; font-size: 90px""><b>o</b></div>","null","","","","forget_cue","","","","","","","","","","","","","","","",""
"html-keyboard-response","198","634937","0.0-4.0-1.0-0.26","tl3nub5qmaodl5n","prime","5dd35a387f1bbf35bd0d18b2","5f60e3c0a3b16e07647b2ff9","5f60eeb8ade02d000bc39921","false","null","<span style=""color: black; font-size: 48px"">N + M</span>","null","","","","resp_prompt","","","","","","","","","","","","","","","",""
"categorize-image","199","635661","0.0-4.0-1.0-1.26","tl3nub5qmaodl5n","prime","5dd35a387f1bbf35bd0d18b2","5f60e3c0a3b16e07647b2ff9","5f60eeb8ade02d000bc39921","true","722.0199999865144","./Stimuli/SelectedImages/LM/LM129.bmp","76","","","","test","true","N + M","76","repetition","LM","LM129.bmp","forget","","75","3","prime1","right","","","",""
"html-keyboard-response","200","637663","0.0-4.0-1.0-3.26","tl3nub5qmaodl5n","prime","5dd35a387f1bbf35bd0d18b2","5f60e3c0a3b16e07647b2ff9","5f60eeb8ade02d000bc39921","false","null","<div style=""align-items: center; display: flex; color: darkorange; font-size: 90px""><b>ø</b></div>","null","","","","forget_cue","","","","","","","","","","","","","","","",""
"html-keyboard-response","201","638364","0.0-4.0-1.0-0.27","tl3nub5qmaodl5n","prime","5dd35a387f1bbf35bd0d18b2","5f60e3c0a3b16e07647b2ff9","5f60eeb8ade02d000bc39921","false","null","<span style=""color: black; font-size: 48px"">M + N</span>","null","","","","resp_prompt","","","","","","","","","","","","","","","",""
"categorize-image","202","639106","0.0-4.0-1.0-1.27","tl3nub5qmaodl5n","prime","5dd35a387f1bbf35bd0d18b2","5f60e3c0a3b16e07647b2ff9","5f60eeb8ade02d000bc39921","true","740.0199999974575","./Stimuli/SelectedImages/LN/LN101.bmp","76","","","","test","true","M + N","76","switch","LN","LN101.bmp","remember","","76","3","prime1","right","","","",""
"html-keyboard-response","203","641107","0.0-4.0-1.0-3.27","tl3nub5qmaodl5n","prime","5dd35a387f1bbf35bd0d18b2","5f60e3c0a3b16e07647b2ff9","5f60eeb8ade02d000bc39921","false","null","<div style=""align-items: center; display: flex; color: dodgerblue; font-size: 90px""><b>o</b></div>","null","","","","forget_cue","","","","","","","","","","","","","","","",""
"html-keyboard-response","204","641808","0.0-4.0-1.0-0.28","tl3nub5qmaodl5n","prime","5dd35a387f1bbf35bd0d18b2","5f60e3c0a3b16e07647b2ff9","5f60eeb8ade02d000bc39921","false","null","<span style=""color: black; font-size: 48px"">N + M</span>","null","","","","resp_prompt","","","","","","","","","","","","","","","",""
"categorize-image","205","642523","0.0-4.0-1.0-1.28","tl3nub5qmaodl5n","prime","5dd35a387f1bbf35bd0d18b2","5f60e3c0a3b16e07647b2ff9","5f60eeb8ade02d000bc39921","true","712.2249999956694","./Stimuli/SelectedImages/LN/LN131.bmp","83","","","","test","true","N + M","83","repetition","LN","LN131.bmp","remember","","77","3","prime1","left","","","",""
"html-keyboard-response","206","644525","0.0-4.0-1.0-3.28","tl3nub5qmaodl5n","prime","5dd35a387f1bbf35bd0d18b2","5f60e3c0a3b16e07647b2ff9","5f60eeb8ade02d000bc39921","false","null","<div style=""align-items: center; display: flex; color: dodgerblue; font-size: 90px""><b>o</b></div>","null","","","","forget_cue","","","","","","","","","","","","","","","",""
"html-keyboard-response","207","645227","0.0-4.0-1.0-0.29","tl3nub5qmaodl5n","prime","5dd35a387f1bbf35bd0d18b2","5f60e3c0a3b16e07647b2ff9","5f60eeb8ade02d000bc39921","false","null","<span style=""color: black; font-size: 48px"">M + N</span>","null","","","","resp_prompt","","","","","","","","","","","","","","","",""
"categorize-image","208","645865","0.0-4.0-1.0-1.29","tl3nub5qmaodl5n","prime","5dd35a387f1bbf35bd0d18b2","5f60e3c0a3b16e07647b2ff9","5f60eeb8ade02d000bc39921","true","635.6549999909475","./Stimuli/SelectedImages/LN/LN166.bmp","76","","","","test","true","M + N","76","repetition","LN","LN166.bmp","forget","","78","3","prime1","right","","","",""
"html-keyboard-response","209","647866","0.0-4.0-1.0-3.29","tl3nub5qmaodl5n","prime","5dd35a387f1bbf35bd0d18b2","5f60e3c0a3b16e07647b2ff9","5f60eeb8ade02d000bc39921","false","null","<div style=""align-items: center; display: flex; color: darkorange; font-size: 90px""><b>ø</b></div>","null","","","","forget_cue","","","","","","","","","","","","","","","",""
"html-keyboard-response","210","648567","0.0-4.0-1.0-0.30","tl3nub5qmaodl5n","prime","5dd35a387f1bbf35bd0d18b2","5f60e3c0a3b16e07647b2ff9","5f60eeb8ade02d000bc39921","false","null","<span style=""color: black; font-size: 48px"">N + M</span>","null","","","","resp_prompt","","","","","","","","","","","","","","","",""
"categorize-image","211","649321","0.0-4.0-1.0-1.30","tl3nub5qmaodl5n","prime","5dd35a387f1bbf35bd0d18b2","5f60e3c0a3b16e07647b2ff9","5f60eeb8ade02d000bc39921","true","751.1100000119768","./Stimuli/SelectedImages/LM/LM209.bmp","76","","","","test","true","N + M","76","switch","LM","LM209.bmp","remember","","79","3","prime1","right","","","",""
"html-keyboard-response","212","651322","0.0-4.0-1.0-3.30","tl3nub5qmaodl5n","prime","5dd35a387f1bbf35bd0d18b2","5f60e3c0a3b16e07647b2ff9","5f60eeb8ade02d000bc39921","false","null","<div style=""align-items: center; display: flex; color: dodgerblue; font-size: 90px""><b>o</b></div>","null","","","","forget_cue","","","","","","","","","","","","","","","",""
"html-keyboard-response","213","652024","0.0-4.0-1.0-0.31","tl3nub5qmaodl5n","prime","5dd35a387f1bbf35bd0d18b2","5f60e3c0a3b16e07647b2ff9","5f60eeb8ade02d000bc39921","false","null","<span style=""color: black; font-size: 48px"">N + M</span>","null","","","","resp_prompt","","","","","","","","","","","","","","","",""
"categorize-image","214","652660","0.0-4.0-1.0-1.31","tl3nub5qmaodl5n","prime","5dd35a387f1bbf35bd0d18b2","5f60e3c0a3b16e07647b2ff9","5f60eeb8ade02d000bc39921","true","633.4750000096392","./Stimuli/SelectedImages/SM/SM205.bmp","76","","","","test","true","N + M","76","repetition","SM","SM205.bmp","forget","","80","3","prime1","right","","","",""
"html-keyboard-response","215","654662","0.0-4.0-1.0-3.31","tl3nub5qmaodl5n","prime","5dd35a387f1bbf35bd0d18b2","5f60e3c0a3b16e07647b2ff9","5f60eeb8ade02d000bc39921","false","null","<div style=""align-items: center; display: flex; color: darkorange; font-size: 90px""><b>ø</b></div>","null","","","","forget_cue","","","","","","","","","","","","","","","",""
"html-keyboard-response","216","655364","0.0-4.0-1.0-0.32","tl3nub5qmaodl5n","prime","5dd35a387f1bbf35bd0d18b2","5f60e3c0a3b16e07647b2ff9","5f60eeb8ade02d000bc39921","false","null","<span style=""color: black; font-size: 48px"">M + N</span>","null","","","","resp_prompt","","","","","","","","","","","","","","","",""
"categorize-image","217","656177","0.0-4.0-1.0-1.32","tl3nub5qmaodl5n","prime","5dd35a387f1bbf35bd0d18b2","5f60e3c0a3b16e07647b2ff9","5f60eeb8ade02d000bc39921","true","810.910000000149","./Stimuli/SelectedImages/SM/SM200.bmp","76","","","","test","false","M + N","83","repetition","SM","SM200.bmp","remember","","81","3","prime1","right","","","",""
"html-keyboard-response","218","656680","0.0-4.0-1.0-2.32-0.32","tl3nub5qmaodl5n","prime","5dd35a387f1bbf35bd0d18b2","5f60e3c0a3b16e07647b2ff9","5f60eeb8ade02d000bc39921","false","null","<span style=""color: red; font-size: 48px"">Error!</span>","null","","","","feedback","","","","","","","","","","","","","","","",""
"html-keyboard-response","219","658681","0.0-4.0-1.0-3.32","tl3nub5qmaodl5n","prime","5dd35a387f1bbf35bd0d18b2","5f60e3c0a3b16e07647b2ff9","5f60eeb8ade02d000bc39921","false","null","<div style=""align-items: center; display: flex; color: dodgerblue; font-size: 90px""><b>o</b></div>","null","","","","forget_cue","","","","","","","","","","","","","","","",""
"html-keyboard-response","220","659383","0.0-4.0-1.0-0.33","tl3nub5qmaodl5n","prime","5dd35a387f1bbf35bd0d18b2","5f60e3c0a3b16e07647b2ff9","5f60eeb8ade02d000bc39921","false","null","<span style=""color: black; font-size: 48px"">M + N</span>","null","","","","resp_prompt","","","","","","","","","","","","","","","",""
"categorize-image","221","660031","0.0-4.0-1.0-1.33","tl3nub5qmaodl5n","prime","5dd35a387f1bbf35bd0d18b2","5f60e3c0a3b16e07647b2ff9","5f60eeb8ade02d000bc39921","true","645.2099999878556","./Stimuli/SelectedImages/LN/LN177.bmp","76","","","","test","true","M + N","76","repetition","LN","LN177.bmp","remember","","82","3","prime1","right","","","",""
"html-keyboard-response","222","662032","0.0-4.0-1.0-3.33","tl3nub5qmaodl5n","prime","5dd35a387f1bbf35bd0d18b2","5f60e3c0a3b16e07647b2ff9","5f60eeb8ade02d000bc39921","false","null","<div style=""align-items: center; display: flex; color: dodgerblue; font-size: 90px""><b>o</b></div>","null","","","","forget_cue","","","","","","","","","","","","","","","",""
"html-keyboard-response","223","662734","0.0-4.0-1.0-0.34","tl3nub5qmaodl5n","prime","5dd35a387f1bbf35bd0d18b2","5f60e3c0a3b16e07647b2ff9","5f60eeb8ade02d000bc39921","false","null","<span style=""color: black; font-size: 48px"">M + N</span>","null","","","","resp_prompt","","","","","","","","","","","","","","","",""
"categorize-image","224","663346","0.0-4.0-1.0-1.34","tl3nub5qmaodl5n","prime","5dd35a387f1bbf35bd0d18b2","5f60e3c0a3b16e07647b2ff9","5f60eeb8ade02d000bc39921","true","607.4000000080559","./Stimuli/SelectedImages/LM/LM59.bmp","83","","","","test","true","M + N","83","repetition","LM","LM59.bmp","forget","","83","3","prime1","left","","","",""
"html-keyboard-response","225","665347","0.0-4.0-1.0-3.34","tl3nub5qmaodl5n","prime","5dd35a387f1bbf35bd0d18b2","5f60e3c0a3b16e07647b2ff9","5f60eeb8ade02d000bc39921","false","null","<div style=""align-items: center; display: flex; color: darkorange; font-size: 90px""><b>ø</b></div>","null","","","","forget_cue","","","","","","","","","","","","","","","",""
"html-keyboard-response","226","666048","0.0-4.0-1.0-0.35","tl3nub5qmaodl5n","prime","5dd35a387f1bbf35bd0d18b2","5f60e3c0a3b16e07647b2ff9","5f60eeb8ade02d000bc39921","false","null","<span style=""color: black; font-size: 48px"">N + M</span>","null","","","","resp_prompt","","","","","","","","","","","","","","","",""
"categorize-image","227","666829","0.0-4.0-1.0-1.35","tl3nub5qmaodl5n","prime","5dd35a387f1bbf35bd0d18b2","5f60e3c0a3b16e07647b2ff9","5f60eeb8ade02d000bc39921","true","778.7800000223797","./Stimuli/SelectedImages/SN/SN181.bmp","83","","","","test","true","N + M","83","repetition","SN","SN181.bmp","remember","","84","3","prime1","left","","","",""
"html-keyboard-response","228","668831","0.0-4.0-1.0-3.35","tl3nub5qmaodl5n","prime","5dd35a387f1bbf35bd0d18b2","5f60e3c0a3b16e07647b2ff9","5f60eeb8ade02d000bc39921","false","null","<div style=""align-items: center; display: flex; color: dodgerblue; font-size: 90px""><b>o</b></div>","null","","","","forget_cue","","","","","","","","","","","","","","","",""
"html-keyboard-response","229","669533","0.0-4.0-1.0-0.36","tl3nub5qmaodl5n","prime","5dd35a387f1bbf35bd0d18b2","5f60e3c0a3b16e07647b2ff9","5f60eeb8ade02d000bc39921","false","null","<span style=""color: black; font-size: 48px"">M + N</span>","null","","","","resp_prompt","","","","","","","","","","","","","","","",""
"categorize-image","230","670163","0.0-4.0-1.0-1.36","tl3nub5qmaodl5n","prime","5dd35a387f1bbf35bd0d18b2","5f60e3c0a3b16e07647b2ff9","5f60eeb8ade02d000bc39921","true","627.0300000032876","./Stimuli/SelectedImages/SM/SM195.bmp","83","","","","test","true","M + N","83","switch","SM","SM195.bmp","remember","","85","3","prime1","left","","","",""
"html-keyboard-response","231","672165","0.0-4.0-1.0-3.36","tl3nub5qmaodl5n","prime","5dd35a387f1bbf35bd0d18b2","5f60e3c0a3b16e07647b2ff9","5f60eeb8ade02d000bc39921","false","null","<div style=""align-items: center; display: flex; color: dodgerblue; font-size: 90px""><b>o</b></div>","null","","","","forget_cue","","","","","","","","","","","","","","","",""
"html-keyboard-response","232","672867","0.0-4.0-1.0-0.37","tl3nub5qmaodl5n","prime","5dd35a387f1bbf35bd0d18b2","5f60e3c0a3b16e07647b2ff9","5f60eeb8ade02d000bc39921","false","null","<span style=""color: black; font-size: 48px"">M + N</span>","null","","","","resp_prompt","","","","","","","","","","","","","","","",""
"categorize-image","233","673621","0.0-4.0-1.0-1.37","tl3nub5qmaodl5n","prime","5dd35a387f1bbf35bd0d18b2","5f60e3c0a3b16e07647b2ff9","5f60eeb8ade02d000bc39921","true","751.5799999819137","./Stimuli/SelectedImages/SN/SN18.bmp","76","","","","test","true","M + N","76","repetition","SN","SN18.bmp","forget","","86","3","prime1","right","","","",""
"html-keyboard-response","234","675622","0.0-4.0-1.0-3.37","tl3nub5qmaodl5n","prime","5dd35a387f1bbf35bd0d18b2","5f60e3c0a3b16e07647b2ff9","5f60eeb8ade02d000bc39921","false","null","<div style=""align-items: center; display: flex; color: darkorange; font-size: 90px""><b>ø</b></div>","null","","","","forget_cue","","","","","","","","","","","","","","","",""
"html-keyboard-response","235","676324","0.0-4.0-1.0-0.38","tl3nub5qmaodl5n","prime","5dd35a387f1bbf35bd0d18b2","5f60e3c0a3b16e07647b2ff9","5f60eeb8ade02d000bc39921","false","null","<span style=""color: black; font-size: 48px"">M + N</span>","null","","","","resp_prompt","","","","","","","","","","","","","","","",""
"categorize-image","236","676937","0.0-4.0-1.0-1.38","tl3nub5qmaodl5n","prime","5dd35a387f1bbf35bd0d18b2","5f60e3c0a3b16e07647b2ff9","5f60eeb8ade02d000bc39921","true","610.4550000163727","./Stimuli/SelectedImages/SM/SM24.bmp","83","","","","test","true","M + N","83","repetition","SM","SM24.bmp","forget","","87","3","prime1","left","","","",""
"html-keyboard-response","237","678939","0.0-4.0-1.0-3.38","tl3nub5qmaodl5n","prime","5dd35a387f1bbf35bd0d18b2","5f60e3c0a3b16e07647b2ff9","5f60eeb8ade02d000bc39921","false","null","<div style=""align-items: center; display: flex; color: darkorange; font-size: 90px""><b>ø</b></div>","null","","","","forget_cue","","","","","","","","","","","","","","","",""
"html-keyboard-response","238","679640","0.0-4.0-1.0-0.39","tl3nub5qmaodl5n","prime","5dd35a387f1bbf35bd0d18b2","5f60e3c0a3b16e07647b2ff9","5f60eeb8ade02d000bc39921","false","null","<span style=""color: black; font-size: 48px"">N + M</span>","null","","","","resp_prompt","","","","","","","","","","","","","","","",""
"categorize-image","239","680371","0.0-4.0-1.0-1.39","tl3nub5qmaodl5n","prime","5dd35a387f1bbf35bd0d18b2","5f60e3c0a3b16e07647b2ff9","5f60eeb8ade02d000bc39921","true","728.0299999983981","./Stimuli/SelectedImages/SM/SM148.bmp","76","","","","test","true","N + M","76","repetition","SM","SM148.bmp","remember","","88","3","prime1","right","","","",""
"html-keyboard-response","240","682373","0.0-4.0-1.0-3.39","tl3nub5qmaodl5n","prime","5dd35a387f1bbf35bd0d18b2","5f60e3c0a3b16e07647b2ff9","5f60eeb8ade02d000bc39921","false","null","<div style=""align-items: center; display: flex; color: dodgerblue; font-size: 90px""><b>o</b></div>","null","","","","forget_cue","","","","","","","","","","","","","","","",""
"html-keyboard-response","241","683076","0.0-4.0-1.0-0.40","tl3nub5qmaodl5n","prime","5dd35a387f1bbf35bd0d18b2","5f60e3c0a3b16e07647b2ff9","5f60eeb8ade02d000bc39921","false","null","<span style=""color: black; font-size: 48px"">N + M</span>","null","","","","resp_prompt","","","","","","","","","","","","","","","",""
"categorize-image","242","683616","0.0-4.0-1.0-1.40","tl3nub5qmaodl5n","prime","5dd35a387f1bbf35bd0d18b2","5f60e3c0a3b16e07647b2ff9","5f60eeb8ade02d000bc39921","true","537.8649999911431","./Stimuli/SelectedImages/LN/LN13.bmp","83","","","","test","true","N + M","83","switch","LN","LN13.bmp","forget","","89","3","prime1","left","","","",""
"html-keyboard-response","243","685618","0.0-4.0-1.0-3.40","tl3nub5qmaodl5n","prime","5dd35a387f1bbf35bd0d18b2","5f60e3c0a3b16e07647b2ff9","5f60eeb8ade02d000bc39921","false","null","<div style=""align-items: center; display: flex; color: darkorange; font-size: 90px""><b>ø</b></div>","null","","","","forget_cue","","","","","","","","","","","","","","","",""
"html-keyboard-response","244","686319","0.0-4.0-1.0-0.41","tl3nub5qmaodl5n","prime","5dd35a387f1bbf35bd0d18b2","5f60e3c0a3b16e07647b2ff9","5f60eeb8ade02d000bc39921","false","null","<span style=""color: black; font-size: 48px"">M + N</span>","null","","","","resp_prompt","","","","","","","","","","","","","","","",""
"categorize-image","245","686914","0.0-4.0-1.0-1.41","tl3nub5qmaodl5n","prime","5dd35a387f1bbf35bd0d18b2","5f60e3c0a3b16e07647b2ff9","5f60eeb8ade02d000bc39921","true","593.1850000051782","./Stimuli/SelectedImages/LN/LN12.bmp","76","","","","test","true","M + N","76","repetition","LN","LN12.bmp","forget","","90","3","prime1","right","","","",""
"html-keyboard-response","246","688916","0.0-4.0-1.0-3.41","tl3nub5qmaodl5n","prime","5dd35a387f1bbf35bd0d18b2","5f60e3c0a3b16e07647b2ff9","5f60eeb8ade02d000bc39921","false","null","<div style=""align-items: center; display: flex; color: darkorange; font-size: 90px""><b>ø</b></div>","null","","","","forget_cue","","","","","","","","","","","","","","","",""
"html-keyboard-response","247","689618","0.0-4.0-1.0-0.42","tl3nub5qmaodl5n","prime","5dd35a387f1bbf35bd0d18b2","5f60e3c0a3b16e07647b2ff9","5f60eeb8ade02d000bc39921","false","null","<span style=""color: black; font-size: 48px"">M + N</span>","null","","","","resp_prompt","","","","","","","","","","","","","","","",""
"categorize-image","248","690219","0.0-4.0-1.0-1.42","tl3nub5qmaodl5n","prime","5dd35a387f1bbf35bd0d18b2","5f60e3c0a3b16e07647b2ff9","5f60eeb8ade02d000bc39921","true","598.5299999883864","./Stimuli/SelectedImages/LM/LM51.bmp","83","","","","test","true","M + N","83","switch","LM","LM51.bmp","forget","","91","3","prime1","left","","","",""
"html-keyboard-response","249","692220","0.0-4.0-1.0-3.42","tl3nub5qmaodl5n","prime","5dd35a387f1bbf35bd0d18b2","5f60e3c0a3b16e07647b2ff9","5f60eeb8ade02d000bc39921","false","null","<div style=""align-items: center; display: flex; color: darkorange; font-size: 90px""><b>ø</b></div>","null","","","","forget_cue","","","","","","","","","","","","","","","",""
"html-keyboard-response","250","692922","0.0-4.0-1.0-0.43","tl3nub5qmaodl5n","prime","5dd35a387f1bbf35bd0d18b2","5f60e3c0a3b16e07647b2ff9","5f60eeb8ade02d000bc39921","false","null","<span style=""color: black; font-size: 48px"">M + N</span>","null","","","","resp_prompt","","","","","","","","","","","","","","","",""
"categorize-image","251","693661","0.0-4.0-1.0-1.43","tl3nub5qmaodl5n","prime","5dd35a387f1bbf35bd0d18b2","5f60e3c0a3b16e07647b2ff9","5f60eeb8ade02d000bc39921","true","736.2700000230689","./Stimuli/SelectedImages/LN/LN9.bmp","76","","","","test","true","M + N","76","repetition","LN","LN9.bmp","remember","","92","3","prime1","right","","","",""
"html-keyboard-response","252","695662","0.0-4.0-1.0-3.43","tl3nub5qmaodl5n","prime","5dd35a387f1bbf35bd0d18b2","5f60e3c0a3b16e07647b2ff9","5f60eeb8ade02d000bc39921","false","null","<div style=""align-items: center; display: flex; color: dodgerblue; font-size: 90px""><b>o</b></div>","null","","","","forget_cue","","","","","","","","","","","","","","","",""
