"trial_type","trial_index","time_elapsed","internal_node_id","subject","exp_part","prolific_PID","study_ID","session_ID","use","rt","stimulus","key_press","button_pressed","responses","question_order","trial_part","correct","resp_map","correct_resp","probe_condition","category","image","forget_condition","list","trial_num","block_num","block","response","test_part","n_span","sequence","num_spaces"
"pavlovia","0","3","0.0-0.0","mr7ebs5rbr1c53k","","5f1f105f0d08f80a4388c3f8","5f5a55364e9b770ed21874ff","5f60d802d3c8f904f60dd1b9","false","","","","","","","","","","","","","","","","","","","","","","",""
"html-keyboard-response","1","29767","0.0-1.0-0.0-0.0","mr7ebs5rbr1c53k","welcome","5f1f105f0d08f80a4388c3f8","5f5a55364e9b770ed21874ff","5f60d802d3c8f904f60dd1b9","false","29761.41499914229","<div align=left>Dear participant, <br> thank you for participating in an online study of the Cognition, Action, and Sustainability Unit of the University of Freiburg! <br> <br>The aim of this study is to examine our ability to remember previously learned information. <br>Our goal is to find out, whether our memory improves, when we only remember information that is relevant to us. <br>The experiment will take about 30 minutes to complete. <br> <br>Please, note that you can only participate in this study if you are using a device with a keyboard (PC, Laptop etc.) <br>and not if you are using a mobile device such as a tablet or smartphone.<br> <br>Press 'SPACE' to proceed to the experiment. </div>","32","","","","","","","","","","","","","","","","","","","",""
"html-keyboard-response","2","31389","0.0-1.0-0.0-1.0","mr7ebs5rbr1c53k","welcome","5f1f105f0d08f80a4388c3f8","5f5a55364e9b770ed21874ff","5f60d802d3c8f904f60dd1b9","false","1620.8600010722876","<div align=left><strong> Time Course of this experiment: </strong> <br><br> <strong> 1.</strong>  First, please fill in some information regarding your demographic data. <br><br> <strong> 2.</strong>  Next, your task will be to classify everyday objects. <br>In addition, you will be asked to remember certain objects and recall them later. <br>Working on these tasks requires your undivided attention and concentration.<br>It is therefore essential that you eliminate any sources of distraction in your  <br>environment and ensure that you will not be disturbed. <br><br><strong> 3.</strong>  At the end of the experiment, you will be asked to answer a few additional questions. <br> <br><strong> Important:</strong> After finishing the experiment, only close the browser window <br> by clicking on the 'end the experiment'-button when you are asked to do so. <br>Closing the browser window prematurely will make the allocation of your participation credit impossible. <br><br> Press 'SPACE' to start the experiment. </div>","32","","","","","","","","","","","","","","","","","","","",""
"html-button-response","3","34688","0.0-1.0-0.0-2.0","mr7ebs5rbr1c53k","welcome","5f1f105f0d08f80a4388c3f8","5f5a55364e9b770ed21874ff","5f60d802d3c8f904f60dd1b9","true","3297.994999215007","<div align=left><strong> Informed consent </strong>  <br>The aim of our research is to better understand human behavior and mental processes. <br>In the following study your behavior (e.g. choices, reaction times) will be studied. <br> <br><strong> Voluntariness and Anonymity </strong> <br>Your participation in this study is  <strong> voluntary</strong>.<br>You may withdraw your consent to participate at any time without providing a reason for doing so and without fear of prejudice. <br><br>As no personal data will be collected, <strong>your data and your person cannot be connected after data collection</strong> – the data-set is anonymous. <br>Respectively, deletion of your data will not be possible after data collection has been completed, as we cannot retrace your data-set.<br>The results and anonymized data collected in this study will be published as a scientific publication. <br>This will happen in an <strong>anonymized format</strong>, so that no data can be traced back to a specific person. <br> <br>The anonymized data of this study will be made available to other researchers and/or in a data archive on the Internet as a means of transparency and to enable subsequent re-use. By doing so, this study follows the recommendations of the Deutsche Forschungsgemeinschaft (DFG, German Research Foundation) and Deutsche Gesellschaft für Psychologie (DGPS, German Psychological Society) regarding quality assurance in research.<br>If you have any questions now or after the experiment, please contact our team (experiments@cs.uni-freiburg.de).<br><br><br>I hereby declare, that I understand the above described conditions of participation and I agree to participate under these conditions. <br><br> </div>","","0","","","","","","","","","","","","","","","","","","",""
"html-keyboard-response","4","36227","0.0-1.0-0.0-3.0","mr7ebs5rbr1c53k","welcome","5f1f105f0d08f80a4388c3f8","5f5a55364e9b770ed21874ff","5f60d802d3c8f904f60dd1b9","false","1536.8550010025501","<div align=left><strong> General information concerning the experiment </strong>  <br> <br>Please follow the instructions:<ol> <li><strong> Do not leave this tab (your browser window) during the experiment and do not reload this tab! </strong>  <br>If you do switch tabs/windows during the experiment (to check your mail or visit another website, for example), <br>the experiment will end automatically and you will <strong>not receive credit</strong> for your participation. <br>Repeated participation or resumption of the experiment is impossible.</li> <br><li>Please close all other programs for the duration of your participation. </li> <br><li>Please mute or turn off your phone and put it out of your reach. </li> <br><li>Please also take off any disturbing accessories (such as wristwatches, bracelets, etc.). </li> <br><li>If you have music playing in the background, please turn it off now. </li> <br></ol>Thank you! <br>Press 'SPACE' to continue. </div>","32","","","","","","","","","","","","","","","","","","","",""
"survey-text","5","40160","0.0-1.0-1.0-0.0","mr7ebs5rbr1c53k","demographics","5f1f105f0d08f80a4388c3f8","5f5a55364e9b770ed21874ff","5f60d802d3c8f904f60dd1b9","true","3929.6599999070168","","","","{""age"":""18""}","","","","","","","","","","","","","","","","","",""
"survey-multi-choice","6","112004","0.0-1.0-1.0-1.0","mr7ebs5rbr1c53k","demographics","5f1f105f0d08f80a4388c3f8","5f5a55364e9b770ed21874ff","5f60d802d3c8f904f60dd1b9","true","71842.81999990344","","","","{""gender"":""female"",""school"":""others"",""education"":""High school graduate, diploma or equivalent""}","[0,1,2]","","","","","","","","","","","","","","","","",""
"html-keyboard-response","7","118475","0.0-1.0-2.0","mr7ebs5rbr1c53k","instructions","5f1f105f0d08f80a4388c3f8","5f5a55364e9b770ed21874ff","5f60d802d3c8f904f60dd1b9","false","6466.749999672174","<div align=left> The experiment is now about to start: <br> <br>In the following part, you will be presented pictures of everyday objects. <br>Your first task is to <strong>classify these objects. </strong> <br> <br> You will classify them either as mechanical or non-mechanical objects. <br> <br>Objects that include any kind of technical mechanism (for example, wheels, switches, levers, <br> electronic components) fall under the category of <strong>mechanical</strong> objects. <br>Only objects without any kind of technical mechanism should be classified as <strong>non-mechanical</strong>. <br><br>Press 'SPACE' to continue. </div>","32","","","","","","","","","","","","","","","","","","","",""
"html-keyboard-response","8","138858","0.0-2.0-0.0","mr7ebs5rbr1c53k","instructions","5f1f105f0d08f80a4388c3f8","5f5a55364e9b770ed21874ff","5f60d802d3c8f904f60dd1b9","false","20382.26999901235","<div align=justify>You will classify the objects using the <strong>'S'</strong> and the <strong>'L'</strong> keys on your keyboard.<br>For doing so, please place your <strong>left index finger</strong> on the <strong>'S'</strong> key and place your <strong>right index finger</strong> on the <strong>'L'</strong> key. <br><br> Each trial starts with an instruction, indicating which key ('S'/'L') you need to press to classify <br>the object as mechanical (letter M) or non-mechanical (letter N).<br>The instruction <strong>M + N</strong> indicates that, in the current trial, by pressing the left key ('S') you classify the displayed object as mechanical (M) <br> and by pressing the right key ('L') you classify the object as non-mechanical (N). <br>The instruction <strong>N + M</strong> on the other hand indicates that by pressing the left key ('S') you classify the displayed object as non-mechanical (N) <br> and by pressing the right key ('L') you classify the object as mechanical (M). <br><br>Please press the key corresponding to the correct classification as fast as possible as soon as the object is displayed and try to avoid making mistakes.<br>If you do not respond within a 2 second window, a corresponding feedback will be displayed and the next trial will start.<br> The experiment is divided into multiple blocks to give you the opportunity to take a break after each block. <br>First, you can now practice this task. <br><br>Please place your <strong>LEFT INDEX FINGER</strong> on the 'S' key and your <strong>RIGHT INDEX FINGER</strong> on the 'L' key now. <br><br>Press SPACE to continue.</div>","32","","","","","","","","","","","","","","","","","","","",""
"html-keyboard-response","9","145915","0.0-2.0-1.0","mr7ebs5rbr1c53k","instructions","5f1f105f0d08f80a4388c3f8","5f5a55364e9b770ed21874ff","5f60d802d3c8f904f60dd1b9","false","7056.184999644756","<div align=left> You will now have time to practice this task.<br><br>Remember: <br> <br><li>Please place your index fingers on the <strong>'S'</strong> and <strong>'L'</strong> keys <br>to respond as fast and accurately as possible.</li><li>Every picture can be classified as either mechanical or non-mechanical.</li><li>If you do not respond in time or commit an error, you will receive a corresponding feedback. </li><li> Please try to respond as <strong> fast </strong> and as <strong> accurately as possible </strong> .<br><li>To ensure optimal results, please minimize distractions and stay focused. </li><br><br>Press SPACE to continue.</div>","32","","","","","","","","","","","","","","","","","","","",""
"html-keyboard-response","10","146618","0.0-2.0-2.0-0.0","mr7ebs5rbr1c53k","practice_no_cue","5f1f105f0d08f80a4388c3f8","5f5a55364e9b770ed21874ff","5f60d802d3c8f904f60dd1b9","false","null","<span style=""color: black; font-size: 48px"">M + N</span>","null","","","","resp_prompt","","","","","","","","","","","","","","","",""
"categorize-image","11","148700","0.0-2.0-2.0-1.0","mr7ebs5rbr1c53k","practice_no_cue","5f1f105f0d08f80a4388c3f8","5f5a55364e9b770ed21874ff","5f60d802d3c8f904f60dd1b9","true","1577.7899995446205","./Stimuli/ImagesPractice/SN220.jpg","83","","","","test","false","M + N","76","","SN","SN220.jpg","forget","old","1","1","start","left","","","",""
"html-keyboard-response","12","149401","0.0-2.0-2.0-0.1","mr7ebs5rbr1c53k","practice_no_cue","5f1f105f0d08f80a4388c3f8","5f5a55364e9b770ed21874ff","5f60d802d3c8f904f60dd1b9","false","null","<span style=""color: black; font-size: 48px"">N + M</span>","null","","","","resp_prompt","","","","","","","","","","","","","","","",""
"categorize-image","13","150482","0.0-2.0-2.0-1.1","mr7ebs5rbr1c53k","practice_no_cue","5f1f105f0d08f80a4388c3f8","5f5a55364e9b770ed21874ff","5f60d802d3c8f904f60dd1b9","true","578.5299986600876","./Stimuli/ImagesPractice/LN109.jpg","76","","","","test","false","N + M","83","","LN","LN109.jpg","forget","old","2","1","start","right","","","",""
"html-keyboard-response","14","151183","0.0-2.0-2.0-0.2","mr7ebs5rbr1c53k","practice_no_cue","5f1f105f0d08f80a4388c3f8","5f5a55364e9b770ed21874ff","5f60d802d3c8f904f60dd1b9","false","null","<span style=""color: black; font-size: 48px"">M + N</span>","null","","","","resp_prompt","","","","","","","","","","","","","","","",""
"categorize-image","15","152552","0.0-2.0-2.0-1.2","mr7ebs5rbr1c53k","practice_no_cue","5f1f105f0d08f80a4388c3f8","5f5a55364e9b770ed21874ff","5f60d802d3c8f904f60dd1b9","true","867.289999499917","./Stimuli/ImagesPractice/LM143.jpg","76","","","","test","false","M + N","83","","LM","LM143.jpg","forget","old","3","1","start","right","","","",""
"html-keyboard-response","16","153254","0.0-2.0-2.0-0.3","mr7ebs5rbr1c53k","practice_no_cue","5f1f105f0d08f80a4388c3f8","5f5a55364e9b770ed21874ff","5f60d802d3c8f904f60dd1b9","false","null","<span style=""color: black; font-size: 48px"">M + N</span>","null","","","","resp_prompt","","","","","","","","","","","","","","","",""
"categorize-image","17","154629","0.0-2.0-2.0-1.3","mr7ebs5rbr1c53k","practice_no_cue","5f1f105f0d08f80a4388c3f8","5f5a55364e9b770ed21874ff","5f60d802d3c8f904f60dd1b9","true","872.834999114275","./Stimuli/ImagesPractice/SN205.jpg","83","","","","test","false","M + N","76","","SN","SN205.jpg","remember","old","4","1","start","left","","","",""
"html-keyboard-response","18","155331","0.0-2.0-2.0-0.4","mr7ebs5rbr1c53k","practice_no_cue","5f1f105f0d08f80a4388c3f8","5f5a55364e9b770ed21874ff","5f60d802d3c8f904f60dd1b9","false","null","<span style=""color: black; font-size: 48px"">N + M</span>","null","","","","resp_prompt","","","","","","","","","","","","","","","",""
"categorize-image","19","157835","0.0-2.0-2.0-1.4","mr7ebs5rbr1c53k","practice_no_cue","5f1f105f0d08f80a4388c3f8","5f5a55364e9b770ed21874ff","5f60d802d3c8f904f60dd1b9","true","null","./Stimuli/ImagesPractice/SN222.jpg","null","","","","test","false","N + M","83","","SN","SN222.jpg","forget","old","5","1","start","too_slow","","","",""
"html-keyboard-response","20","158537","0.0-2.0-2.0-0.5","mr7ebs5rbr1c53k","practice_no_cue","5f1f105f0d08f80a4388c3f8","5f5a55364e9b770ed21874ff","5f60d802d3c8f904f60dd1b9","false","null","<span style=""color: black; font-size: 48px"">N + M</span>","null","","","","resp_prompt","","","","","","","","","","","","","","","",""
"categorize-image","21","161041","0.0-2.0-2.0-1.5","mr7ebs5rbr1c53k","practice_no_cue","5f1f105f0d08f80a4388c3f8","5f5a55364e9b770ed21874ff","5f60d802d3c8f904f60dd1b9","true","null","./Stimuli/ImagesPractice/LN15.jpg","null","","","","test","false","N + M","83","","LN","LN15.jpg","remember","old","6","1","start","too_slow","","","",""
"html-keyboard-response","22","161742","0.0-2.0-2.0-0.6","mr7ebs5rbr1c53k","practice_no_cue","5f1f105f0d08f80a4388c3f8","5f5a55364e9b770ed21874ff","5f60d802d3c8f904f60dd1b9","false","null","<span style=""color: black; font-size: 48px"">N + M</span>","null","","","","resp_prompt","","","","","","","","","","","","","","","",""
"categorize-image","23","164245","0.0-2.0-2.0-1.6","mr7ebs5rbr1c53k","practice_no_cue","5f1f105f0d08f80a4388c3f8","5f5a55364e9b770ed21874ff","5f60d802d3c8f904f60dd1b9","true","null","./Stimuli/ImagesPractice/LN4.jpg","null","","","","test","false","N + M","83","","LN","LN4.jpg","remember","old","7","1","start","too_slow","","","",""
"html-keyboard-response","24","164947","0.0-2.0-2.0-0.7","mr7ebs5rbr1c53k","practice_no_cue","5f1f105f0d08f80a4388c3f8","5f5a55364e9b770ed21874ff","5f60d802d3c8f904f60dd1b9","false","null","<span style=""color: black; font-size: 48px"">M + N</span>","null","","","","resp_prompt","","","","","","","","","","","","","","","",""
"categorize-image","25","167451","0.0-2.0-2.0-1.7","mr7ebs5rbr1c53k","practice_no_cue","5f1f105f0d08f80a4388c3f8","5f5a55364e9b770ed21874ff","5f60d802d3c8f904f60dd1b9","true","null","./Stimuli/ImagesPractice/SN221.jpg","null","","","","test","false","M + N","76","","SN","SN221.jpg","remember","old","8","1","start","too_slow","","","",""
"html-keyboard-response","26","168154","0.0-2.0-2.0-0.8","mr7ebs5rbr1c53k","practice_no_cue","5f1f105f0d08f80a4388c3f8","5f5a55364e9b770ed21874ff","5f60d802d3c8f904f60dd1b9","false","null","<span style=""color: black; font-size: 48px"">N + M</span>","null","","","","resp_prompt","","","","","","","","","","","","","","","",""
"categorize-image","27","168812","0.0-2.0-2.0-1.8","mr7ebs5rbr1c53k","practice_no_cue","5f1f105f0d08f80a4388c3f8","5f5a55364e9b770ed21874ff","5f60d802d3c8f904f60dd1b9","true","154.8800002783537","./Stimuli/ImagesPractice/LN17.jpg","83","","","","test","true","N + M","83","","LN","LN17.jpg","remember","old","9","1","start","left","","","",""
"html-keyboard-response","28","169513","0.0-2.0-2.0-0.9","mr7ebs5rbr1c53k","practice_no_cue","5f1f105f0d08f80a4388c3f8","5f5a55364e9b770ed21874ff","5f60d802d3c8f904f60dd1b9","false","null","<span style=""color: black; font-size: 48px"">M + N</span>","null","","","","resp_prompt","","","","","","","","","","","","","","","",""
"categorize-image","29","170304","0.0-2.0-2.0-1.9","mr7ebs5rbr1c53k","practice_no_cue","5f1f105f0d08f80a4388c3f8","5f5a55364e9b770ed21874ff","5f60d802d3c8f904f60dd1b9","true","287.53500059247017","./Stimuli/ImagesPractice/LM230.jpg","83","","","","test","true","M + N","83","","LM","LM230.jpg","forget","old","10","1","start","left","","","",""
"html-keyboard-response","30","171006","0.0-2.0-2.0-0.10","mr7ebs5rbr1c53k","practice_no_cue","5f1f105f0d08f80a4388c3f8","5f5a55364e9b770ed21874ff","5f60d802d3c8f904f60dd1b9","false","null","<span style=""color: black; font-size: 48px"">M + N</span>","null","","","","resp_prompt","","","","","","","","","","","","","","","",""
"categorize-image","31","171533","0.0-2.0-2.0-1.10","mr7ebs5rbr1c53k","practice_no_cue","5f1f105f0d08f80a4388c3f8","5f5a55364e9b770ed21874ff","5f60d802d3c8f904f60dd1b9","true","24.7849989682436","./Stimuli/ImagesPractice/LN72.jpg","83","","","","test","false","M + N","76","","LN","LN72.jpg","remember","old","11","1","start","left","","","",""
"html-keyboard-response","32","172235","0.0-2.0-2.0-0.11","mr7ebs5rbr1c53k","practice_no_cue","5f1f105f0d08f80a4388c3f8","5f5a55364e9b770ed21874ff","5f60d802d3c8f904f60dd1b9","false","null","<span style=""color: black; font-size: 48px"">N + M</span>","null","","","","resp_prompt","","","","","","","","","","","","","","","",""
"categorize-image","33","173272","0.0-2.0-2.0-1.11","mr7ebs5rbr1c53k","practice_no_cue","5f1f105f0d08f80a4388c3f8","5f5a55364e9b770ed21874ff","5f60d802d3c8f904f60dd1b9","true","535.1950004696846","./Stimuli/ImagesPractice/SM35.jpg","83","","","","test","false","N + M","76","","SM","SM35.jpg","forget","old","12","1","start","left","","","",""
"html-keyboard-response","34","173974","0.0-2.0-2.0-0.12","mr7ebs5rbr1c53k","practice_no_cue","5f1f105f0d08f80a4388c3f8","5f5a55364e9b770ed21874ff","5f60d802d3c8f904f60dd1b9","false","null","<span style=""color: black; font-size: 48px"">N + M</span>","null","","","","resp_prompt","","","","","","","","","","","","","","","",""
"categorize-image","35","175200","0.0-2.0-2.0-1.12","mr7ebs5rbr1c53k","practice_no_cue","5f1f105f0d08f80a4388c3f8","5f5a55364e9b770ed21874ff","5f60d802d3c8f904f60dd1b9","true","723.1600005179644","./Stimuli/ImagesPractice/SM97.jpg","76","","","","test","true","N + M","76","","SM","SM97.jpg","remember","old","13","1","start","right","","","",""
"html-keyboard-response","36","175902","0.0-2.0-2.0-0.13","mr7ebs5rbr1c53k","practice_no_cue","5f1f105f0d08f80a4388c3f8","5f5a55364e9b770ed21874ff","5f60d802d3c8f904f60dd1b9","false","null","<span style=""color: black; font-size: 48px"">N + M</span>","null","","","","resp_prompt","","","","","","","","","","","","","","","",""
"categorize-image","37","176663","0.0-2.0-2.0-1.13","mr7ebs5rbr1c53k","practice_no_cue","5f1f105f0d08f80a4388c3f8","5f5a55364e9b770ed21874ff","5f60d802d3c8f904f60dd1b9","true","258.8299997150898","./Stimuli/ImagesPractice/SN76.jpg","76","","","","test","false","N + M","83","","SN","SN76.jpg","forget","old","14","1","start","right","","","",""
"html-keyboard-response","38","177364","0.0-2.0-2.0-0.14","mr7ebs5rbr1c53k","practice_no_cue","5f1f105f0d08f80a4388c3f8","5f5a55364e9b770ed21874ff","5f60d802d3c8f904f60dd1b9","false","null","<span style=""color: black; font-size: 48px"">M + N</span>","null","","","","resp_prompt","","","","","","","","","","","","","","","",""
"categorize-image","39","178006","0.0-2.0-2.0-1.14","mr7ebs5rbr1c53k","practice_no_cue","5f1f105f0d08f80a4388c3f8","5f5a55364e9b770ed21874ff","5f60d802d3c8f904f60dd1b9","true","139.79999907314777","./Stimuli/ImagesPractice/LM239.jpg","83","","","","test","true","M + N","83","","LM","LM239.jpg","forget","old","15","1","start","left","","","",""
"html-keyboard-response","40","178707","0.0-2.0-2.0-0.15","mr7ebs5rbr1c53k","practice_no_cue","5f1f105f0d08f80a4388c3f8","5f5a55364e9b770ed21874ff","5f60d802d3c8f904f60dd1b9","false","null","<span style=""color: black; font-size: 48px"">M + N</span>","null","","","","resp_prompt","","","","","","","","","","","","","","","",""
"categorize-image","41","179671","0.0-2.0-2.0-1.15","mr7ebs5rbr1c53k","practice_no_cue","5f1f105f0d08f80a4388c3f8","5f5a55364e9b770ed21874ff","5f60d802d3c8f904f60dd1b9","true","461.34999953210354","./Stimuli/ImagesPractice/SM61.jpg","76","","","","test","false","M + N","83","","SM","SM61.jpg","remember","old","16","1","start","right","","","",""
"html-keyboard-response","42","183632","0.0-2.0-3.0","mr7ebs5rbr1c53k","break","5f1f105f0d08f80a4388c3f8","5f5a55364e9b770ed21874ff","5f60d802d3c8f904f60dd1b9","false","3959.215000271797","<p style='font-size: 32px;'>Break</><br><br><br><br><br><p style='font-size: 24px;'>In the last block, you committed 8 errors and did not respond in time on 4 trials.
</p><p style='font-size: 24px;'>Try to respond as fast and accurately as possible in the next block as well! </p><p style='font-size: 24px;'>Press SPACE to continue.</p>","32","","","","","","","","","","","","","","","","","","","",""
"html-keyboard-response","43","193167","0.0-2.0-4.0","mr7ebs5rbr1c53k","instructions","5f1f105f0d08f80a4388c3f8","5f5a55364e9b770ed21874ff","5f60d802d3c8f904f60dd1b9","false","9534.38499942422","<div align=left> Great!<br><br>Are you ready to continue?<br><br>If you want to reread the instructions and redo the practice trials, <br>please press „Z“. <br><br>Press SPACE to CONTINUE with the experiment when you are ready. </div>","90","","","","","","","","","","","","","","","","","","","",""
"html-keyboard-response","44","211921","0.0-2.1-0.1","mr7ebs5rbr1c53k","instructions","5f1f105f0d08f80a4388c3f8","5f5a55364e9b770ed21874ff","5f60d802d3c8f904f60dd1b9","false","18751.94000080228","<div align=justify>You will classify the objects using the <strong>'S'</strong> and the <strong>'L'</strong> keys on your keyboard.<br>For doing so, please place your <strong>left index finger</strong> on the <strong>'S'</strong> key and place your <strong>right index finger</strong> on the <strong>'L'</strong> key. <br><br> Each trial starts with an instruction, indicating which key ('S'/'L') you need to press to classify <br>the object as mechanical (letter M) or non-mechanical (letter N).<br>The instruction <strong>M + N</strong> indicates that, in the current trial, by pressing the left key ('S') you classify the displayed object as mechanical (M) <br> and by pressing the right key ('L') you classify the object as non-mechanical (N). <br>The instruction <strong>N + M</strong> on the other hand indicates that by pressing the left key ('S') you classify the displayed object as non-mechanical (N) <br> and by pressing the right key ('L') you classify the object as mechanical (M). <br><br>Please press the key corresponding to the correct classification as fast as possible as soon as the object is displayed and try to avoid making mistakes.<br>If you do not respond within a 2 second window, a corresponding feedback will be displayed and the next trial will start.<br> The experiment is divided into multiple blocks to give you the opportunity to take a break after each block. <br>First, you can now practice this task. <br><br>Please place your <strong>LEFT INDEX FINGER</strong> on the 'S' key and your <strong>RIGHT INDEX FINGER</strong> on the 'L' key now. <br><br>Press SPACE to continue.</div>","32","","","","","","","","","","","","","","","","","","","",""
"html-keyboard-response","45","212753","0.0-2.1-1.1","mr7ebs5rbr1c53k","instructions","5f1f105f0d08f80a4388c3f8","5f5a55364e9b770ed21874ff","5f60d802d3c8f904f60dd1b9","false","830.9499993920326","<div align=left> You will now have time to practice this task.<br><br>Remember: <br> <br><li>Please place your index fingers on the <strong>'S'</strong> and <strong>'L'</strong> keys <br>to respond as fast and accurately as possible.</li><li>Every picture can be classified as either mechanical or non-mechanical.</li><li>If you do not respond in time or commit an error, you will receive a corresponding feedback. </li><li> Please try to respond as <strong> fast </strong> and as <strong> accurately as possible </strong> .<br><li>To ensure optimal results, please minimize distractions and stay focused. </li><br><br>Press SPACE to continue.</div>","32","","","","","","","","","","","","","","","","","","","",""
"html-keyboard-response","46","213455","0.0-2.1-2.1-0.16","mr7ebs5rbr1c53k","practice_no_cue","5f1f105f0d08f80a4388c3f8","5f5a55364e9b770ed21874ff","5f60d802d3c8f904f60dd1b9","false","null","<span style=""color: black; font-size: 48px"">N + M</span>","null","","","","resp_prompt","","","","","","","","","","","","","","","",""
"categorize-image","47","215958","0.0-2.1-2.1-1.16","mr7ebs5rbr1c53k","practice_no_cue","5f1f105f0d08f80a4388c3f8","5f5a55364e9b770ed21874ff","5f60d802d3c8f904f60dd1b9","true","null","./Stimuli/ImagesPractice/SN76.jpg","null","","","","test","false","N + M","83","","SN","SN76.jpg","forget","old","17","2","practice_forget","too_slow","","","",""
"html-keyboard-response","48","216660","0.0-2.1-2.1-0.17","mr7ebs5rbr1c53k","practice_no_cue","5f1f105f0d08f80a4388c3f8","5f5a55364e9b770ed21874ff","5f60d802d3c8f904f60dd1b9","false","null","<span style=""color: black; font-size: 48px"">N + M</span>","null","","","","resp_prompt","","","","","","","","","","","","","","","",""
"categorize-image","49","217506","0.0-2.1-2.1-1.17","mr7ebs5rbr1c53k","practice_no_cue","5f1f105f0d08f80a4388c3f8","5f5a55364e9b770ed21874ff","5f60d802d3c8f904f60dd1b9","true","343.4200007468462","./Stimuli/ImagesPractice/LN109.jpg","76","","","","test","false","N + M","83","","LN","LN109.jpg","forget","old","18","2","practice_forget","right","","","",""
"html-keyboard-response","50","218208","0.0-2.1-2.1-0.18","mr7ebs5rbr1c53k","practice_no_cue","5f1f105f0d08f80a4388c3f8","5f5a55364e9b770ed21874ff","5f60d802d3c8f904f60dd1b9","false","null","<span style=""color: black; font-size: 48px"">M + N</span>","null","","","","resp_prompt","","","","","","","","","","","","","","","",""
"categorize-image","51","219600","0.0-2.1-2.1-1.18","mr7ebs5rbr1c53k","practice_no_cue","5f1f105f0d08f80a4388c3f8","5f5a55364e9b770ed21874ff","5f60d802d3c8f904f60dd1b9","true","890.259999781847","./Stimuli/ImagesPractice/LN72.jpg","83","","","","test","false","M + N","76","","LN","LN72.jpg","remember","old","19","2","practice_forget","left","","","",""
"html-keyboard-response","52","220302","0.0-2.1-2.1-0.19","mr7ebs5rbr1c53k","practice_no_cue","5f1f105f0d08f80a4388c3f8","5f5a55364e9b770ed21874ff","5f60d802d3c8f904f60dd1b9","false","null","<span style=""color: black; font-size: 48px"">N + M</span>","null","","","","resp_prompt","","","","","","","","","","","","","","","",""
"categorize-image","53","221430","0.0-2.1-2.1-1.19","mr7ebs5rbr1c53k","practice_no_cue","5f1f105f0d08f80a4388c3f8","5f5a55364e9b770ed21874ff","5f60d802d3c8f904f60dd1b9","true","625.6600003689528","./Stimuli/ImagesPractice/LN15.jpg","76","","","","test","false","N + M","83","","LN","LN15.jpg","remember","old","20","2","practice_forget","right","","","",""
"html-keyboard-response","54","222131","0.0-2.1-2.1-0.20","mr7ebs5rbr1c53k","practice_no_cue","5f1f105f0d08f80a4388c3f8","5f5a55364e9b770ed21874ff","5f60d802d3c8f904f60dd1b9","false","null","<span style=""color: black; font-size: 48px"">N + M</span>","null","","","","resp_prompt","","","","","","","","","","","","","","","",""
"categorize-image","55","223008","0.0-2.1-2.1-1.20","mr7ebs5rbr1c53k","practice_no_cue","5f1f105f0d08f80a4388c3f8","5f5a55364e9b770ed21874ff","5f60d802d3c8f904f60dd1b9","true","375.1649986952543","./Stimuli/ImagesPractice/SM35.jpg","76","","","","test","true","N + M","76","","SM","SM35.jpg","forget","old","21","2","practice_forget","right","","","",""
"html-keyboard-response","56","223710","0.0-2.1-2.1-0.21","mr7ebs5rbr1c53k","practice_no_cue","5f1f105f0d08f80a4388c3f8","5f5a55364e9b770ed21874ff","5f60d802d3c8f904f60dd1b9","false","null","<span style=""color: black; font-size: 48px"">N + M</span>","null","","","","resp_prompt","","","","","","","","","","","","","","","",""
"categorize-image","57","224500","0.0-2.1-2.1-1.21","mr7ebs5rbr1c53k","practice_no_cue","5f1f105f0d08f80a4388c3f8","5f5a55364e9b770ed21874ff","5f60d802d3c8f904f60dd1b9","true","288.6449992656708","./Stimuli/ImagesPractice/LN17.jpg","83","","","","test","true","N + M","83","","LN","LN17.jpg","remember","old","22","2","practice_forget","left","","","",""
"html-keyboard-response","58","225202","0.0-2.1-2.1-0.22","mr7ebs5rbr1c53k","practice_no_cue","5f1f105f0d08f80a4388c3f8","5f5a55364e9b770ed21874ff","5f60d802d3c8f904f60dd1b9","false","null","<span style=""color: black; font-size: 48px"">M + N</span>","null","","","","resp_prompt","","","","","","","","","","","","","","","",""
"categorize-image","59","225796","0.0-2.1-2.1-1.22","mr7ebs5rbr1c53k","practice_no_cue","5f1f105f0d08f80a4388c3f8","5f5a55364e9b770ed21874ff","5f60d802d3c8f904f60dd1b9","true","90.48999845981598","./Stimuli/ImagesPractice/SN205.jpg","76","","","","test","true","M + N","76","","SN","SN205.jpg","remember","old","23","2","practice_forget","right","","","",""
"html-keyboard-response","60","226498","0.0-2.1-2.1-0.23","mr7ebs5rbr1c53k","practice_no_cue","5f1f105f0d08f80a4388c3f8","5f5a55364e9b770ed21874ff","5f60d802d3c8f904f60dd1b9","false","null","<span style=""color: black; font-size: 48px"">N + M</span>","null","","","","resp_prompt","","","","","","","","","","","","","","","",""
"categorize-image","61","227480","0.0-2.1-2.1-1.23","mr7ebs5rbr1c53k","practice_no_cue","5f1f105f0d08f80a4388c3f8","5f5a55364e9b770ed21874ff","5f60d802d3c8f904f60dd1b9","true","480.27499951422215","./Stimuli/ImagesPractice/LN4.jpg","83","","","","test","true","N + M","83","","LN","LN4.jpg","remember","old","24","2","practice_forget","left","","","",""
"html-keyboard-response","62","228181","0.0-2.1-2.1-0.24","mr7ebs5rbr1c53k","practice_no_cue","5f1f105f0d08f80a4388c3f8","5f5a55364e9b770ed21874ff","5f60d802d3c8f904f60dd1b9","false","null","<span style=""color: black; font-size: 48px"">N + M</span>","null","","","","resp_prompt","","","","","","","","","","","","","","","",""
"categorize-image","63","228817","0.0-2.1-2.1-1.24","mr7ebs5rbr1c53k","practice_no_cue","5f1f105f0d08f80a4388c3f8","5f5a55364e9b770ed21874ff","5f60d802d3c8f904f60dd1b9","true","133.74999910593033","./Stimuli/ImagesPractice/SM97.jpg","76","","","","test","true","N + M","76","","SM","SM97.jpg","remember","old","25","2","practice_forget","right","","","",""
"html-keyboard-response","64","229519","0.0-2.1-2.1-0.25","mr7ebs5rbr1c53k","practice_no_cue","5f1f105f0d08f80a4388c3f8","5f5a55364e9b770ed21874ff","5f60d802d3c8f904f60dd1b9","false","null","<span style=""color: black; font-size: 48px"">N + M</span>","null","","","","resp_prompt","","","","","","","","","","","","","","","",""
"categorize-image","65","230564","0.0-2.1-2.1-1.25","mr7ebs5rbr1c53k","practice_no_cue","5f1f105f0d08f80a4388c3f8","5f5a55364e9b770ed21874ff","5f60d802d3c8f904f60dd1b9","true","542.705001309514","./Stimuli/ImagesPractice/SN222.jpg","83","","","","test","true","N + M","83","","SN","SN222.jpg","forget","old","26","2","practice_forget","left","","","",""
"html-keyboard-response","66","231266","0.0-2.1-2.1-0.26","mr7ebs5rbr1c53k","practice_no_cue","5f1f105f0d08f80a4388c3f8","5f5a55364e9b770ed21874ff","5f60d802d3c8f904f60dd1b9","false","null","<span style=""color: black; font-size: 48px"">M + N</span>","null","","","","resp_prompt","","","","","","","","","","","","","","","",""
"categorize-image","67","231899","0.0-2.1-2.1-1.26","mr7ebs5rbr1c53k","practice_no_cue","5f1f105f0d08f80a4388c3f8","5f5a55364e9b770ed21874ff","5f60d802d3c8f904f60dd1b9","true","129.68500144779682","./Stimuli/ImagesPractice/SM61.jpg","76","","","","test","false","M + N","83","","SM","SM61.jpg","remember","old","27","2","practice_forget","right","","","",""
"html-keyboard-response","68","232601","0.0-2.1-2.1-0.27","mr7ebs5rbr1c53k","practice_no_cue","5f1f105f0d08f80a4388c3f8","5f5a55364e9b770ed21874ff","5f60d802d3c8f904f60dd1b9","false","null","<span style=""color: black; font-size: 48px"">M + N</span>","null","","","","resp_prompt","","","","","","","","","","","","","","","",""
"categorize-image","69","233402","0.0-2.1-2.1-1.27","mr7ebs5rbr1c53k","practice_no_cue","5f1f105f0d08f80a4388c3f8","5f5a55364e9b770ed21874ff","5f60d802d3c8f904f60dd1b9","true","298.7999990582466","./Stimuli/ImagesPractice/LM239.jpg","83","","","","test","true","M + N","83","","LM","LM239.jpg","forget","old","28","2","practice_forget","left","","","",""
"html-keyboard-response","70","234103","0.0-2.1-2.1-0.28","mr7ebs5rbr1c53k","practice_no_cue","5f1f105f0d08f80a4388c3f8","5f5a55364e9b770ed21874ff","5f60d802d3c8f904f60dd1b9","false","null","<span style=""color: black; font-size: 48px"">M + N</span>","null","","","","resp_prompt","","","","","","","","","","","","","","","",""
"categorize-image","71","235269","0.0-2.1-2.1-1.28","mr7ebs5rbr1c53k","practice_no_cue","5f1f105f0d08f80a4388c3f8","5f5a55364e9b770ed21874ff","5f60d802d3c8f904f60dd1b9","true","663.8000011444092","./Stimuli/ImagesPractice/LM230.jpg","83","","","","test","true","M + N","83","","LM","LM230.jpg","forget","old","29","2","practice_forget","left","","","",""
"html-keyboard-response","72","235971","0.0-2.1-2.1-0.29","mr7ebs5rbr1c53k","practice_no_cue","5f1f105f0d08f80a4388c3f8","5f5a55364e9b770ed21874ff","5f60d802d3c8f904f60dd1b9","false","null","<span style=""color: black; font-size: 48px"">M + N</span>","null","","","","resp_prompt","","","","","","","","","","","","","","","",""
"categorize-image","73","236915","0.0-2.1-2.1-1.29","mr7ebs5rbr1c53k","practice_no_cue","5f1f105f0d08f80a4388c3f8","5f5a55364e9b770ed21874ff","5f60d802d3c8f904f60dd1b9","true","441.7900014668703","./Stimuli/ImagesPractice/SN221.jpg","76","","","","test","true","M + N","76","","SN","SN221.jpg","remember","old","30","2","practice_forget","right","","","",""
"html-keyboard-response","74","237618","0.0-2.1-2.1-0.30","mr7ebs5rbr1c53k","practice_no_cue","5f1f105f0d08f80a4388c3f8","5f5a55364e9b770ed21874ff","5f60d802d3c8f904f60dd1b9","false","null","<span style=""color: black; font-size: 48px"">M + N</span>","null","","","","resp_prompt","","","","","","","","","","","","","","","",""
"categorize-image","75","238404","0.0-2.1-2.1-1.30","mr7ebs5rbr1c53k","practice_no_cue","5f1f105f0d08f80a4388c3f8","5f5a55364e9b770ed21874ff","5f60d802d3c8f904f60dd1b9","true","283.9349992573261","./Stimuli/ImagesPractice/LM143.jpg","83","","","","test","true","M + N","83","","LM","LM143.jpg","forget","old","31","2","practice_forget","left","","","",""
"html-keyboard-response","76","239105","0.0-2.1-2.1-0.31","mr7ebs5rbr1c53k","practice_no_cue","5f1f105f0d08f80a4388c3f8","5f5a55364e9b770ed21874ff","5f60d802d3c8f904f60dd1b9","false","null","<span style=""color: black; font-size: 48px"">M + N</span>","null","","","","resp_prompt","","","","","","","","","","","","","","","",""
"categorize-image","77","240246","0.0-2.1-2.1-1.31","mr7ebs5rbr1c53k","practice_no_cue","5f1f105f0d08f80a4388c3f8","5f5a55364e9b770ed21874ff","5f60d802d3c8f904f60dd1b9","true","638.8199999928474","./Stimuli/ImagesPractice/SN220.jpg","76","","","","test","true","M + N","76","","SN","SN220.jpg","forget","old","32","2","practice_forget","right","","","",""
"html-keyboard-response","78","241741","0.0-2.1-3.1","mr7ebs5rbr1c53k","break","5f1f105f0d08f80a4388c3f8","5f5a55364e9b770ed21874ff","5f60d802d3c8f904f60dd1b9","false","1492.8050003945827","<p style='font-size: 32px;'>Break</><br><br><br><br><br><p style='font-size: 24px;'>In the last block, you committed 4 errors and did not respond in time on 1 trials.
</p><p style='font-size: 24px;'>Try to respond as fast and accurately as possible in the next block as well! </p><p style='font-size: 24px;'>Press SPACE to continue.</p>","32","","","","","","","","","","","","","","","","","","","",""
"html-keyboard-response","79","242434","0.0-2.1-4.1","mr7ebs5rbr1c53k","instructions","5f1f105f0d08f80a4388c3f8","5f5a55364e9b770ed21874ff","5f60d802d3c8f904f60dd1b9","false","691.7700003832579","<div align=left> Great!<br><br>Are you ready to continue?<br><br>If you want to reread the instructions and redo the practice trials, <br>please press „Z“. <br><br>Press SPACE to CONTINUE with the experiment when you are ready. </div>","32","","","","","","","","","","","","","","","","","","","",""
"html-keyboard-response","80","243545","0.0-3.0-0.0","mr7ebs5rbr1c53k","instructions","5f1f105f0d08f80a4388c3f8","5f5a55364e9b770ed21874ff","5f60d802d3c8f904f60dd1b9","false","1109.315000474453","<div align=left>Great!<br> <strong>Attention</strong>! You will now receive a second, additional task! <br><br>To this point it was you <strong>first task</strong> to correctly <strong>classify objects</strong>. <br><br>As mentioned in the beginning, we aim to examine how well humans can remember previously learned information.<br>We would like to find out whether our memory improves if we only remember information that is relevant to us. <br><br>Therefore, your <strong>second task</strong> will be to <strong>remember</strong> the pictures you are to categorize. <br> After the learning phase, there will be a memory test phase, in which you will be asked to indicate whether you have seen a picture before or not. <br>Some, but not all pictures shown in the learning phase will appear in the memory test phase.<br>After classifying a picture, you will be told whether you should remember it for the memory test phase or not. <br>Thus, some pictures can be forgotten, whereas others have to be remembered. <br><br>Note: From now on, feedback will only be displayed if you responded incorrectly or not in time.<br><br>Press SPACE to continue.</div>","32","","","","","","","","","","","","","","","","","","","",""
"html-keyboard-response","81","254014","0.0-3.0-1.0","mr7ebs5rbr1c53k","instructions","5f1f105f0d08f80a4388c3f8","5f5a55364e9b770ed21874ff","5f60d802d3c8f904f60dd1b9","false","10468.8799995929","<div align=left>In the following part, you will thus have to remember only some pictures. <br>Immediately after seeing and classifying the picture, a symbol will be displayed, indicating whether you should remember or forget the previous picture. <br><br>A <span style='color: dodgerblue; font-size: 28px'>O</span> indicates REMEMBER. That means, you have to remember this picture, because it will be tested later. <br><br>A <span style='color: darkorange; font-size:28px'>Ø</span> indicates FORGET. You do not have to remember this picture. <br><br> As you will have to remember a lot of pictures, it will be hard for you to remember all of them. <br>It will put you at an advantage if you instantly forget the pictures you are not asked to remember. <br> This will make it easier for you to remember the pictures that will be tested afterwards. <br><br>Press SPACE to continue.</div>","32","","","","","","","","","","","","","","","","","","","",""
"html-keyboard-response","82","256329","0.0-3.0-2.0","mr7ebs5rbr1c53k","instructions","5f1f105f0d08f80a4388c3f8","5f5a55364e9b770ed21874ff","5f60d802d3c8f904f60dd1b9","false","2313.865000382066","<div align=left> Now you have the chance to practice both tasks together.<br><br>Remember: <br> <br><li>Please place your index fingers on the <strong>'S'</strong> and <strong>'L'</strong> keys <br>to respond as fast and accurately as possible.</li><li>Every picture can be classified as either mechanical or non-mechanical.</li><li>If you do not respond in time or commit an error, you will receive a corresponding feedback. <br>Please try to respond as <strong> fast </strong> and as <strong> accurately as possible </strong>.</li><li> Please remember only the to-be-remembered <span style='color: dodgerblue; font-size: 28px'>O</span> pictures. <br></li><li> Please minimize distractions and stay focused. </li><br><br>Press SPACE to START</div>","32","","","","","","","","","","","","","","","","","","","",""
"html-keyboard-response","83","257031","0.0-3.0-3.0-0.0","mr7ebs5rbr1c53k","practice_cue","5f1f105f0d08f80a4388c3f8","5f5a55364e9b770ed21874ff","5f60d802d3c8f904f60dd1b9","false","null","<span style=""color: black; font-size: 48px"">M + N</span>","null","","","","resp_prompt","","","","","","","","","","","","","","","",""
"categorize-image","84","257507","0.0-3.0-3.0-1.0","mr7ebs5rbr1c53k","practice_cue","5f1f105f0d08f80a4388c3f8","5f5a55364e9b770ed21874ff","5f60d802d3c8f904f60dd1b9","true","472.4150002002716","./Stimuli/ImagesPractice/SN221.jpg","76","","","","test","true","M + N","76","","SN","SN221.jpg","remember","old","33","3","practice_forget","right","","","",""
"html-keyboard-response","85","259508","0.0-3.0-3.0-3.0","mr7ebs5rbr1c53k","practice_cue","5f1f105f0d08f80a4388c3f8","5f5a55364e9b770ed21874ff","5f60d802d3c8f904f60dd1b9","false","null","<div style=""align-items: center; display: flex; color: dodgerblue; font-size: 90px""><b>o</b></div>","null","","","","forget_cue","","","","","","","","","","","","","","","",""
"html-keyboard-response","86","260210","0.0-3.0-3.0-0.1","mr7ebs5rbr1c53k","practice_cue","5f1f105f0d08f80a4388c3f8","5f5a55364e9b770ed21874ff","5f60d802d3c8f904f60dd1b9","false","null","<span style=""color: black; font-size: 48px"">N + M</span>","null","","","","resp_prompt","","","","","","","","","","","","","","","",""
"categorize-image","87","260215","0.0-3.0-3.0-1.1","mr7ebs5rbr1c53k","practice_cue","5f1f105f0d08f80a4388c3f8","5f5a55364e9b770ed21874ff","5f60d802d3c8f904f60dd1b9","true","0.9599998593330383","./Stimuli/ImagesPractice/LN17.jpg","83","","","","test","true","N + M","83","","LN","LN17.jpg","remember","old","34","3","practice_forget","left","","","",""
"html-keyboard-response","88","262217","0.0-3.0-3.0-3.1","mr7ebs5rbr1c53k","practice_cue","5f1f105f0d08f80a4388c3f8","5f5a55364e9b770ed21874ff","5f60d802d3c8f904f60dd1b9","false","null","<div style=""align-items: center; display: flex; color: dodgerblue; font-size: 90px""><b>o</b></div>","null","","","","forget_cue","","","","","","","","","","","","","","","",""
"html-keyboard-response","89","262919","0.0-3.0-3.0-0.2","mr7ebs5rbr1c53k","practice_cue","5f1f105f0d08f80a4388c3f8","5f5a55364e9b770ed21874ff","5f60d802d3c8f904f60dd1b9","false","null","<span style=""color: black; font-size: 48px"">N + M</span>","null","","","","resp_prompt","","","","","","","","","","","","","","","",""
"categorize-image","90","263953","0.0-3.0-3.0-1.2","mr7ebs5rbr1c53k","practice_cue","5f1f105f0d08f80a4388c3f8","5f5a55364e9b770ed21874ff","5f60d802d3c8f904f60dd1b9","true","1031.0100000351667","./Stimuli/ImagesPractice/SM35.jpg","83","","","","test","false","N + M","76","","SM","SM35.jpg","forget","old","35","3","practice_forget","left","","","",""
"html-keyboard-response","91","264455","0.0-3.0-3.0-2.2-0.2","mr7ebs5rbr1c53k","practice_cue","5f1f105f0d08f80a4388c3f8","5f5a55364e9b770ed21874ff","5f60d802d3c8f904f60dd1b9","false","null","<span style=""color: red; font-size: 48px"">Error!</span>","null","","","","feedback","","","","","","","","","","","","","","","",""
"html-keyboard-response","92","266457","0.0-3.0-3.0-3.2","mr7ebs5rbr1c53k","practice_cue","5f1f105f0d08f80a4388c3f8","5f5a55364e9b770ed21874ff","5f60d802d3c8f904f60dd1b9","false","null","<div style=""align-items: center; display: flex; color: darkorange; font-size: 90px""><b>ø</b></div>","null","","","","forget_cue","","","","","","","","","","","","","","","",""
"html-keyboard-response","93","267158","0.0-3.0-3.0-0.3","mr7ebs5rbr1c53k","practice_cue","5f1f105f0d08f80a4388c3f8","5f5a55364e9b770ed21874ff","5f60d802d3c8f904f60dd1b9","false","null","<span style=""color: black; font-size: 48px"">M + N</span>","null","","","","resp_prompt","","","","","","","","","","","","","","","",""
"categorize-image","94","267452","0.0-3.0-3.0-1.3","mr7ebs5rbr1c53k","practice_cue","5f1f105f0d08f80a4388c3f8","5f5a55364e9b770ed21874ff","5f60d802d3c8f904f60dd1b9","true","290.34500010311604","./Stimuli/ImagesPractice/SN205.jpg","76","","","","test","true","M + N","76","","SN","SN205.jpg","remember","old","36","3","practice_forget","right","","","",""
"html-keyboard-response","95","269454","0.0-3.0-3.0-3.3","mr7ebs5rbr1c53k","practice_cue","5f1f105f0d08f80a4388c3f8","5f5a55364e9b770ed21874ff","5f60d802d3c8f904f60dd1b9","false","null","<div style=""align-items: center; display: flex; color: dodgerblue; font-size: 90px""><b>o</b></div>","null","","","","forget_cue","","","","","","","","","","","","","","","",""
"html-keyboard-response","96","270156","0.0-3.0-3.0-0.4","mr7ebs5rbr1c53k","practice_cue","5f1f105f0d08f80a4388c3f8","5f5a55364e9b770ed21874ff","5f60d802d3c8f904f60dd1b9","false","null","<span style=""color: black; font-size: 48px"">M + N</span>","null","","","","resp_prompt","","","","","","","","","","","","","","","",""
"categorize-image","97","271274","0.0-3.0-3.0-1.4","mr7ebs5rbr1c53k","practice_cue","5f1f105f0d08f80a4388c3f8","5f5a55364e9b770ed21874ff","5f60d802d3c8f904f60dd1b9","true","1113.3949998766184","./Stimuli/ImagesPractice/LN72.jpg","76","","","","test","true","M + N","76","","LN","LN72.jpg","remember","old","37","3","practice_forget","right","","","",""
"html-keyboard-response","98","273275","0.0-3.0-3.0-3.4","mr7ebs5rbr1c53k","practice_cue","5f1f105f0d08f80a4388c3f8","5f5a55364e9b770ed21874ff","5f60d802d3c8f904f60dd1b9","false","null","<div style=""align-items: center; display: flex; color: dodgerblue; font-size: 90px""><b>o</b></div>","null","","","","forget_cue","","","","","","","","","","","","","","","",""
"html-keyboard-response","99","273976","0.0-3.0-3.0-0.5","mr7ebs5rbr1c53k","practice_cue","5f1f105f0d08f80a4388c3f8","5f5a55364e9b770ed21874ff","5f60d802d3c8f904f60dd1b9","false","null","<span style=""color: black; font-size: 48px"">M + N</span>","null","","","","resp_prompt","","","","","","","","","","","","","","","",""
"categorize-image","100","274423","0.0-3.0-3.0-1.5","mr7ebs5rbr1c53k","practice_cue","5f1f105f0d08f80a4388c3f8","5f5a55364e9b770ed21874ff","5f60d802d3c8f904f60dd1b9","true","442.88500025868416","./Stimuli/ImagesPractice/LM239.jpg","83","","","","test","true","M + N","83","","LM","LM239.jpg","forget","old","38","3","practice_forget","left","","","",""
"html-keyboard-response","101","276424","0.0-3.0-3.0-3.5","mr7ebs5rbr1c53k","practice_cue","5f1f105f0d08f80a4388c3f8","5f5a55364e9b770ed21874ff","5f60d802d3c8f904f60dd1b9","false","null","<div style=""align-items: center; display: flex; color: darkorange; font-size: 90px""><b>ø</b></div>","null","","","","forget_cue","","","","","","","","","","","","","","","",""
"html-keyboard-response","102","277126","0.0-3.0-3.0-0.6","mr7ebs5rbr1c53k","practice_cue","5f1f105f0d08f80a4388c3f8","5f5a55364e9b770ed21874ff","5f60d802d3c8f904f60dd1b9","false","null","<span style=""color: black; font-size: 48px"">N + M</span>","null","","","","resp_prompt","","","","","","","","","","","","","","","",""
"categorize-image","103","277557","0.0-3.0-3.0-1.6","mr7ebs5rbr1c53k","practice_cue","5f1f105f0d08f80a4388c3f8","5f5a55364e9b770ed21874ff","5f60d802d3c8f904f60dd1b9","true","428.40499989688396","./Stimuli/ImagesPractice/LN15.jpg","83","","","","test","true","N + M","83","","LN","LN15.jpg","remember","old","39","3","practice_forget","left","","","",""
"html-keyboard-response","104","279559","0.0-3.0-3.0-3.6","mr7ebs5rbr1c53k","practice_cue","5f1f105f0d08f80a4388c3f8","5f5a55364e9b770ed21874ff","5f60d802d3c8f904f60dd1b9","false","null","<div style=""align-items: center; display: flex; color: dodgerblue; font-size: 90px""><b>o</b></div>","null","","","","forget_cue","","","","","","","","","","","","","","","",""
"html-keyboard-response","105","280260","0.0-3.0-3.0-0.7","mr7ebs5rbr1c53k","practice_cue","5f1f105f0d08f80a4388c3f8","5f5a55364e9b770ed21874ff","5f60d802d3c8f904f60dd1b9","false","null","<span style=""color: black; font-size: 48px"">N + M</span>","null","","","","resp_prompt","","","","","","","","","","","","","","","",""
"categorize-image","106","282269","0.0-3.0-3.0-1.7","mr7ebs5rbr1c53k","practice_cue","5f1f105f0d08f80a4388c3f8","5f5a55364e9b770ed21874ff","5f60d802d3c8f904f60dd1b9","true","null","./Stimuli/ImagesPractice/SM97.jpg","null","","","","test","false","N + M","76","","SM","SM97.jpg","remember","old","40","3","practice_forget","too_slow","","","",""
"html-keyboard-response","107","282770","0.0-3.0-3.0-2.7-0.7","mr7ebs5rbr1c53k","practice_cue","5f1f105f0d08f80a4388c3f8","5f5a55364e9b770ed21874ff","5f60d802d3c8f904f60dd1b9","false","null","<span style=""color: red; font-size: 48px"">Too slow!</span>","null","","","","feedback","","","","","","","","","","","","","","","",""
"html-keyboard-response","108","284772","0.0-3.0-3.0-3.7","mr7ebs5rbr1c53k","practice_cue","5f1f105f0d08f80a4388c3f8","5f5a55364e9b770ed21874ff","5f60d802d3c8f904f60dd1b9","false","null","<div style=""align-items: center; display: flex; color: dodgerblue; font-size: 90px""><b>o</b></div>","null","","","","forget_cue","","","","","","","","","","","","","","","",""
"html-keyboard-response","109","285474","0.0-3.0-3.0-0.8","mr7ebs5rbr1c53k","practice_cue","5f1f105f0d08f80a4388c3f8","5f5a55364e9b770ed21874ff","5f60d802d3c8f904f60dd1b9","false","null","<span style=""color: black; font-size: 48px"">M + N</span>","null","","","","resp_prompt","","","","","","","","","","","","","","","",""
"categorize-image","110","285617","0.0-3.0-3.0-1.8","mr7ebs5rbr1c53k","practice_cue","5f1f105f0d08f80a4388c3f8","5f5a55364e9b770ed21874ff","5f60d802d3c8f904f60dd1b9","true","140.30500128865242","./Stimuli/ImagesPractice/LM230.jpg","76","","","","test","false","M + N","83","","LM","LM230.jpg","forget","old","41","3","practice_forget","right","","","",""
"html-keyboard-response","111","286120","0.0-3.0-3.0-2.8-0.8","mr7ebs5rbr1c53k","practice_cue","5f1f105f0d08f80a4388c3f8","5f5a55364e9b770ed21874ff","5f60d802d3c8f904f60dd1b9","false","null","<span style=""color: red; font-size: 48px"">Error!</span>","null","","","","feedback","","","","","","","","","","","","","","","",""
"html-keyboard-response","112","288122","0.0-3.0-3.0-3.8","mr7ebs5rbr1c53k","practice_cue","5f1f105f0d08f80a4388c3f8","5f5a55364e9b770ed21874ff","5f60d802d3c8f904f60dd1b9","false","null","<div style=""align-items: center; display: flex; color: darkorange; font-size: 90px""><b>ø</b></div>","null","","","","forget_cue","","","","","","","","","","","","","","","",""
"html-keyboard-response","113","288824","0.0-3.0-3.0-0.9","mr7ebs5rbr1c53k","practice_cue","5f1f105f0d08f80a4388c3f8","5f5a55364e9b770ed21874ff","5f60d802d3c8f904f60dd1b9","false","null","<span style=""color: black; font-size: 48px"">M + N</span>","null","","","","resp_prompt","","","","","","","","","","","","","","","",""
"categorize-image","114","289250","0.0-3.0-3.0-1.9","mr7ebs5rbr1c53k","practice_cue","5f1f105f0d08f80a4388c3f8","5f5a55364e9b770ed21874ff","5f60d802d3c8f904f60dd1b9","true","422.910001128912","./Stimuli/ImagesPractice/SM61.jpg","83","","","","test","true","M + N","83","","SM","SM61.jpg","remember","old","42","3","practice_forget","left","","","",""
"html-keyboard-response","115","291252","0.0-3.0-3.0-3.9","mr7ebs5rbr1c53k","practice_cue","5f1f105f0d08f80a4388c3f8","5f5a55364e9b770ed21874ff","5f60d802d3c8f904f60dd1b9","false","null","<div style=""align-items: center; display: flex; color: dodgerblue; font-size: 90px""><b>o</b></div>","null","","","","forget_cue","","","","","","","","","","","","","","","",""
"html-keyboard-response","116","291953","0.0-3.0-3.0-0.10","mr7ebs5rbr1c53k","practice_cue","5f1f105f0d08f80a4388c3f8","5f5a55364e9b770ed21874ff","5f60d802d3c8f904f60dd1b9","false","null","<span style=""color: black; font-size: 48px"">M + N</span>","null","","","","resp_prompt","","","","","","","","","","","","","","","",""
"categorize-image","117","292445","0.0-3.0-3.0-1.10","mr7ebs5rbr1c53k","practice_cue","5f1f105f0d08f80a4388c3f8","5f5a55364e9b770ed21874ff","5f60d802d3c8f904f60dd1b9","true","489.62000012397766","./Stimuli/ImagesPractice/SN220.jpg","76","","","","test","true","M + N","76","","SN","SN220.jpg","forget","old","43","3","practice_forget","right","","","",""
"html-keyboard-response","118","294447","0.0-3.0-3.0-3.10","mr7ebs5rbr1c53k","practice_cue","5f1f105f0d08f80a4388c3f8","5f5a55364e9b770ed21874ff","5f60d802d3c8f904f60dd1b9","false","null","<div style=""align-items: center; display: flex; color: darkorange; font-size: 90px""><b>ø</b></div>","null","","","","forget_cue","","","","","","","","","","","","","","","",""
"html-keyboard-response","119","295148","0.0-3.0-3.0-0.11","mr7ebs5rbr1c53k","practice_cue","5f1f105f0d08f80a4388c3f8","5f5a55364e9b770ed21874ff","5f60d802d3c8f904f60dd1b9","false","null","<span style=""color: black; font-size: 48px"">N + M</span>","null","","","","resp_prompt","","","","","","","","","","","","","","","",""
"categorize-image","120","295626","0.0-3.0-3.0-1.11","mr7ebs5rbr1c53k","practice_cue","5f1f105f0d08f80a4388c3f8","5f5a55364e9b770ed21874ff","5f60d802d3c8f904f60dd1b9","true","474.7499991208315","./Stimuli/ImagesPractice/SN222.jpg","83","","","","test","true","N + M","83","","SN","SN222.jpg","forget","old","44","3","practice_forget","left","","","",""
"html-keyboard-response","121","297627","0.0-3.0-3.0-3.11","mr7ebs5rbr1c53k","practice_cue","5f1f105f0d08f80a4388c3f8","5f5a55364e9b770ed21874ff","5f60d802d3c8f904f60dd1b9","false","null","<div style=""align-items: center; display: flex; color: darkorange; font-size: 90px""><b>ø</b></div>","null","","","","forget_cue","","","","","","","","","","","","","","","",""
"html-keyboard-response","122","298329","0.0-3.0-3.0-0.12","mr7ebs5rbr1c53k","practice_cue","5f1f105f0d08f80a4388c3f8","5f5a55364e9b770ed21874ff","5f60d802d3c8f904f60dd1b9","false","null","<span style=""color: black; font-size: 48px"">N + M</span>","null","","","","resp_prompt","","","","","","","","","","","","","","","",""
"categorize-image","123","299072","0.0-3.0-3.0-1.12","mr7ebs5rbr1c53k","practice_cue","5f1f105f0d08f80a4388c3f8","5f5a55364e9b770ed21874ff","5f60d802d3c8f904f60dd1b9","true","739.7499997168779","./Stimuli/ImagesPractice/LN109.jpg","83","","","","test","true","N + M","83","","LN","LN109.jpg","forget","old","45","3","practice_forget","left","","","",""
"html-keyboard-response","124","301073","0.0-3.0-3.0-3.12","mr7ebs5rbr1c53k","practice_cue","5f1f105f0d08f80a4388c3f8","5f5a55364e9b770ed21874ff","5f60d802d3c8f904f60dd1b9","false","null","<div style=""align-items: center; display: flex; color: darkorange; font-size: 90px""><b>ø</b></div>","null","","","","forget_cue","","","","","","","","","","","","","","","",""
"html-keyboard-response","125","301774","0.0-3.0-3.0-0.13","mr7ebs5rbr1c53k","practice_cue","5f1f105f0d08f80a4388c3f8","5f5a55364e9b770ed21874ff","5f60d802d3c8f904f60dd1b9","false","null","<span style=""color: black; font-size: 48px"">M + N</span>","null","","","","resp_prompt","","","","","","","","","","","","","","","",""
"categorize-image","126","302276","0.0-3.0-3.0-1.13","mr7ebs5rbr1c53k","practice_cue","5f1f105f0d08f80a4388c3f8","5f5a55364e9b770ed21874ff","5f60d802d3c8f904f60dd1b9","true","498.68499860167503","./Stimuli/ImagesPractice/LM143.jpg","83","","","","test","true","M + N","83","","LM","LM143.jpg","forget","old","46","3","practice_forget","left","","","",""
"html-keyboard-response","127","304278","0.0-3.0-3.0-3.13","mr7ebs5rbr1c53k","practice_cue","5f1f105f0d08f80a4388c3f8","5f5a55364e9b770ed21874ff","5f60d802d3c8f904f60dd1b9","false","null","<div style=""align-items: center; display: flex; color: darkorange; font-size: 90px""><b>ø</b></div>","null","","","","forget_cue","","","","","","","","","","","","","","","",""
"html-keyboard-response","128","304980","0.0-3.0-3.0-0.14","mr7ebs5rbr1c53k","practice_cue","5f1f105f0d08f80a4388c3f8","5f5a55364e9b770ed21874ff","5f60d802d3c8f904f60dd1b9","false","null","<span style=""color: black; font-size: 48px"">N + M</span>","null","","","","resp_prompt","","","","","","","","","","","","","","","",""
"categorize-image","129","305496","0.0-3.0-3.0-1.14","mr7ebs5rbr1c53k","practice_cue","5f1f105f0d08f80a4388c3f8","5f5a55364e9b770ed21874ff","5f60d802d3c8f904f60dd1b9","true","513.7100014835596","./Stimuli/ImagesPractice/SN76.jpg","76","","","","test","false","N + M","83","","SN","SN76.jpg","forget","old","47","3","practice_forget","right","","","",""
"html-keyboard-response","130","305997","0.0-3.0-3.0-2.14-0.14","mr7ebs5rbr1c53k","practice_cue","5f1f105f0d08f80a4388c3f8","5f5a55364e9b770ed21874ff","5f60d802d3c8f904f60dd1b9","false","null","<span style=""color: red; font-size: 48px"">Error!</span>","null","","","","feedback","","","","","","","","","","","","","","","",""
"html-keyboard-response","131","307999","0.0-3.0-3.0-3.14","mr7ebs5rbr1c53k","practice_cue","5f1f105f0d08f80a4388c3f8","5f5a55364e9b770ed21874ff","5f60d802d3c8f904f60dd1b9","false","null","<div style=""align-items: center; display: flex; color: darkorange; font-size: 90px""><b>ø</b></div>","null","","","","forget_cue","","","","","","","","","","","","","","","",""
"html-keyboard-response","132","308702","0.0-3.0-3.0-0.15","mr7ebs5rbr1c53k","practice_cue","5f1f105f0d08f80a4388c3f8","5f5a55364e9b770ed21874ff","5f60d802d3c8f904f60dd1b9","false","null","<span style=""color: black; font-size: 48px"">N + M</span>","null","","","","resp_prompt","","","","","","","","","","","","","","","",""
"categorize-image","133","308992","0.0-3.0-3.0-1.15","mr7ebs5rbr1c53k","practice_cue","5f1f105f0d08f80a4388c3f8","5f5a55364e9b770ed21874ff","5f60d802d3c8f904f60dd1b9","true","287.0049998164177","./Stimuli/ImagesPractice/LN4.jpg","76","","","","test","false","N + M","83","","LN","LN4.jpg","remember","old","48","3","practice_forget","right","","","",""
"html-keyboard-response","134","309493","0.0-3.0-3.0-2.15-0.15","mr7ebs5rbr1c53k","practice_cue","5f1f105f0d08f80a4388c3f8","5f5a55364e9b770ed21874ff","5f60d802d3c8f904f60dd1b9","false","null","<span style=""color: red; font-size: 48px"">Error!</span>","null","","","","feedback","","","","","","","","","","","","","","","",""
"html-keyboard-response","135","311495","0.0-3.0-3.0-3.15","mr7ebs5rbr1c53k","practice_cue","5f1f105f0d08f80a4388c3f8","5f5a55364e9b770ed21874ff","5f60d802d3c8f904f60dd1b9","false","null","<div style=""align-items: center; display: flex; color: dodgerblue; font-size: 90px""><b>o</b></div>","null","","","","forget_cue","","","","","","","","","","","","","","","",""
"html-keyboard-response","136","313684","0.0-3.0-4.0","mr7ebs5rbr1c53k","break","5f1f105f0d08f80a4388c3f8","5f5a55364e9b770ed21874ff","5f60d802d3c8f904f60dd1b9","false","2187.490001320839","<p style='font-size: 32px;'>Break</><br><br><br><br><br><p style='font-size: 24px;'>In the last block, you committed 4 errors and did not respond in time on 1 trials.
</p><p style='font-size: 24px;'>Try to respond as fast and accurately as possible in the next block as well! </p><p style='font-size: 24px;'>Press SPACE to continue.</p>","32","","","","","","","","","","","","","","","","","","","",""
"html-keyboard-response","137","316974","0.0-3.0-5.0","mr7ebs5rbr1c53k","instructions","5f1f105f0d08f80a4388c3f8","5f5a55364e9b770ed21874ff","5f60d802d3c8f904f60dd1b9","false","3288.790000602603","<div align=left> Now, to practice, we kindly ask you to remember as many of the to-be-remembered pictures<br>of the previous learning phase as possible.<br><br>The pictures you were instructed to remember were the pictures followed by a <span style='color: dodgerblue; font-size: 28px'>O</span>.<br><br>In this memory test phase, you will also see some new pictures.<br>It is your task to remember whether you were presented with this specific picture in this study so far or not.<br>If you recognize an object (you have already seen it in this study), it is an OLD object. <br>If you do not recognize an object (you have NOT seen it in this study), it is a NEW object. <br><strong> Attention</strong>: As already mentioned, <span style='color: darkorange; font-size:28px'>Ø</span>-pictures will <strong>never</strong> appear in this memory test (neither as new objects). <br><br>Press SPACE to continue. </div>","32","","","","","","","","","","","","","","","","","","","",""
"html-keyboard-response","138","317853","0.0-3.0-6.0","mr7ebs5rbr1c53k","instructions","5f1f105f0d08f80a4388c3f8","5f5a55364e9b770ed21874ff","5f60d802d3c8f904f60dd1b9","false","877.9499996453524","<div align=left> M and N no longer will appear on the left/right of the fixation cross. <br>Instead there will be a note at the bottom of the left or right side  <br>indicating which key you should press for an old or new object:  <br> <br>Press the <strong>right</strong> key to classify an object as <strong>old</strong> and press the <strong>left</strong>, to classify an object as <strong>new</strong>.<br>Please classify the objects as new/old by again placing your index finger on the 'S' and 'L' keys <br>and press them accordingly.<br><br><strong>Old:</strong> This object has been presented before. <br><strong>New:</strong> This object has <strong>not</strong> been presented.<br><br>Now please put your right and left index fingers on the 'S' and 'L' keys of your keyboard. <br>Please respond as fast and as accurately as possible!<br><br>Press SPACE to continue. </div>","32","","","","","","","","","","","","","","","","","","","",""
"categorize-image","139","327781","0.0-3.0-7.0-0.0","mr7ebs5rbr1c53k","practice_recog","5f1f105f0d08f80a4388c3f8","5f5a55364e9b770ed21874ff","5f60d802d3c8f904f60dd1b9","true","9425.410000607371","./Stimuli/ImagesPractice/LN72.jpg","76","","","","test","false","","83","","LN","LN72.jpg","","old","49","4","practice_recog","right","","","",""
"categorize-image","140","332198","0.0-3.0-7.0-0.1","mr7ebs5rbr1c53k","practice_recog","5f1f105f0d08f80a4388c3f8","5f5a55364e9b770ed21874ff","5f60d802d3c8f904f60dd1b9","true","3912.3599994927645","./Stimuli/ImagesPractice/LM224.jpg","76","","","","test","true","","76","","LM","LM224.jpg","","new","50","4","practice_recog","right","","","",""
"categorize-image","141","334043","0.0-3.0-7.0-0.2","mr7ebs5rbr1c53k","practice_recog","5f1f105f0d08f80a4388c3f8","5f5a55364e9b770ed21874ff","5f60d802d3c8f904f60dd1b9","true","1342.5450008362532","./Stimuli/ImagesPractice/LN2.jpg","76","","","","test","true","","76","","LN","LN2.jpg","","new","51","4","practice_recog","right","","","",""
"categorize-image","142","336704","0.0-3.0-7.0-0.3","mr7ebs5rbr1c53k","practice_recog","5f1f105f0d08f80a4388c3f8","5f5a55364e9b770ed21874ff","5f60d802d3c8f904f60dd1b9","true","2158.4000010043383","./Stimuli/ImagesPractice/LN15.jpg","83","","","","test","true","","83","","LN","LN15.jpg","","old","52","4","practice_recog","left","","","",""
"categorize-image","143","338645","0.0-3.0-7.0-0.4","mr7ebs5rbr1c53k","practice_recog","5f1f105f0d08f80a4388c3f8","5f5a55364e9b770ed21874ff","5f60d802d3c8f904f60dd1b9","true","1438.7449994683266","./Stimuli/ImagesPractice/SN205.jpg","76","","","","test","false","","83","","SN","SN205.jpg","","old","53","4","practice_recog","right","","","",""
"categorize-image","144","340482","0.0-3.0-7.0-0.5","mr7ebs5rbr1c53k","practice_recog","5f1f105f0d08f80a4388c3f8","5f5a55364e9b770ed21874ff","5f60d802d3c8f904f60dd1b9","true","1334.204999729991","./Stimuli/ImagesPractice/SM61.jpg","83","","","","test","true","","83","","SM","SM61.jpg","","old","54","4","practice_recog","left","","","",""
"categorize-image","145","342469","0.0-3.0-7.0-0.6","mr7ebs5rbr1c53k","practice_recog","5f1f105f0d08f80a4388c3f8","5f5a55364e9b770ed21874ff","5f60d802d3c8f904f60dd1b9","true","1485.1899985224009","./Stimuli/ImagesPractice/SM97.jpg","83","","","","test","true","","83","","SM","SM97.jpg","","old","55","4","practice_recog","left","","","",""
"categorize-image","146","344039","0.0-3.0-7.0-0.7","mr7ebs5rbr1c53k","practice_recog","5f1f105f0d08f80a4388c3f8","5f5a55364e9b770ed21874ff","5f60d802d3c8f904f60dd1b9","true","1067.6850005984306","./Stimuli/ImagesPractice/LM55.jpg","83","","","","test","false","","76","","LM","LM55.jpg","","new","56","4","practice_recog","left","","","",""
"categorize-image","147","345850","0.0-3.0-7.0-0.8","mr7ebs5rbr1c53k","practice_recog","5f1f105f0d08f80a4388c3f8","5f5a55364e9b770ed21874ff","5f60d802d3c8f904f60dd1b9","true","1308.620000258088","./Stimuli/ImagesPractice/LN4.jpg","83","","","","test","true","","83","","LN","LN4.jpg","","old","57","4","practice_recog","left","","","",""
"categorize-image","148","347108","0.0-3.0-7.0-0.9","mr7ebs5rbr1c53k","practice_recog","5f1f105f0d08f80a4388c3f8","5f5a55364e9b770ed21874ff","5f60d802d3c8f904f60dd1b9","true","755.3250007331371","./Stimuli/ImagesPractice/SN75.jpg","76","","","","test","true","","76","","SN","SN75.jpg","","new","58","4","practice_recog","right","","","",""
"categorize-image","149","348456","0.0-3.0-7.0-0.10","mr7ebs5rbr1c53k","practice_recog","5f1f105f0d08f80a4388c3f8","5f5a55364e9b770ed21874ff","5f60d802d3c8f904f60dd1b9","true","845.9950014948845","./Stimuli/ImagesPractice/SM37.jpg","76","","","","test","true","","76","","SM","SM37.jpg","","new","59","4","practice_recog","right","","","",""
"categorize-image","150","349789","0.0-3.0-7.0-0.11","mr7ebs5rbr1c53k","practice_recog","5f1f105f0d08f80a4388c3f8","5f5a55364e9b770ed21874ff","5f60d802d3c8f904f60dd1b9","true","830.9650011360645","./Stimuli/ImagesPractice/SM98.jpg","83","","","","test","false","","76","","SM","SM98.jpg","","new","60","4","practice_recog","left","","","",""
"categorize-image","151","351152","0.0-3.0-7.0-0.12","mr7ebs5rbr1c53k","practice_recog","5f1f105f0d08f80a4388c3f8","5f5a55364e9b770ed21874ff","5f60d802d3c8f904f60dd1b9","true","860.0749988108873","./Stimuli/ImagesPractice/SN221.jpg","83","","","","test","true","","83","","SN","SN221.jpg","","old","61","4","practice_recog","left","","","",""
"categorize-image","152","352673","0.0-3.0-7.0-0.13","mr7ebs5rbr1c53k","practice_recog","5f1f105f0d08f80a4388c3f8","5f5a55364e9b770ed21874ff","5f60d802d3c8f904f60dd1b9","true","1018.7350008636713","./Stimuli/ImagesPractice/LN17.jpg","76","","","","test","false","","83","","LN","LN17.jpg","","old","62","4","practice_recog","right","","","",""
"categorize-image","153","353824","0.0-3.0-7.0-0.14","mr7ebs5rbr1c53k","practice_recog","5f1f105f0d08f80a4388c3f8","5f5a55364e9b770ed21874ff","5f60d802d3c8f904f60dd1b9","true","648.845000192523","./Stimuli/ImagesPractice/LM147.jpg","76","","","","test","true","","76","","LM","LM147.jpg","","new","63","4","practice_recog","right","","","",""
"categorize-image","154","354906","0.0-3.0-7.0-0.15","mr7ebs5rbr1c53k","practice_recog","5f1f105f0d08f80a4388c3f8","5f5a55364e9b770ed21874ff","5f60d802d3c8f904f60dd1b9","true","578.600000590086","./Stimuli/ImagesPractice/SM62.jpg","76","","","","test","true","","76","","SM","SM62.jpg","","new","64","4","practice_recog","right","","","",""
"html-keyboard-response","155","361261","0.0-3.0-8.0","mr7ebs5rbr1c53k","instructions","5f1f105f0d08f80a4388c3f8","5f5a55364e9b770ed21874ff","5f60d802d3c8f904f60dd1b9","false","6354.159999638796","<div align=left> Great!<br><br>Are you ready to continue?<br>If you want to reread the instructions and redo the practice trials, please <br>press „Z“.<br><br>You can proceed when you are ready.<br><br>After the presentation of each object, you will receive an instruction whether to <br>remember or to forget the object.<br>We will test your memory of the following pictures only at the very end of <br>the experiment after all learning blocks are completed. <br><br>Press SPACE to CONTINUE when you are ready. </div>","32","","","","","","","","","","","","","","","","","","","",""
"html-keyboard-response","156","365764","0.0-4.0-0.0","mr7ebs5rbr1c53k","instructions","5f1f105f0d08f80a4388c3f8","5f5a55364e9b770ed21874ff","5f60d802d3c8f904f60dd1b9","false","4501.8200017511845","<div align=left> The actual experiment is about to start.<br>The practice trials are over!<br><br>Please always respond both fast and accurately!<br><br>Remember: <br> <br><li> Please place your index fingers on the <strong>'S'</strong> and <strong>'L'</strong> keys <br>to respond as fast and accurately as possible.</li><li> Every picture can be classified as either mechanical or non-mechanical.</li><li> If you do not respond in time or commit an error, you will receive a corresponding feedback.<br> Please try to respond as <strong> fast </strong> and as <strong> accurately as possible </strong>.</li><li> Remember the <span style='color: dodgerblue; font-size: 28px'>O</span> pictures. <br></li><li> Please minimize distractions and stay focused. </li><br><br>Press SPACE to START.</div>","32","","","","","","","","","","","","","","","","","","","",""
"html-keyboard-response","157","366466","0.0-4.0-1.0-0.0","mr7ebs5rbr1c53k","prime","5f1f105f0d08f80a4388c3f8","5f5a55364e9b770ed21874ff","5f60d802d3c8f904f60dd1b9","false","null","<span style=""color: black; font-size: 48px"">N + M</span>","null","","","","resp_prompt","","","","","","","","","","","","","","","",""
"categorize-image","158","366740","0.0-4.0-1.0-1.0","mr7ebs5rbr1c53k","prime","5f1f105f0d08f80a4388c3f8","5f5a55364e9b770ed21874ff","5f60d802d3c8f904f60dd1b9","true","270.8449997007847","./Stimuli/SelectedImages/SM/SM148.bmp","83","","","","test","false","N + M","76","switch","SM","SM148.bmp","forget","","65","4","prime1","left","","","",""
"html-keyboard-response","159","367242","0.0-4.0-1.0-2.0-0.0","mr7ebs5rbr1c53k","prime","5f1f105f0d08f80a4388c3f8","5f5a55364e9b770ed21874ff","5f60d802d3c8f904f60dd1b9","false","null","<span style=""color: red; font-size: 48px"">Error!</span>","null","","","","feedback","","","","","","","","","","","","","","","",""
"html-keyboard-response","160","369243","0.0-4.0-1.0-3.0","mr7ebs5rbr1c53k","prime","5f1f105f0d08f80a4388c3f8","5f5a55364e9b770ed21874ff","5f60d802d3c8f904f60dd1b9","false","null","<div style=""align-items: center; display: flex; color: darkorange; font-size: 90px""><b>ø</b></div>","null","","","","forget_cue","","","","","","","","","","","","","","","",""
"html-keyboard-response","161","369945","0.0-4.0-1.0-0.1","mr7ebs5rbr1c53k","prime","5f1f105f0d08f80a4388c3f8","5f5a55364e9b770ed21874ff","5f60d802d3c8f904f60dd1b9","false","null","<span style=""color: black; font-size: 48px"">M + N</span>","null","","","","resp_prompt","","","","","","","","","","","","","","","",""
"categorize-image","162","370377","0.0-4.0-1.0-1.1","mr7ebs5rbr1c53k","prime","5f1f105f0d08f80a4388c3f8","5f5a55364e9b770ed21874ff","5f60d802d3c8f904f60dd1b9","true","429.13500033318996","./Stimuli/SelectedImages/LN/LN166.bmp","83","","","","test","false","M + N","76","switch","LN","LN166.bmp","forget","","66","4","prime1","left","","","",""
"html-keyboard-response","163","370879","0.0-4.0-1.0-2.1-0.1","mr7ebs5rbr1c53k","prime","5f1f105f0d08f80a4388c3f8","5f5a55364e9b770ed21874ff","5f60d802d3c8f904f60dd1b9","false","null","<span style=""color: red; font-size: 48px"">Error!</span>","null","","","","feedback","","","","","","","","","","","","","","","",""
"html-keyboard-response","164","372881","0.0-4.0-1.0-3.1","mr7ebs5rbr1c53k","prime","5f1f105f0d08f80a4388c3f8","5f5a55364e9b770ed21874ff","5f60d802d3c8f904f60dd1b9","false","null","<div style=""align-items: center; display: flex; color: darkorange; font-size: 90px""><b>ø</b></div>","null","","","","forget_cue","","","","","","","","","","","","","","","",""
"html-keyboard-response","165","373582","0.0-4.0-1.0-0.2","mr7ebs5rbr1c53k","prime","5f1f105f0d08f80a4388c3f8","5f5a55364e9b770ed21874ff","5f60d802d3c8f904f60dd1b9","false","null","<span style=""color: black; font-size: 48px"">N + M</span>","null","","","","resp_prompt","","","","","","","","","","","","","","","",""
"categorize-image","166","374226","0.0-4.0-1.0-1.2","mr7ebs5rbr1c53k","prime","5f1f105f0d08f80a4388c3f8","5f5a55364e9b770ed21874ff","5f60d802d3c8f904f60dd1b9","true","640.0999985635281","./Stimuli/SelectedImages/LN/LN92.bmp","83","","","","test","true","N + M","83","repetition","LN","LN92.bmp","forget","","67","4","prime1","left","","","",""
"html-keyboard-response","167","376227","0.0-4.0-1.0-3.2","mr7ebs5rbr1c53k","prime","5f1f105f0d08f80a4388c3f8","5f5a55364e9b770ed21874ff","5f60d802d3c8f904f60dd1b9","false","null","<div style=""align-items: center; display: flex; color: darkorange; font-size: 90px""><b>ø</b></div>","null","","","","forget_cue","","","","","","","","","","","","","","","",""
"html-keyboard-response","168","376929","0.0-4.0-1.0-0.3","mr7ebs5rbr1c53k","prime","5f1f105f0d08f80a4388c3f8","5f5a55364e9b770ed21874ff","5f60d802d3c8f904f60dd1b9","false","null","<span style=""color: black; font-size: 48px"">N + M</span>","null","","","","resp_prompt","","","","","","","","","","","","","","","",""
"categorize-image","169","377486","0.0-4.0-1.0-1.3","mr7ebs5rbr1c53k","prime","5f1f105f0d08f80a4388c3f8","5f5a55364e9b770ed21874ff","5f60d802d3c8f904f60dd1b9","true","553.9300013333559","./Stimuli/SelectedImages/SM/SM76.bmp","76","","","","test","true","N + M","76","switch","SM","SM76.bmp","forget","","68","4","prime1","right","","","",""
"html-keyboard-response","170","379487","0.0-4.0-1.0-3.3","mr7ebs5rbr1c53k","prime","5f1f105f0d08f80a4388c3f8","5f5a55364e9b770ed21874ff","5f60d802d3c8f904f60dd1b9","false","null","<div style=""align-items: center; display: flex; color: darkorange; font-size: 90px""><b>ø</b></div>","null","","","","forget_cue","","","","","","","","","","","","","","","",""
"html-keyboard-response","171","380188","0.0-4.0-1.0-0.4","mr7ebs5rbr1c53k","prime","5f1f105f0d08f80a4388c3f8","5f5a55364e9b770ed21874ff","5f60d802d3c8f904f60dd1b9","false","null","<span style=""color: black; font-size: 48px"">N + M</span>","null","","","","resp_prompt","","","","","","","","","","","","","","","",""
"categorize-image","172","382195","0.0-4.0-1.0-1.4","mr7ebs5rbr1c53k","prime","5f1f105f0d08f80a4388c3f8","5f5a55364e9b770ed21874ff","5f60d802d3c8f904f60dd1b9","true","null","./Stimuli/SelectedImages/SN/SN18.bmp","null","","","","test","false","N + M","83","repetition","SN","SN18.bmp","remember","","69","4","prime1","too_slow","","","",""
"html-keyboard-response","173","382697","0.0-4.0-1.0-2.4-0.4","mr7ebs5rbr1c53k","prime","5f1f105f0d08f80a4388c3f8","5f5a55364e9b770ed21874ff","5f60d802d3c8f904f60dd1b9","false","null","<span style=""color: red; font-size: 48px"">Too slow!</span>","null","","","","feedback","","","","","","","","","","","","","","","",""
"html-keyboard-response","174","384698","0.0-4.0-1.0-3.4","mr7ebs5rbr1c53k","prime","5f1f105f0d08f80a4388c3f8","5f5a55364e9b770ed21874ff","5f60d802d3c8f904f60dd1b9","false","null","<div style=""align-items: center; display: flex; color: dodgerblue; font-size: 90px""><b>o</b></div>","null","","","","forget_cue","","","","","","","","","","","","","","","",""
"html-keyboard-response","175","385400","0.0-4.0-1.0-0.5","mr7ebs5rbr1c53k","prime","5f1f105f0d08f80a4388c3f8","5f5a55364e9b770ed21874ff","5f60d802d3c8f904f60dd1b9","false","null","<span style=""color: black; font-size: 48px"">N + M</span>","null","","","","resp_prompt","","","","","","","","","","","","","","","",""
"categorize-image","176","385845","0.0-4.0-1.0-1.5","mr7ebs5rbr1c53k","prime","5f1f105f0d08f80a4388c3f8","5f5a55364e9b770ed21874ff","5f60d802d3c8f904f60dd1b9","true","441.9999998062849","./Stimuli/SelectedImages/SM/SM207.bmp","83","","","","test","false","N + M","76","repetition","SM","SM207.bmp","remember","","70","4","prime1","left","","","",""
"html-keyboard-response","177","386347","0.0-4.0-1.0-2.5-0.5","mr7ebs5rbr1c53k","prime","5f1f105f0d08f80a4388c3f8","5f5a55364e9b770ed21874ff","5f60d802d3c8f904f60dd1b9","false","null","<span style=""color: red; font-size: 48px"">Error!</span>","null","","","","feedback","","","","","","","","","","","","","","","",""
"html-keyboard-response","178","388349","0.0-4.0-1.0-3.5","mr7ebs5rbr1c53k","prime","5f1f105f0d08f80a4388c3f8","5f5a55364e9b770ed21874ff","5f60d802d3c8f904f60dd1b9","false","null","<div style=""align-items: center; display: flex; color: dodgerblue; font-size: 90px""><b>o</b></div>","null","","","","forget_cue","","","","","","","","","","","","","","","",""
"html-keyboard-response","179","389051","0.0-4.0-1.0-0.6","mr7ebs5rbr1c53k","prime","5f1f105f0d08f80a4388c3f8","5f5a55364e9b770ed21874ff","5f60d802d3c8f904f60dd1b9","false","null","<span style=""color: black; font-size: 48px"">N + M</span>","null","","","","resp_prompt","","","","","","","","","","","","","","","",""
"categorize-image","180","389575","0.0-4.0-1.0-1.6","mr7ebs5rbr1c53k","prime","5f1f105f0d08f80a4388c3f8","5f5a55364e9b770ed21874ff","5f60d802d3c8f904f60dd1b9","true","521.8299999833107","./Stimuli/SelectedImages/LN/LN150.bmp","76","","","","test","false","N + M","83","switch","LN","LN150.bmp","remember","","71","4","prime1","right","","","",""
"html-keyboard-response","181","390077","0.0-4.0-1.0-2.6-0.6","mr7ebs5rbr1c53k","prime","5f1f105f0d08f80a4388c3f8","5f5a55364e9b770ed21874ff","5f60d802d3c8f904f60dd1b9","false","null","<span style=""color: red; font-size: 48px"">Error!</span>","null","","","","feedback","","","","","","","","","","","","","","","",""
"html-keyboard-response","182","392078","0.0-4.0-1.0-3.6","mr7ebs5rbr1c53k","prime","5f1f105f0d08f80a4388c3f8","5f5a55364e9b770ed21874ff","5f60d802d3c8f904f60dd1b9","false","null","<div style=""align-items: center; display: flex; color: dodgerblue; font-size: 90px""><b>o</b></div>","null","","","","forget_cue","","","","","","","","","","","","","","","",""
"html-keyboard-response","183","392780","0.0-4.0-1.0-0.7","mr7ebs5rbr1c53k","prime","5f1f105f0d08f80a4388c3f8","5f5a55364e9b770ed21874ff","5f60d802d3c8f904f60dd1b9","false","null","<span style=""color: black; font-size: 48px"">M + N</span>","null","","","","resp_prompt","","","","","","","","","","","","","","","",""
"categorize-image","184","393029","0.0-4.0-1.0-1.7","mr7ebs5rbr1c53k","prime","5f1f105f0d08f80a4388c3f8","5f5a55364e9b770ed21874ff","5f60d802d3c8f904f60dd1b9","true","245.7050010561943","./Stimuli/SelectedImages/SN/SN64.bmp","76","","","","test","true","M + N","76","switch","SN","SN64.bmp","forget","","72","4","prime1","right","","","",""
"html-keyboard-response","185","395031","0.0-4.0-1.0-3.7","mr7ebs5rbr1c53k","prime","5f1f105f0d08f80a4388c3f8","5f5a55364e9b770ed21874ff","5f60d802d3c8f904f60dd1b9","false","null","<div style=""align-items: center; display: flex; color: darkorange; font-size: 90px""><b>ø</b></div>","null","","","","forget_cue","","","","","","","","","","","","","","","",""
"html-keyboard-response","186","395732","0.0-4.0-1.0-0.8","mr7ebs5rbr1c53k","prime","5f1f105f0d08f80a4388c3f8","5f5a55364e9b770ed21874ff","5f60d802d3c8f904f60dd1b9","false","null","<span style=""color: black; font-size: 48px"">N + M</span>","null","","","","resp_prompt","","","","","","","","","","","","","","","",""
"categorize-image","187","396268","0.0-4.0-1.0-1.8","mr7ebs5rbr1c53k","prime","5f1f105f0d08f80a4388c3f8","5f5a55364e9b770ed21874ff","5f60d802d3c8f904f60dd1b9","true","533.5100013762712","./Stimuli/SelectedImages/SN/SN93.bmp","83","","","","test","true","N + M","83","switch","SN","SN93.bmp","forget","","73","4","prime1","left","","","",""
"html-keyboard-response","188","398269","0.0-4.0-1.0-3.8","mr7ebs5rbr1c53k","prime","5f1f105f0d08f80a4388c3f8","5f5a55364e9b770ed21874ff","5f60d802d3c8f904f60dd1b9","false","null","<div style=""align-items: center; display: flex; color: darkorange; font-size: 90px""><b>ø</b></div>","null","","","","forget_cue","","","","","","","","","","","","","","","",""
"html-keyboard-response","189","398971","0.0-4.0-1.0-0.9","mr7ebs5rbr1c53k","prime","5f1f105f0d08f80a4388c3f8","5f5a55364e9b770ed21874ff","5f60d802d3c8f904f60dd1b9","false","null","<span style=""color: black; font-size: 48px"">M + N</span>","null","","","","resp_prompt","","","","","","","","","","","","","","","",""
"categorize-image","190","399720","0.0-4.0-1.0-1.9","mr7ebs5rbr1c53k","prime","5f1f105f0d08f80a4388c3f8","5f5a55364e9b770ed21874ff","5f60d802d3c8f904f60dd1b9","true","745.6750012934208","./Stimuli/SelectedImages/LN/LN59.bmp","76","","","","test","true","M + N","76","switch","LN","LN59.bmp","remember","","74","4","prime1","right","","","",""
"html-keyboard-response","191","401722","0.0-4.0-1.0-3.9","mr7ebs5rbr1c53k","prime","5f1f105f0d08f80a4388c3f8","5f5a55364e9b770ed21874ff","5f60d802d3c8f904f60dd1b9","false","null","<div style=""align-items: center; display: flex; color: dodgerblue; font-size: 90px""><b>o</b></div>","null","","","","forget_cue","","","","","","","","","","","","","","","",""
"html-keyboard-response","192","402424","0.0-4.0-1.0-0.10","mr7ebs5rbr1c53k","prime","5f1f105f0d08f80a4388c3f8","5f5a55364e9b770ed21874ff","5f60d802d3c8f904f60dd1b9","false","null","<span style=""color: black; font-size: 48px"">M + N</span>","null","","","","resp_prompt","","","","","","","","","","","","","","","",""
"categorize-image","193","402973","0.0-4.0-1.0-1.10","mr7ebs5rbr1c53k","prime","5f1f105f0d08f80a4388c3f8","5f5a55364e9b770ed21874ff","5f60d802d3c8f904f60dd1b9","true","544.5900000631809","./Stimuli/SelectedImages/SM/SM24.bmp","83","","","","test","true","M + N","83","repetition","SM","SM24.bmp","remember","","75","4","prime1","left","","","",""
"html-keyboard-response","194","404974","0.0-4.0-1.0-3.10","mr7ebs5rbr1c53k","prime","5f1f105f0d08f80a4388c3f8","5f5a55364e9b770ed21874ff","5f60d802d3c8f904f60dd1b9","false","null","<div style=""align-items: center; display: flex; color: dodgerblue; font-size: 90px""><b>o</b></div>","null","","","","forget_cue","","","","","","","","","","","","","","","",""
"html-keyboard-response","195","405675","0.0-4.0-1.0-0.11","mr7ebs5rbr1c53k","prime","5f1f105f0d08f80a4388c3f8","5f5a55364e9b770ed21874ff","5f60d802d3c8f904f60dd1b9","false","null","<span style=""color: black; font-size: 48px"">N + M</span>","null","","","","resp_prompt","","","","","","","","","","","","","","","",""
"categorize-image","196","406184","0.0-4.0-1.0-1.11","mr7ebs5rbr1c53k","prime","5f1f105f0d08f80a4388c3f8","5f5a55364e9b770ed21874ff","5f60d802d3c8f904f60dd1b9","true","505.66500052809715","./Stimuli/SelectedImages/LM/LM150.bmp","76","","","","test","true","N + M","76","switch","LM","LM150.bmp","remember","","76","4","prime1","right","","","",""
"html-keyboard-response","197","408185","0.0-4.0-1.0-3.11","mr7ebs5rbr1c53k","prime","5f1f105f0d08f80a4388c3f8","5f5a55364e9b770ed21874ff","5f60d802d3c8f904f60dd1b9","false","null","<div style=""align-items: center; display: flex; color: dodgerblue; font-size: 90px""><b>o</b></div>","null","","","","forget_cue","","","","","","","","","","","","","","","",""
"html-keyboard-response","198","408887","0.0-4.0-1.0-0.12","mr7ebs5rbr1c53k","prime","5f1f105f0d08f80a4388c3f8","5f5a55364e9b770ed21874ff","5f60d802d3c8f904f60dd1b9","false","null","<span style=""color: black; font-size: 48px"">N + M</span>","null","","","","resp_prompt","","","","","","","","","","","","","","","",""
"categorize-image","199","409278","0.0-4.0-1.0-1.12","mr7ebs5rbr1c53k","prime","5f1f105f0d08f80a4388c3f8","5f5a55364e9b770ed21874ff","5f60d802d3c8f904f60dd1b9","true","389.0899997204542","./Stimuli/SelectedImages/LM/LM51.bmp","76","","","","test","true","N + M","76","switch","LM","LM51.bmp","forget","","77","4","prime1","right","","","",""
"html-keyboard-response","200","411280","0.0-4.0-1.0-3.12","mr7ebs5rbr1c53k","prime","5f1f105f0d08f80a4388c3f8","5f5a55364e9b770ed21874ff","5f60d802d3c8f904f60dd1b9","false","null","<div style=""align-items: center; display: flex; color: darkorange; font-size: 90px""><b>ø</b></div>","null","","","","forget_cue","","","","","","","","","","","","","","","",""
"html-keyboard-response","201","411981","0.0-4.0-1.0-0.13","mr7ebs5rbr1c53k","prime","5f1f105f0d08f80a4388c3f8","5f5a55364e9b770ed21874ff","5f60d802d3c8f904f60dd1b9","false","null","<span style=""color: black; font-size: 48px"">N + M</span>","null","","","","resp_prompt","","","","","","","","","","","","","","","",""
"categorize-image","202","412420","0.0-4.0-1.0-1.13","mr7ebs5rbr1c53k","prime","5f1f105f0d08f80a4388c3f8","5f5a55364e9b770ed21874ff","5f60d802d3c8f904f60dd1b9","true","435.96999906003475","./Stimuli/SelectedImages/SM/SM128.bmp","76","","","","test","true","N + M","76","repetition","SM","SM128.bmp","forget","","78","4","prime1","right","","","",""
"html-keyboard-response","203","414422","0.0-4.0-1.0-3.13","mr7ebs5rbr1c53k","prime","5f1f105f0d08f80a4388c3f8","5f5a55364e9b770ed21874ff","5f60d802d3c8f904f60dd1b9","false","null","<div style=""align-items: center; display: flex; color: darkorange; font-size: 90px""><b>ø</b></div>","null","","","","forget_cue","","","","","","","","","","","","","","","",""
"html-keyboard-response","204","415124","0.0-4.0-1.0-0.14","mr7ebs5rbr1c53k","prime","5f1f105f0d08f80a4388c3f8","5f5a55364e9b770ed21874ff","5f60d802d3c8f904f60dd1b9","false","null","<span style=""color: black; font-size: 48px"">M + N</span>","null","","","","resp_prompt","","","","","","","","","","","","","","","",""
"categorize-image","205","415710","0.0-4.0-1.0-1.14","mr7ebs5rbr1c53k","prime","5f1f105f0d08f80a4388c3f8","5f5a55364e9b770ed21874ff","5f60d802d3c8f904f60dd1b9","true","582.659998908639","./Stimuli/SelectedImages/LN/LN82.bmp","83","","","","test","false","M + N","76","repetition","LN","LN82.bmp","remember","","79","4","prime1","left","","","",""
"html-keyboard-response","206","416212","0.0-4.0-1.0-2.14-0.14","mr7ebs5rbr1c53k","prime","5f1f105f0d08f80a4388c3f8","5f5a55364e9b770ed21874ff","5f60d802d3c8f904f60dd1b9","false","null","<span style=""color: red; font-size: 48px"">Error!</span>","null","","","","feedback","","","","","","","","","","","","","","","",""
"html-keyboard-response","207","418214","0.0-4.0-1.0-3.14","mr7ebs5rbr1c53k","prime","5f1f105f0d08f80a4388c3f8","5f5a55364e9b770ed21874ff","5f60d802d3c8f904f60dd1b9","false","null","<div style=""align-items: center; display: flex; color: dodgerblue; font-size: 90px""><b>o</b></div>","null","","","","forget_cue","","","","","","","","","","","","","","","",""
"html-keyboard-response","208","418915","0.0-4.0-1.0-0.15","mr7ebs5rbr1c53k","prime","5f1f105f0d08f80a4388c3f8","5f5a55364e9b770ed21874ff","5f60d802d3c8f904f60dd1b9","false","null","<span style=""color: black; font-size: 48px"">M + N</span>","null","","","","resp_prompt","","","","","","","","","","","","","","","",""
"categorize-image","209","419201","0.0-4.0-1.0-1.15","mr7ebs5rbr1c53k","prime","5f1f105f0d08f80a4388c3f8","5f5a55364e9b770ed21874ff","5f60d802d3c8f904f60dd1b9","true","282.73999877274036","./Stimuli/SelectedImages/LM/LM48.bmp","76","","","","test","false","M + N","83","switch","LM","LM48.bmp","remember","","80","4","prime1","right","","","",""
"html-keyboard-response","210","419703","0.0-4.0-1.0-2.15-0.15","mr7ebs5rbr1c53k","prime","5f1f105f0d08f80a4388c3f8","5f5a55364e9b770ed21874ff","5f60d802d3c8f904f60dd1b9","false","null","<span style=""color: red; font-size: 48px"">Error!</span>","null","","","","feedback","","","","","","","","","","","","","","","",""
"html-keyboard-response","211","421705","0.0-4.0-1.0-3.15","mr7ebs5rbr1c53k","prime","5f1f105f0d08f80a4388c3f8","5f5a55364e9b770ed21874ff","5f60d802d3c8f904f60dd1b9","false","null","<div style=""align-items: center; display: flex; color: dodgerblue; font-size: 90px""><b>o</b></div>","null","","","","forget_cue","","","","","","","","","","","","","","","",""
"html-keyboard-response","212","422406","0.0-4.0-1.0-0.16","mr7ebs5rbr1c53k","prime","5f1f105f0d08f80a4388c3f8","5f5a55364e9b770ed21874ff","5f60d802d3c8f904f60dd1b9","false","null","<span style=""color: black; font-size: 48px"">M + N</span>","null","","","","resp_prompt","","","","","","","","","","","","","","","",""
"categorize-image","213","422569","0.0-4.0-1.0-1.16","mr7ebs5rbr1c53k","prime","5f1f105f0d08f80a4388c3f8","5f5a55364e9b770ed21874ff","5f60d802d3c8f904f60dd1b9","true","159.96500104665756","./Stimuli/SelectedImages/SM/SM74.bmp","83","","","","test","true","M + N","83","repetition","SM","SM74.bmp","forget","","81","4","prime1","left","","","",""
"html-keyboard-response","214","424570","0.0-4.0-1.0-3.16","mr7ebs5rbr1c53k","prime","5f1f105f0d08f80a4388c3f8","5f5a55364e9b770ed21874ff","5f60d802d3c8f904f60dd1b9","false","null","<div style=""align-items: center; display: flex; color: darkorange; font-size: 90px""><b>ø</b></div>","null","","","","forget_cue","","","","","","","","","","","","","","","",""
"html-keyboard-response","215","425272","0.0-4.0-1.0-0.17","mr7ebs5rbr1c53k","prime","5f1f105f0d08f80a4388c3f8","5f5a55364e9b770ed21874ff","5f60d802d3c8f904f60dd1b9","false","null","<span style=""color: black; font-size: 48px"">M + N</span>","null","","","","resp_prompt","","","","","","","","","","","","","","","",""
"categorize-image","216","425518","0.0-4.0-1.0-1.17","mr7ebs5rbr1c53k","prime","5f1f105f0d08f80a4388c3f8","5f5a55364e9b770ed21874ff","5f60d802d3c8f904f60dd1b9","true","243.80999989807606","./Stimuli/SelectedImages/LN/LN101.bmp","83","","","","test","false","M + N","76","switch","LN","LN101.bmp","forget","","82","4","prime1","left","","","",""
"html-keyboard-response","217","426020","0.0-4.0-1.0-2.17-0.17","mr7ebs5rbr1c53k","prime","5f1f105f0d08f80a4388c3f8","5f5a55364e9b770ed21874ff","5f60d802d3c8f904f60dd1b9","false","null","<span style=""color: red; font-size: 48px"">Error!</span>","null","","","","feedback","","","","","","","","","","","","","","","",""
"html-keyboard-response","218","428021","0.0-4.0-1.0-3.17","mr7ebs5rbr1c53k","prime","5f1f105f0d08f80a4388c3f8","5f5a55364e9b770ed21874ff","5f60d802d3c8f904f60dd1b9","false","null","<div style=""align-items: center; display: flex; color: darkorange; font-size: 90px""><b>ø</b></div>","null","","","","forget_cue","","","","","","","","","","","","","","","",""
"html-keyboard-response","219","428722","0.0-4.0-1.0-0.18","mr7ebs5rbr1c53k","prime","5f1f105f0d08f80a4388c3f8","5f5a55364e9b770ed21874ff","5f60d802d3c8f904f60dd1b9","false","null","<span style=""color: black; font-size: 48px"">M + N</span>","null","","","","resp_prompt","","","","","","","","","","","","","","","",""
"categorize-image","220","429018","0.0-4.0-1.0-1.18","mr7ebs5rbr1c53k","prime","5f1f105f0d08f80a4388c3f8","5f5a55364e9b770ed21874ff","5f60d802d3c8f904f60dd1b9","true","292.8749993443489","./Stimuli/SelectedImages/LM/LM216.bmp","83","","","","test","true","M + N","83","repetition","LM","LM216.bmp","forget","","83","4","prime1","left","","","",""
"html-keyboard-response","221","431020","0.0-4.0-1.0-3.18","mr7ebs5rbr1c53k","prime","5f1f105f0d08f80a4388c3f8","5f5a55364e9b770ed21874ff","5f60d802d3c8f904f60dd1b9","false","null","<div style=""align-items: center; display: flex; color: darkorange; font-size: 90px""><b>ø</b></div>","null","","","","forget_cue","","","","","","","","","","","","","","","",""
"html-keyboard-response","222","431721","0.0-4.0-1.0-0.19","mr7ebs5rbr1c53k","prime","5f1f105f0d08f80a4388c3f8","5f5a55364e9b770ed21874ff","5f60d802d3c8f904f60dd1b9","false","null","<span style=""color: black; font-size: 48px"">N + M</span>","null","","","","resp_prompt","","","","","","","","","","","","","","","",""
"categorize-image","223","432185","0.0-4.0-1.0-1.19","mr7ebs5rbr1c53k","prime","5f1f105f0d08f80a4388c3f8","5f5a55364e9b770ed21874ff","5f60d802d3c8f904f60dd1b9","true","461.06499992311","./Stimuli/SelectedImages/LM/LM103.bmp","76","","","","test","true","N + M","76","switch","LM","LM103.bmp","forget","","84","4","prime1","right","","","",""
"html-keyboard-response","224","434186","0.0-4.0-1.0-3.19","mr7ebs5rbr1c53k","prime","5f1f105f0d08f80a4388c3f8","5f5a55364e9b770ed21874ff","5f60d802d3c8f904f60dd1b9","false","null","<div style=""align-items: center; display: flex; color: darkorange; font-size: 90px""><b>ø</b></div>","null","","","","forget_cue","","","","","","","","","","","","","","","",""
"html-keyboard-response","225","434889","0.0-4.0-1.0-0.20","mr7ebs5rbr1c53k","prime","5f1f105f0d08f80a4388c3f8","5f5a55364e9b770ed21874ff","5f60d802d3c8f904f60dd1b9","false","null","<span style=""color: black; font-size: 48px"">M + N</span>","null","","","","resp_prompt","","","","","","","","","","","","","","","",""
"categorize-image","226","435420","0.0-4.0-1.0-1.20","mr7ebs5rbr1c53k","prime","5f1f105f0d08f80a4388c3f8","5f5a55364e9b770ed21874ff","5f60d802d3c8f904f60dd1b9","true","527.5550000369549","./Stimuli/SelectedImages/LN/LN13.bmp","83","","","","test","false","M + N","76","switch","LN","LN13.bmp","remember","","85","4","prime1","left","","","",""
"html-keyboard-response","227","435923","0.0-4.0-1.0-2.20-0.20","mr7ebs5rbr1c53k","prime","5f1f105f0d08f80a4388c3f8","5f5a55364e9b770ed21874ff","5f60d802d3c8f904f60dd1b9","false","null","<span style=""color: red; font-size: 48px"">Error!</span>","null","","","","feedback","","","","","","","","","","","","","","","",""
"html-keyboard-response","228","437925","0.0-4.0-1.0-3.20","mr7ebs5rbr1c53k","prime","5f1f105f0d08f80a4388c3f8","5f5a55364e9b770ed21874ff","5f60d802d3c8f904f60dd1b9","false","null","<div style=""align-items: center; display: flex; color: dodgerblue; font-size: 90px""><b>o</b></div>","null","","","","forget_cue","","","","","","","","","","","","","","","",""
"html-keyboard-response","229","438627","0.0-4.0-1.0-0.21","mr7ebs5rbr1c53k","prime","5f1f105f0d08f80a4388c3f8","5f5a55364e9b770ed21874ff","5f60d802d3c8f904f60dd1b9","false","null","<span style=""color: black; font-size: 48px"">M + N</span>","null","","","","resp_prompt","","","","","","","","","","","","","","","",""
"categorize-image","230","439135","0.0-4.0-1.0-1.21","mr7ebs5rbr1c53k","prime","5f1f105f0d08f80a4388c3f8","5f5a55364e9b770ed21874ff","5f60d802d3c8f904f60dd1b9","true","504.0000006556511","./Stimuli/SelectedImages/SM/SM106.bmp","76","","","","test","false","M + N","83","switch","SM","SM106.bmp","forget","","86","4","prime1","right","","","",""
"html-keyboard-response","231","439637","0.0-4.0-1.0-2.21-0.21","mr7ebs5rbr1c53k","prime","5f1f105f0d08f80a4388c3f8","5f5a55364e9b770ed21874ff","5f60d802d3c8f904f60dd1b9","false","null","<span style=""color: red; font-size: 48px"">Error!</span>","null","","","","feedback","","","","","","","","","","","","","","","",""
"html-keyboard-response","232","441638","0.0-4.0-1.0-3.21","mr7ebs5rbr1c53k","prime","5f1f105f0d08f80a4388c3f8","5f5a55364e9b770ed21874ff","5f60d802d3c8f904f60dd1b9","false","null","<div style=""align-items: center; display: flex; color: darkorange; font-size: 90px""><b>ø</b></div>","null","","","","forget_cue","","","","","","","","","","","","","","","",""
"html-keyboard-response","233","442340","0.0-4.0-1.0-0.22","mr7ebs5rbr1c53k","prime","5f1f105f0d08f80a4388c3f8","5f5a55364e9b770ed21874ff","5f60d802d3c8f904f60dd1b9","false","null","<span style=""color: black; font-size: 48px"">M + N</span>","null","","","","resp_prompt","","","","","","","","","","","","","","","",""
"categorize-image","234","442639","0.0-4.0-1.0-1.22","mr7ebs5rbr1c53k","prime","5f1f105f0d08f80a4388c3f8","5f5a55364e9b770ed21874ff","5f60d802d3c8f904f60dd1b9","true","296.034999191761","./Stimuli/SelectedImages/SM/SM200.bmp","76","","","","test","false","M + N","83","repetition","SM","SM200.bmp","forget","","87","4","prime1","right","","","",""
"html-keyboard-response","235","443141","0.0-4.0-1.0-2.22-0.22","mr7ebs5rbr1c53k","prime","5f1f105f0d08f80a4388c3f8","5f5a55364e9b770ed21874ff","5f60d802d3c8f904f60dd1b9","false","null","<span style=""color: red; font-size: 48px"">Error!</span>","null","","","","feedback","","","","","","","","","","","","","","","",""
"html-keyboard-response","236","445143","0.0-4.0-1.0-3.22","mr7ebs5rbr1c53k","prime","5f1f105f0d08f80a4388c3f8","5f5a55364e9b770ed21874ff","5f60d802d3c8f904f60dd1b9","false","null","<div style=""align-items: center; display: flex; color: darkorange; font-size: 90px""><b>ø</b></div>","null","","","","forget_cue","","","","","","","","","","","","","","","",""
"html-keyboard-response","237","445844","0.0-4.0-1.0-0.23","mr7ebs5rbr1c53k","prime","5f1f105f0d08f80a4388c3f8","5f5a55364e9b770ed21874ff","5f60d802d3c8f904f60dd1b9","false","null","<span style=""color: black; font-size: 48px"">N + M</span>","null","","","","resp_prompt","","","","","","","","","","","","","","","",""
"categorize-image","238","445937","0.0-4.0-1.0-1.23","mr7ebs5rbr1c53k","prime","5f1f105f0d08f80a4388c3f8","5f5a55364e9b770ed21874ff","5f60d802d3c8f904f60dd1b9","true","89.27999995648861","./Stimuli/SelectedImages/SN/SN111.bmp","83","","","","test","true","N + M","83","repetition","SN","SN111.bmp","forget","","88","4","prime1","left","","","",""
"html-keyboard-response","239","447938","0.0-4.0-1.0-3.23","mr7ebs5rbr1c53k","prime","5f1f105f0d08f80a4388c3f8","5f5a55364e9b770ed21874ff","5f60d802d3c8f904f60dd1b9","false","null","<div style=""align-items: center; display: flex; color: darkorange; font-size: 90px""><b>ø</b></div>","null","","","","forget_cue","","","","","","","","","","","","","","","",""
"html-keyboard-response","240","448640","0.0-4.0-1.0-0.24","mr7ebs5rbr1c53k","prime","5f1f105f0d08f80a4388c3f8","5f5a55364e9b770ed21874ff","5f60d802d3c8f904f60dd1b9","false","null","<span style=""color: black; font-size: 48px"">N + M</span>","null","","","","resp_prompt","","","","","","","","","","","","","","","",""
"categorize-image","241","448895","0.0-4.0-1.0-1.24","mr7ebs5rbr1c53k","prime","5f1f105f0d08f80a4388c3f8","5f5a55364e9b770ed21874ff","5f60d802d3c8f904f60dd1b9","true","252.40499898791313","./Stimuli/SelectedImages/SN/SN128.bmp","83","","","","test","true","N + M","83","switch","SN","SN128.bmp","remember","","89","4","prime1","left","","","",""
"html-keyboard-response","242","450896","0.0-4.0-1.0-3.24","mr7ebs5rbr1c53k","prime","5f1f105f0d08f80a4388c3f8","5f5a55364e9b770ed21874ff","5f60d802d3c8f904f60dd1b9","false","null","<div style=""align-items: center; display: flex; color: dodgerblue; font-size: 90px""><b>o</b></div>","null","","","","forget_cue","","","","","","","","","","","","","","","",""
"html-keyboard-response","243","451599","0.0-4.0-1.0-0.25","mr7ebs5rbr1c53k","prime","5f1f105f0d08f80a4388c3f8","5f5a55364e9b770ed21874ff","5f60d802d3c8f904f60dd1b9","false","null","<span style=""color: black; font-size: 48px"">M + N</span>","null","","","","resp_prompt","","","","","","","","","","","","","","","",""
"categorize-image","244","452264","0.0-4.0-1.0-1.25","mr7ebs5rbr1c53k","prime","5f1f105f0d08f80a4388c3f8","5f5a55364e9b770ed21874ff","5f60d802d3c8f904f60dd1b9","true","660.6300007551908","./Stimuli/SelectedImages/SM/SM73.bmp","83","","","","test","true","M + N","83","switch","SM","SM73.bmp","remember","","90","4","prime1","left","","","",""
"html-keyboard-response","245","454266","0.0-4.0-1.0-3.25","mr7ebs5rbr1c53k","prime","5f1f105f0d08f80a4388c3f8","5f5a55364e9b770ed21874ff","5f60d802d3c8f904f60dd1b9","false","null","<div style=""align-items: center; display: flex; color: dodgerblue; font-size: 90px""><b>o</b></div>","null","","","","forget_cue","","","","","","","","","","","","","","","",""
"html-keyboard-response","246","454967","0.0-4.0-1.0-0.26","mr7ebs5rbr1c53k","prime","5f1f105f0d08f80a4388c3f8","5f5a55364e9b770ed21874ff","5f60d802d3c8f904f60dd1b9","false","null","<span style=""color: black; font-size: 48px"">M + N</span>","null","","","","resp_prompt","","","","","","","","","","","","","","","",""
