"trial_type","trial_index","time_elapsed","internal_node_id","subject","exp_part","prolific_PID","study_ID","session_ID","use","rt","stimulus","key_press","button_pressed","responses","question_order","trial_part","correct","resp_map","correct_resp","probe_condition","category","image","forget_condition","list","trial_num","block_num","block","response","test_part","n_span","sequence","num_spaces"
"pavlovia","0","11","0.0-0.0","9pjg1wlt09toqu3","","5f4eabfe4184f70d6428afdc","5f60e3c0a3b16e07647b2ff9","5f60ec477836cc0008fe88a5","false","","","","","","","","","","","","","","","","","","","","","","",""
"html-keyboard-response","1","15691","0.0-1.0-0.0-0.0","9pjg1wlt09toqu3","welcome","5f4eabfe4184f70d6428afdc","5f60e3c0a3b16e07647b2ff9","5f60ec477836cc0008fe88a5","false","15678","<div align=left>Dear participant, <br> thank you for participating in an online study of the Cognition, Action, and Sustainability Unit of the University of Freiburg! <br> <br>The aim of this study is to examine our ability to remember previously learned information. <br>Our goal is to find out, whether our memory improves, when we only remember information that is relevant to us. <br>The experiment will take about 35 minutes to complete. <br> <br>Please, note that you can only participate in this study if you are using a device with a keyboard (PC, Laptop etc.) <br>and not if you are using a mobile device such as a tablet or smartphone.<br> <br>Press 'SPACE' to proceed to the experiment. </div>","32","","","","","","","","","","","","","","","","","","","",""
"html-keyboard-response","2","44022","0.0-1.0-0.0-1.0","9pjg1wlt09toqu3","welcome","5f4eabfe4184f70d6428afdc","5f60e3c0a3b16e07647b2ff9","5f60ec477836cc0008fe88a5","false","28329","<div align=left><strong> Time Course of this experiment: </strong> <br><br> <strong> 1.</strong>  First, please fill in some information regarding your demographic data. <br><br> <strong> 2.</strong>  Next, your task will be to classify everyday objects. <br>In addition, you will be asked to remember certain objects and recall them later. <br>Working on these tasks requires your undivided attention and concentration.<br>It is therefore essential that you eliminate any sources of distraction in your  <br>environment and ensure that you will not be disturbed. <br><br><strong> 3.</strong>  At the end of the experiment, you will be asked to answer a few additional questions. <br> <br><strong> Important:</strong> After finishing the experiment, only close the browser window <br> by clicking on the 'end the experiment'-button when you are asked to do so. <br>Closing the browser window prematurely will make the allocation of your participation credit impossible. <br><br> Press 'SPACE' to start the experiment. </div>","32","","","","","","","","","","","","","","","","","","","",""
"html-button-response","3","55091","0.0-1.0-0.0-2.0","9pjg1wlt09toqu3","welcome","5f4eabfe4184f70d6428afdc","5f60e3c0a3b16e07647b2ff9","5f60ec477836cc0008fe88a5","true","11066","<div align=left><strong> Informed consent </strong>  <br>The aim of our research is to better understand human behavior and mental processes. <br>In the following study your behavior (e.g. choices, reaction times) will be studied. <br> <br><strong> Voluntariness and Anonymity </strong> <br>Your participation in this study is  <strong> voluntary</strong>.<br>You may withdraw your consent to participate at any time without providing a reason for doing so and without fear of prejudice. <br><br>As no personal data will be collected, <strong>your data and your person cannot be connected after data collection</strong> – the data-set is anonymous. <br>Respectively, deletion of your data will not be possible after data collection has been completed, as we cannot retrace your data-set.<br>The results and anonymized data collected in this study will be published as a scientific publication. <br>This will happen in an <strong>anonymized format</strong>, so that no data can be traced back to a specific person. <br> <br>The anonymized data of this study will be made available to other researchers and/or in a data archive on the Internet as a means of transparency and to enable subsequent re-use. By doing so, this study follows the recommendations of the Deutsche Forschungsgemeinschaft (DFG, German Research Foundation) and Deutsche Gesellschaft für Psychologie (DGPS, German Psychological Society) regarding quality assurance in research.<br>If you have any questions now or after the experiment, please contact our team (experiments@cs.uni-freiburg.de).<br><br><br>I hereby declare, that I understand the above described conditions of participation and I agree to participate under these conditions. <br><br> </div>","","0","","","","","","","","","","","","","","","","","","",""
"html-keyboard-response","4","72041","0.0-1.0-0.0-3.0","9pjg1wlt09toqu3","welcome","5f4eabfe4184f70d6428afdc","5f60e3c0a3b16e07647b2ff9","5f60ec477836cc0008fe88a5","false","16946","<div align=left><strong> General information concerning the experiment </strong>  <br> <br>Please follow the instructions:<ol> <li><strong> Do not leave this tab (your browser window) during the experiment and do not reload this tab! </strong>  <br>If you do switch tabs/windows during the experiment (to check your mail or visit another website, for example), <br>the experiment will end automatically and you will <strong>not receive credit</strong> for your participation. <br>Repeated participation or resumption of the experiment is impossible.</li> <br><li>Please close all other programs for the duration of your participation. </li> <br><li>Please mute or turn off your phone and put it out of your reach. </li> <br><li>Please also take off any disturbing accessories (such as wristwatches, bracelets, etc.). </li> <br><li>If you have music playing in the background, please turn it off now. </li> <br></ol>Thank you! <br>Press 'SPACE' to continue. </div>","32","","","","","","","","","","","","","","","","","","","",""
"survey-text","5","75929","0.0-1.0-1.0-0.0","9pjg1wlt09toqu3","demographics","5f4eabfe4184f70d6428afdc","5f60e3c0a3b16e07647b2ff9","5f60ec477836cc0008fe88a5","true","3884","","","","{""age"":""27""}","","","","","","","","","","","","","","","","","",""
"survey-multi-choice","6","88150","0.0-1.0-1.0-1.0","9pjg1wlt09toqu3","demographics","5f4eabfe4184f70d6428afdc","5f60e3c0a3b16e07647b2ff9","5f60ec477836cc0008fe88a5","true","12214","","","","{""gender"":""male"",""school"":""high school"",""education"":""High school graduate, diploma or equivalent""}","[0,1,2]","","","","","","","","","","","","","","","","",""
"html-keyboard-response","7","98662","0.0-1.0-2.0","9pjg1wlt09toqu3","instructions","5f4eabfe4184f70d6428afdc","5f60e3c0a3b16e07647b2ff9","5f60ec477836cc0008fe88a5","false","10508","<div align=left> The experiment is now about to start: <br> <br>In the following part, you will be presented pictures of everyday objects. <br>Your first task is to <strong>classify these objects. </strong> <br> <br> You will classify them either as mechanical or non-mechanical objects. <br> <br>Objects that include any kind of technical mechanism (for example, wheels, switches, levers, <br> electronic components) fall under the category of <strong>mechanical</strong> objects. <br>Only objects without any kind of technical mechanism should be classified as <strong>non-mechanical</strong>. <br><br>Press 'SPACE' to continue. </div>","32","","","","","","","","","","","","","","","","","","","",""
"html-keyboard-response","8","135717","0.0-2.0-0.0","9pjg1wlt09toqu3","instructions","5f4eabfe4184f70d6428afdc","5f60e3c0a3b16e07647b2ff9","5f60ec477836cc0008fe88a5","false","37055","<div align=justify>You will classify the objects using the <strong>'S'</strong> and the <strong>'L'</strong> keys on your keyboard.<br>For doing so, please place your <strong>left index finger</strong> on the <strong>'S'</strong> key and place your <strong>right index finger</strong> on the <strong>'L'</strong> key. <br><br> Each trial starts with an instruction, indicating which key ('S'/'L') you need to press to classify <br>the object as mechanical (letter M) or non-mechanical (letter N).<br>The instruction <strong>M + N</strong> indicates that, in the current trial, by pressing the left key ('S') you classify the displayed object as mechanical (M) <br> and by pressing the right key ('L') you classify the object as non-mechanical (N). <br>The instruction <strong>N + M</strong> on the other hand indicates that by pressing the left key ('S') you classify the displayed object as non-mechanical (N) <br> and by pressing the right key ('L') you classify the object as mechanical (M). <br><br>Please press the key corresponding to the correct classification as fast as possible as soon as the object is displayed and try to avoid making mistakes.<br>If you do not respond within a 2 second window, a corresponding feedback will be displayed and the next trial will start.<br> The experiment is divided into multiple blocks to give you the opportunity to take a break after each block. <br>First, you can now practice this task. <br><br>Please place your <strong>LEFT INDEX FINGER</strong> on the 'S' key and your <strong>RIGHT INDEX FINGER</strong> on the 'L' key now. <br><br>Press SPACE to continue.</div>","32","","","","","","","","","","","","","","","","","","","",""
"html-keyboard-response","9","144860","0.0-2.0-1.0","9pjg1wlt09toqu3","instructions","5f4eabfe4184f70d6428afdc","5f60e3c0a3b16e07647b2ff9","5f60ec477836cc0008fe88a5","false","9144","<div align=left> You will now have time to practice this task.<br><br>Remember: <br> <br><li>Please place your index fingers on the <strong>'S'</strong> and <strong>'L'</strong> keys <br>to respond as fast and accurately as possible.</li><li>Every picture can be classified as either mechanical or non-mechanical.</li><li>If you do not respond in time or commit an error, you will receive a corresponding feedback. </li><li> Please try to respond as <strong> fast </strong> and as <strong> accurately as possible </strong> .<br><li>To ensure optimal results, please minimize distractions and stay focused. </li><br><br>Press SPACE to continue.</div>","32","","","","","","","","","","","","","","","","","","","",""
"html-keyboard-response","10","145577","0.0-2.0-2.0-0.0","9pjg1wlt09toqu3","practice_no_cue","5f4eabfe4184f70d6428afdc","5f60e3c0a3b16e07647b2ff9","5f60ec477836cc0008fe88a5","false","null","<span style=""color: black; font-size: 48px"">N + M</span>","null","","","","resp_prompt","","","","","","","","","","","","","","","",""
"categorize-image","11","146302","0.0-2.0-2.0-1.0","9pjg1wlt09toqu3","practice_no_cue","5f4eabfe4184f70d6428afdc","5f60e3c0a3b16e07647b2ff9","5f60ec477836cc0008fe88a5","true","221","./Stimuli/ImagesPractice/LM147.jpg","83","","","","test","false","N + M","76","","LM","LM147.jpg","remember","old","1","1","start","left","","","",""
"html-keyboard-response","12","147012","0.0-2.0-2.0-0.1","9pjg1wlt09toqu3","practice_no_cue","5f4eabfe4184f70d6428afdc","5f60e3c0a3b16e07647b2ff9","5f60ec477836cc0008fe88a5","false","null","<span style=""color: black; font-size: 48px"">M + N</span>","null","","","","resp_prompt","","","","","","","","","","","","","","","",""
"categorize-image","13","148447","0.0-2.0-2.0-1.1","9pjg1wlt09toqu3","practice_no_cue","5f4eabfe4184f70d6428afdc","5f60e3c0a3b16e07647b2ff9","5f60ec477836cc0008fe88a5","true","919","./Stimuli/ImagesPractice/SM61.jpg","76","","","","test","false","M + N","83","","SM","SM61.jpg","remember","old","2","1","start","right","","","",""
"html-keyboard-response","14","149161","0.0-2.0-2.0-0.2","9pjg1wlt09toqu3","practice_no_cue","5f4eabfe4184f70d6428afdc","5f60e3c0a3b16e07647b2ff9","5f60ec477836cc0008fe88a5","false","null","<span style=""color: black; font-size: 48px"">M + N</span>","null","","","","resp_prompt","","","","","","","","","","","","","","","",""
"categorize-image","15","151688","0.0-2.0-2.0-1.2","9pjg1wlt09toqu3","practice_no_cue","5f4eabfe4184f70d6428afdc","5f60e3c0a3b16e07647b2ff9","5f60ec477836cc0008fe88a5","true","null","./Stimuli/ImagesPractice/SN221.jpg","null","","","","test","false","M + N","76","","SN","SN221.jpg","remember","old","3","1","start","too_slow","","","",""
"html-keyboard-response","16","152395","0.0-2.0-2.0-0.3","9pjg1wlt09toqu3","practice_no_cue","5f4eabfe4184f70d6428afdc","5f60e3c0a3b16e07647b2ff9","5f60ec477836cc0008fe88a5","false","null","<span style=""color: black; font-size: 48px"">N + M</span>","null","","","","resp_prompt","","","","","","","","","","","","","","","",""
"categorize-image","17","153582","0.0-2.0-2.0-1.3","9pjg1wlt09toqu3","practice_no_cue","5f4eabfe4184f70d6428afdc","5f60e3c0a3b16e07647b2ff9","5f60ec477836cc0008fe88a5","true","682","./Stimuli/ImagesPractice/LM55.jpg","83","","","","test","false","N + M","76","","LM","LM55.jpg","forget","old","4","1","start","left","","","",""
"html-keyboard-response","18","154286","0.0-2.0-2.0-0.4","9pjg1wlt09toqu3","practice_no_cue","5f4eabfe4184f70d6428afdc","5f60e3c0a3b16e07647b2ff9","5f60ec477836cc0008fe88a5","false","null","<span style=""color: black; font-size: 48px"">M + N</span>","null","","","","resp_prompt","","","","","","","","","","","","","","","",""
"categorize-image","19","155413","0.0-2.0-2.0-1.4","9pjg1wlt09toqu3","practice_no_cue","5f4eabfe4184f70d6428afdc","5f60e3c0a3b16e07647b2ff9","5f60ec477836cc0008fe88a5","true","624","./Stimuli/ImagesPractice/SN76.jpg","83","","","","test","false","M + N","76","","SN","SN76.jpg","forget","old","5","1","start","left","","","",""
"html-keyboard-response","20","156118","0.0-2.0-2.0-0.5","9pjg1wlt09toqu3","practice_no_cue","5f4eabfe4184f70d6428afdc","5f60e3c0a3b16e07647b2ff9","5f60ec477836cc0008fe88a5","false","null","<span style=""color: black; font-size: 48px"">M + N</span>","null","","","","resp_prompt","","","","","","","","","","","","","","","",""
"categorize-image","21","157687","0.0-2.0-2.0-1.5","9pjg1wlt09toqu3","practice_no_cue","5f4eabfe4184f70d6428afdc","5f60e3c0a3b16e07647b2ff9","5f60ec477836cc0008fe88a5","true","1053","./Stimuli/ImagesPractice/LM230.jpg","83","","","","test","true","M + N","83","","LM","LM230.jpg","forget","old","6","1","start","left","","","",""
"html-keyboard-response","22","158401","0.0-2.0-2.0-0.6","9pjg1wlt09toqu3","practice_no_cue","5f4eabfe4184f70d6428afdc","5f60e3c0a3b16e07647b2ff9","5f60ec477836cc0008fe88a5","false","null","<span style=""color: black; font-size: 48px"">N + M</span>","null","","","","resp_prompt","","","","","","","","","","","","","","","",""
"categorize-image","23","159156","0.0-2.0-2.0-1.6","9pjg1wlt09toqu3","practice_no_cue","5f4eabfe4184f70d6428afdc","5f60e3c0a3b16e07647b2ff9","5f60ec477836cc0008fe88a5","true","253","./Stimuli/ImagesPractice/LN72.jpg","76","","","","test","false","N + M","83","","LN","LN72.jpg","forget","old","7","1","start","right","","","",""
"html-keyboard-response","24","159862","0.0-2.0-2.0-0.7","9pjg1wlt09toqu3","practice_no_cue","5f4eabfe4184f70d6428afdc","5f60e3c0a3b16e07647b2ff9","5f60ec477836cc0008fe88a5","false","null","<span style=""color: black; font-size: 48px"">N + M</span>","null","","","","resp_prompt","","","","","","","","","","","","","","","",""
"categorize-image","25","160851","0.0-2.0-2.0-1.7","9pjg1wlt09toqu3","practice_no_cue","5f4eabfe4184f70d6428afdc","5f60e3c0a3b16e07647b2ff9","5f60ec477836cc0008fe88a5","true","485","./Stimuli/ImagesPractice/SN220.jpg","83","","","","test","true","N + M","83","","SN","SN220.jpg","forget","old","8","1","start","left","","","",""
"html-keyboard-response","26","161557","0.0-2.0-2.0-0.8","9pjg1wlt09toqu3","practice_no_cue","5f4eabfe4184f70d6428afdc","5f60e3c0a3b16e07647b2ff9","5f60ec477836cc0008fe88a5","false","null","<span style=""color: black; font-size: 48px"">M + N</span>","null","","","","resp_prompt","","","","","","","","","","","","","","","",""
"categorize-image","27","162493","0.0-2.0-2.0-1.8","9pjg1wlt09toqu3","practice_no_cue","5f4eabfe4184f70d6428afdc","5f60e3c0a3b16e07647b2ff9","5f60ec477836cc0008fe88a5","true","422","./Stimuli/ImagesPractice/LM239.jpg","76","","","","test","false","M + N","83","","LM","LM239.jpg","forget","old","9","1","start","right","","","",""
"html-keyboard-response","28","163206","0.0-2.0-2.0-0.9","9pjg1wlt09toqu3","practice_no_cue","5f4eabfe4184f70d6428afdc","5f60e3c0a3b16e07647b2ff9","5f60ec477836cc0008fe88a5","false","null","<span style=""color: black; font-size: 48px"">M + N</span>","null","","","","resp_prompt","","","","","","","","","","","","","","","",""
"categorize-image","29","164132","0.0-2.0-2.0-1.9","9pjg1wlt09toqu3","practice_no_cue","5f4eabfe4184f70d6428afdc","5f60e3c0a3b16e07647b2ff9","5f60ec477836cc0008fe88a5","true","416","./Stimuli/ImagesPractice/LN109.jpg","83","","","","test","false","M + N","76","","LN","LN109.jpg","remember","old","10","1","start","left","","","",""
"html-keyboard-response","30","164836","0.0-2.0-2.0-0.10","9pjg1wlt09toqu3","practice_no_cue","5f4eabfe4184f70d6428afdc","5f60e3c0a3b16e07647b2ff9","5f60ec477836cc0008fe88a5","false","null","<span style=""color: black; font-size: 48px"">M + N</span>","null","","","","resp_prompt","","","","","","","","","","","","","","","",""
"categorize-image","31","165963","0.0-2.0-2.0-1.10","9pjg1wlt09toqu3","practice_no_cue","5f4eabfe4184f70d6428afdc","5f60e3c0a3b16e07647b2ff9","5f60ec477836cc0008fe88a5","true","624","./Stimuli/ImagesPractice/SN205.jpg","76","","","","test","true","M + N","76","","SN","SN205.jpg","remember","old","11","1","start","right","","","",""
"html-keyboard-response","32","166663","0.0-2.0-2.0-0.11","9pjg1wlt09toqu3","practice_no_cue","5f4eabfe4184f70d6428afdc","5f60e3c0a3b16e07647b2ff9","5f60ec477836cc0008fe88a5","false","null","<span style=""color: black; font-size: 48px"">M + N</span>","null","","","","resp_prompt","","","","","","","","","","","","","","","",""
"categorize-image","33","167852","0.0-2.0-2.0-1.11","9pjg1wlt09toqu3","practice_no_cue","5f4eabfe4184f70d6428afdc","5f60e3c0a3b16e07647b2ff9","5f60ec477836cc0008fe88a5","true","674","./Stimuli/ImagesPractice/SM62.jpg","83","","","","test","true","M + N","83","","SM","SM62.jpg","forget","old","12","1","start","left","","","",""
"html-keyboard-response","34","168568","0.0-2.0-2.0-0.12","9pjg1wlt09toqu3","practice_no_cue","5f4eabfe4184f70d6428afdc","5f60e3c0a3b16e07647b2ff9","5f60ec477836cc0008fe88a5","false","null","<span style=""color: black; font-size: 48px"">N + M</span>","null","","","","resp_prompt","","","","","","","","","","","","","","","",""
"categorize-image","35","169373","0.0-2.0-2.0-1.12","9pjg1wlt09toqu3","practice_no_cue","5f4eabfe4184f70d6428afdc","5f60e3c0a3b16e07647b2ff9","5f60ec477836cc0008fe88a5","true","295","./Stimuli/ImagesPractice/LN17.jpg","76","","","","test","false","N + M","83","","LN","LN17.jpg","remember","old","13","1","start","right","","","",""
"html-keyboard-response","36","170086","0.0-2.0-2.0-0.13","9pjg1wlt09toqu3","practice_no_cue","5f4eabfe4184f70d6428afdc","5f60e3c0a3b16e07647b2ff9","5f60ec477836cc0008fe88a5","false","null","<span style=""color: black; font-size: 48px"">N + M</span>","null","","","","resp_prompt","","","","","","","","","","","","","","","",""
"categorize-image","37","171022","0.0-2.0-2.0-1.13","9pjg1wlt09toqu3","practice_no_cue","5f4eabfe4184f70d6428afdc","5f60e3c0a3b16e07647b2ff9","5f60ec477836cc0008fe88a5","true","424","./Stimuli/ImagesPractice/SM98.jpg","83","","","","test","false","N + M","76","","SM","SM98.jpg","forget","old","14","1","start","left","","","",""
"html-keyboard-response","38","171732","0.0-2.0-2.0-0.14","9pjg1wlt09toqu3","practice_no_cue","5f4eabfe4184f70d6428afdc","5f60e3c0a3b16e07647b2ff9","5f60ec477836cc0008fe88a5","false","null","<span style=""color: black; font-size: 48px"">N + M</span>","null","","","","resp_prompt","","","","","","","","","","","","","","","",""
"categorize-image","39","172725","0.0-2.0-2.0-1.14","9pjg1wlt09toqu3","practice_no_cue","5f4eabfe4184f70d6428afdc","5f60e3c0a3b16e07647b2ff9","5f60ec477836cc0008fe88a5","true","492","./Stimuli/ImagesPractice/LN4.jpg","83","","","","test","true","N + M","83","","LN","LN4.jpg","remember","old","15","1","start","left","","","",""
"html-keyboard-response","40","173437","0.0-2.0-2.0-0.15","9pjg1wlt09toqu3","practice_no_cue","5f4eabfe4184f70d6428afdc","5f60e3c0a3b16e07647b2ff9","5f60ec477836cc0008fe88a5","false","null","<span style=""color: black; font-size: 48px"">N + M</span>","null","","","","resp_prompt","","","","","","","","","","","","","","","",""
"categorize-image","41","174722","0.0-2.0-2.0-1.15","9pjg1wlt09toqu3","practice_no_cue","5f4eabfe4184f70d6428afdc","5f60e3c0a3b16e07647b2ff9","5f60ec477836cc0008fe88a5","true","768","./Stimuli/ImagesPractice/LM224.jpg","83","","","","test","false","N + M","76","","LM","LM224.jpg","remember","old","16","1","start","left","","","",""
"html-keyboard-response","42","180221","0.0-2.0-3.0","9pjg1wlt09toqu3","break","5f4eabfe4184f70d6428afdc","5f60e3c0a3b16e07647b2ff9","5f60ec477836cc0008fe88a5","false","5497","<p style='font-size: 32px;'>Break</><br><br><br><br><br><p style='font-size: 24px;'>In the last block, you committed 10 errors and did not respond in time on 1 trials.
</p><p style='font-size: 24px;'>Try to respond as fast and accurately as possible in the next block as well! </p><p style='font-size: 24px;'>Press SPACE to continue.</p>","32","","","","","","","","","","","","","","","","","","","",""
"html-keyboard-response","43","184626","0.0-2.0-4.0","9pjg1wlt09toqu3","instructions","5f4eabfe4184f70d6428afdc","5f60e3c0a3b16e07647b2ff9","5f60ec477836cc0008fe88a5","false","4405","<div align=left> Great!<br><br>Are you ready to continue?<br><br>If you want to reread the instructions and redo the practice trials, <br>please press „Z“. <br><br>Press SPACE to CONTINUE with the experiment when you are ready. </div>","90","","","","","","","","","","","","","","","","","","","",""
"html-keyboard-response","44","193107","0.0-2.1-0.1","9pjg1wlt09toqu3","instructions","5f4eabfe4184f70d6428afdc","5f60e3c0a3b16e07647b2ff9","5f60ec477836cc0008fe88a5","false","8480","<div align=justify>You will classify the objects using the <strong>'S'</strong> and the <strong>'L'</strong> keys on your keyboard.<br>For doing so, please place your <strong>left index finger</strong> on the <strong>'S'</strong> key and place your <strong>right index finger</strong> on the <strong>'L'</strong> key. <br><br> Each trial starts with an instruction, indicating which key ('S'/'L') you need to press to classify <br>the object as mechanical (letter M) or non-mechanical (letter N).<br>The instruction <strong>M + N</strong> indicates that, in the current trial, by pressing the left key ('S') you classify the displayed object as mechanical (M) <br> and by pressing the right key ('L') you classify the object as non-mechanical (N). <br>The instruction <strong>N + M</strong> on the other hand indicates that by pressing the left key ('S') you classify the displayed object as non-mechanical (N) <br> and by pressing the right key ('L') you classify the object as mechanical (M). <br><br>Please press the key corresponding to the correct classification as fast as possible as soon as the object is displayed and try to avoid making mistakes.<br>If you do not respond within a 2 second window, a corresponding feedback will be displayed and the next trial will start.<br> The experiment is divided into multiple blocks to give you the opportunity to take a break after each block. <br>First, you can now practice this task. <br><br>Please place your <strong>LEFT INDEX FINGER</strong> on the 'S' key and your <strong>RIGHT INDEX FINGER</strong> on the 'L' key now. <br><br>Press SPACE to continue.</div>","32","","","","","","","","","","","","","","","","","","","",""
"html-keyboard-response","45","199378","0.0-2.1-1.1","9pjg1wlt09toqu3","instructions","5f4eabfe4184f70d6428afdc","5f60e3c0a3b16e07647b2ff9","5f60ec477836cc0008fe88a5","false","6271","<div align=left> You will now have time to practice this task.<br><br>Remember: <br> <br><li>Please place your index fingers on the <strong>'S'</strong> and <strong>'L'</strong> keys <br>to respond as fast and accurately as possible.</li><li>Every picture can be classified as either mechanical or non-mechanical.</li><li>If you do not respond in time or commit an error, you will receive a corresponding feedback. </li><li> Please try to respond as <strong> fast </strong> and as <strong> accurately as possible </strong> .<br><li>To ensure optimal results, please minimize distractions and stay focused. </li><br><br>Press SPACE to continue.</div>","32","","","","","","","","","","","","","","","","","","","",""
"html-keyboard-response","46","200086","0.0-2.1-2.1-0.16","9pjg1wlt09toqu3","practice_no_cue","5f4eabfe4184f70d6428afdc","5f60e3c0a3b16e07647b2ff9","5f60ec477836cc0008fe88a5","false","null","<span style=""color: black; font-size: 48px"">N + M</span>","null","","","","resp_prompt","","","","","","","","","","","","","","","",""
"categorize-image","47","201052","0.0-2.1-2.1-1.16","9pjg1wlt09toqu3","practice_no_cue","5f4eabfe4184f70d6428afdc","5f60e3c0a3b16e07647b2ff9","5f60ec477836cc0008fe88a5","true","450","./Stimuli/ImagesPractice/LM55.jpg","83","","","","test","false","N + M","76","","LM","LM55.jpg","forget","old","17","2","practice_forget","left","","","",""
"html-keyboard-response","48","201767","0.0-2.1-2.1-0.17","9pjg1wlt09toqu3","practice_no_cue","5f4eabfe4184f70d6428afdc","5f60e3c0a3b16e07647b2ff9","5f60ec477836cc0008fe88a5","false","null","<span style=""color: black; font-size: 48px"">M + N</span>","null","","","","resp_prompt","","","","","","","","","","","","","","","",""
"categorize-image","49","202671","0.0-2.1-2.1-1.17","9pjg1wlt09toqu3","practice_no_cue","5f4eabfe4184f70d6428afdc","5f60e3c0a3b16e07647b2ff9","5f60ec477836cc0008fe88a5","true","397","./Stimuli/ImagesPractice/SN76.jpg","83","","","","test","false","M + N","76","","SN","SN76.jpg","forget","old","18","2","practice_forget","left","","","",""
"html-keyboard-response","50","203382","0.0-2.1-2.1-0.18","9pjg1wlt09toqu3","practice_no_cue","5f4eabfe4184f70d6428afdc","5f60e3c0a3b16e07647b2ff9","5f60ec477836cc0008fe88a5","false","null","<span style=""color: black; font-size: 48px"">M + N</span>","null","","","","resp_prompt","","","","","","","","","","","","","","","",""
"categorize-image","51","204239","0.0-2.1-2.1-1.18","9pjg1wlt09toqu3","practice_no_cue","5f4eabfe4184f70d6428afdc","5f60e3c0a3b16e07647b2ff9","5f60ec477836cc0008fe88a5","true","344","./Stimuli/ImagesPractice/SN205.jpg","76","","","","test","true","M + N","76","","SN","SN205.jpg","remember","old","19","2","practice_forget","right","","","",""
"html-keyboard-response","52","204952","0.0-2.1-2.1-0.19","9pjg1wlt09toqu3","practice_no_cue","5f4eabfe4184f70d6428afdc","5f60e3c0a3b16e07647b2ff9","5f60ec477836cc0008fe88a5","false","null","<span style=""color: black; font-size: 48px"">N + M</span>","null","","","","resp_prompt","","","","","","","","","","","","","","","",""
"categorize-image","53","205853","0.0-2.1-2.1-1.19","9pjg1wlt09toqu3","practice_no_cue","5f4eabfe4184f70d6428afdc","5f60e3c0a3b16e07647b2ff9","5f60ec477836cc0008fe88a5","true","392","./Stimuli/ImagesPractice/LM147.jpg","83","","","","test","false","N + M","76","","LM","LM147.jpg","remember","old","20","2","practice_forget","left","","","",""
"html-keyboard-response","54","206562","0.0-2.1-2.1-0.20","9pjg1wlt09toqu3","practice_no_cue","5f4eabfe4184f70d6428afdc","5f60e3c0a3b16e07647b2ff9","5f60ec477836cc0008fe88a5","false","null","<span style=""color: black; font-size: 48px"">N + M</span>","null","","","","resp_prompt","","","","","","","","","","","","","","","",""
"categorize-image","55","207321","0.0-2.1-2.1-1.20","9pjg1wlt09toqu3","practice_no_cue","5f4eabfe4184f70d6428afdc","5f60e3c0a3b16e07647b2ff9","5f60ec477836cc0008fe88a5","true","254","./Stimuli/ImagesPractice/SM98.jpg","76","","","","test","true","N + M","76","","SM","SM98.jpg","forget","old","21","2","practice_forget","right","","","",""
"html-keyboard-response","56","208034","0.0-2.1-2.1-0.21","9pjg1wlt09toqu3","practice_no_cue","5f4eabfe4184f70d6428afdc","5f60e3c0a3b16e07647b2ff9","5f60ec477836cc0008fe88a5","false","null","<span style=""color: black; font-size: 48px"">M + N</span>","null","","","","resp_prompt","","","","","","","","","","","","","","","",""
"categorize-image","57","208914","0.0-2.1-2.1-1.21","9pjg1wlt09toqu3","practice_no_cue","5f4eabfe4184f70d6428afdc","5f60e3c0a3b16e07647b2ff9","5f60ec477836cc0008fe88a5","true","368","./Stimuli/ImagesPractice/SM61.jpg","83","","","","test","true","M + N","83","","SM","SM61.jpg","remember","old","22","2","practice_forget","left","","","",""
"html-keyboard-response","58","209628","0.0-2.1-2.1-0.22","9pjg1wlt09toqu3","practice_no_cue","5f4eabfe4184f70d6428afdc","5f60e3c0a3b16e07647b2ff9","5f60ec477836cc0008fe88a5","false","null","<span style=""color: black; font-size: 48px"">M + N</span>","null","","","","resp_prompt","","","","","","","","","","","","","","","",""
"categorize-image","59","210652","0.0-2.1-2.1-1.22","9pjg1wlt09toqu3","practice_no_cue","5f4eabfe4184f70d6428afdc","5f60e3c0a3b16e07647b2ff9","5f60ec477836cc0008fe88a5","true","511","./Stimuli/ImagesPractice/LM230.jpg","76","","","","test","false","M + N","83","","LM","LM230.jpg","forget","old","23","2","practice_forget","right","","","",""
"html-keyboard-response","60","211372","0.0-2.1-2.1-0.23","9pjg1wlt09toqu3","practice_no_cue","5f4eabfe4184f70d6428afdc","5f60e3c0a3b16e07647b2ff9","5f60ec477836cc0008fe88a5","false","null","<span style=""color: black; font-size: 48px"">N + M</span>","null","","","","resp_prompt","","","","","","","","","","","","","","","",""
"categorize-image","61","212417","0.0-2.1-2.1-1.23","9pjg1wlt09toqu3","practice_no_cue","5f4eabfe4184f70d6428afdc","5f60e3c0a3b16e07647b2ff9","5f60ec477836cc0008fe88a5","true","539","./Stimuli/ImagesPractice/LM224.jpg","76","","","","test","true","N + M","76","","LM","LM224.jpg","remember","old","24","2","practice_forget","right","","","",""
"html-keyboard-response","62","213125","0.0-2.1-2.1-0.24","9pjg1wlt09toqu3","practice_no_cue","5f4eabfe4184f70d6428afdc","5f60e3c0a3b16e07647b2ff9","5f60ec477836cc0008fe88a5","false","null","<span style=""color: black; font-size: 48px"">M + N</span>","null","","","","resp_prompt","","","","","","","","","","","","","","","",""
"categorize-image","63","214068","0.0-2.1-2.1-1.24","9pjg1wlt09toqu3","practice_no_cue","5f4eabfe4184f70d6428afdc","5f60e3c0a3b16e07647b2ff9","5f60ec477836cc0008fe88a5","true","439","./Stimuli/ImagesPractice/LN109.jpg","83","","","","test","false","M + N","76","","LN","LN109.jpg","remember","old","25","2","practice_forget","left","","","",""
"html-keyboard-response","64","214780","0.0-2.1-2.1-0.25","9pjg1wlt09toqu3","practice_no_cue","5f4eabfe4184f70d6428afdc","5f60e3c0a3b16e07647b2ff9","5f60ec477836cc0008fe88a5","false","null","<span style=""color: black; font-size: 48px"">N + M</span>","null","","","","resp_prompt","","","","","","","","","","","","","","","",""
"categorize-image","65","215817","0.0-2.1-2.1-1.25","9pjg1wlt09toqu3","practice_no_cue","5f4eabfe4184f70d6428afdc","5f60e3c0a3b16e07647b2ff9","5f60ec477836cc0008fe88a5","true","523","./Stimuli/ImagesPractice/SN220.jpg","83","","","","test","true","N + M","83","","SN","SN220.jpg","forget","old","26","2","practice_forget","left","","","",""
"html-keyboard-response","66","216523","0.0-2.1-2.1-0.26","9pjg1wlt09toqu3","practice_no_cue","5f4eabfe4184f70d6428afdc","5f60e3c0a3b16e07647b2ff9","5f60ec477836cc0008fe88a5","false","null","<span style=""color: black; font-size: 48px"">N + M</span>","null","","","","resp_prompt","","","","","","","","","","","","","","","",""
"categorize-image","67","217403","0.0-2.1-2.1-1.26","9pjg1wlt09toqu3","practice_no_cue","5f4eabfe4184f70d6428afdc","5f60e3c0a3b16e07647b2ff9","5f60ec477836cc0008fe88a5","true","374","./Stimuli/ImagesPractice/LN4.jpg","76","","","","test","false","N + M","83","","LN","LN4.jpg","remember","old","27","2","practice_forget","right","","","",""
"html-keyboard-response","68","218114","0.0-2.1-2.1-0.27","9pjg1wlt09toqu3","practice_no_cue","5f4eabfe4184f70d6428afdc","5f60e3c0a3b16e07647b2ff9","5f60ec477836cc0008fe88a5","false","null","<span style=""color: black; font-size: 48px"">N + M</span>","null","","","","resp_prompt","","","","","","","","","","","","","","","",""
"categorize-image","69","219092","0.0-2.1-2.1-1.27","9pjg1wlt09toqu3","practice_no_cue","5f4eabfe4184f70d6428afdc","5f60e3c0a3b16e07647b2ff9","5f60ec477836cc0008fe88a5","true","471","./Stimuli/ImagesPractice/LN17.jpg","76","","","","test","false","N + M","83","","LN","LN17.jpg","remember","old","28","2","practice_forget","right","","","",""
"html-keyboard-response","70","219803","0.0-2.1-2.1-0.28","9pjg1wlt09toqu3","practice_no_cue","5f4eabfe4184f70d6428afdc","5f60e3c0a3b16e07647b2ff9","5f60ec477836cc0008fe88a5","false","null","<span style=""color: black; font-size: 48px"">M + N</span>","null","","","","resp_prompt","","","","","","","","","","","","","","","",""
"categorize-image","71","220776","0.0-2.1-2.1-1.28","9pjg1wlt09toqu3","practice_no_cue","5f4eabfe4184f70d6428afdc","5f60e3c0a3b16e07647b2ff9","5f60ec477836cc0008fe88a5","true","458","./Stimuli/ImagesPractice/SM62.jpg","76","","","","test","false","M + N","83","","SM","SM62.jpg","forget","old","29","2","practice_forget","right","","","",""
"html-keyboard-response","72","221488","0.0-2.1-2.1-0.29","9pjg1wlt09toqu3","practice_no_cue","5f4eabfe4184f70d6428afdc","5f60e3c0a3b16e07647b2ff9","5f60ec477836cc0008fe88a5","false","null","<span style=""color: black; font-size: 48px"">M + N</span>","null","","","","resp_prompt","","","","","","","","","","","","","","","",""
"categorize-image","73","222412","0.0-2.1-2.1-1.29","9pjg1wlt09toqu3","practice_no_cue","5f4eabfe4184f70d6428afdc","5f60e3c0a3b16e07647b2ff9","5f60ec477836cc0008fe88a5","true","412","./Stimuli/ImagesPractice/SN221.jpg","83","","","","test","false","M + N","76","","SN","SN221.jpg","remember","old","30","2","practice_forget","left","","","",""
"html-keyboard-response","74","223123","0.0-2.1-2.1-0.30","9pjg1wlt09toqu3","practice_no_cue","5f4eabfe4184f70d6428afdc","5f60e3c0a3b16e07647b2ff9","5f60ec477836cc0008fe88a5","false","null","<span style=""color: black; font-size: 48px"">M + N</span>","null","","","","resp_prompt","","","","","","","","","","","","","","","",""
"categorize-image","75","224052","0.0-2.1-2.1-1.30","9pjg1wlt09toqu3","practice_no_cue","5f4eabfe4184f70d6428afdc","5f60e3c0a3b16e07647b2ff9","5f60ec477836cc0008fe88a5","true","412","./Stimuli/ImagesPractice/LM239.jpg","76","","","","test","false","M + N","83","","LM","LM239.jpg","forget","old","31","2","practice_forget","right","","","",""
"html-keyboard-response","76","224762","0.0-2.1-2.1-0.31","9pjg1wlt09toqu3","practice_no_cue","5f4eabfe4184f70d6428afdc","5f60e3c0a3b16e07647b2ff9","5f60ec477836cc0008fe88a5","false","null","<span style=""color: black; font-size: 48px"">N + M</span>","null","","","","resp_prompt","","","","","","","","","","","","","","","",""
"categorize-image","77","225522","0.0-2.1-2.1-1.31","9pjg1wlt09toqu3","practice_no_cue","5f4eabfe4184f70d6428afdc","5f60e3c0a3b16e07647b2ff9","5f60ec477836cc0008fe88a5","true","253","./Stimuli/ImagesPractice/LN72.jpg","83","","","","test","true","N + M","83","","LN","LN72.jpg","forget","old","32","2","practice_forget","left","","","",""
"html-keyboard-response","78","230823","0.0-2.1-3.1","9pjg1wlt09toqu3","break","5f4eabfe4184f70d6428afdc","5f60e3c0a3b16e07647b2ff9","5f60ec477836cc0008fe88a5","false","5298","<p style='font-size: 32px;'>Break</><br><br><br><br><br><p style='font-size: 24px;'>In the last block, you committed 10 errors and did not respond in time on 0 trials.
</p><p style='font-size: 24px;'>Try to respond as fast and accurately as possible in the next block as well! </p><p style='font-size: 24px;'>Press SPACE to continue.</p>","32","","","","","","","","","","","","","","","","","","","",""
"html-keyboard-response","79","232205","0.0-2.1-4.1","9pjg1wlt09toqu3","instructions","5f4eabfe4184f70d6428afdc","5f60e3c0a3b16e07647b2ff9","5f60ec477836cc0008fe88a5","false","1381","<div align=left> Great!<br><br>Are you ready to continue?<br><br>If you want to reread the instructions and redo the practice trials, <br>please press „Z“. <br><br>Press SPACE to CONTINUE with the experiment when you are ready. </div>","32","","","","","","","","","","","","","","","","","","","",""
"html-keyboard-response","80","246769","0.0-3.0-0.0","9pjg1wlt09toqu3","instructions","5f4eabfe4184f70d6428afdc","5f60e3c0a3b16e07647b2ff9","5f60ec477836cc0008fe88a5","false","14564","<div align=left>Great!<br> <strong>Attention</strong>! You will now receive a second, additional task! <br><br>To this point it was you <strong>first task</strong> to correctly <strong>classify objects</strong>. <br><br>As mentioned in the beginning, we aim to examine how well humans can remember previously learned information.<br>We would like to find out whether our memory improves if we only remember information that is relevant to us. <br><br>Therefore, your <strong>second task</strong> will be to <strong>remember</strong> the pictures you are to categorize. <br> After the learning phase, there will be a memory test phase, in which you will be asked to indicate whether you have seen a picture before or not. <br>Some, but not all pictures shown in the learning phase will appear in the memory test phase.<br>After classifying a picture, you will be told whether you should remember it for the memory test phase or not. <br>Thus, some pictures can be forgotten, whereas others have to be remembered. <br><br>Note: From now on, feedback will only be displayed if you responded incorrectly or not in time.<br><br>Press SPACE to continue.</div>","32","","","","","","","","","","","","","","","","","","","",""
"html-keyboard-response","81","263991","0.0-3.0-1.0","9pjg1wlt09toqu3","instructions","5f4eabfe4184f70d6428afdc","5f60e3c0a3b16e07647b2ff9","5f60ec477836cc0008fe88a5","false","17221","<div align=left>In the following part, you will thus have to remember only some pictures. <br>Immediately after seeing and classifying the picture, a symbol will be displayed, indicating whether you should remember or forget the previous picture. <br><br>A <span style='color: dodgerblue; font-size: 28px'>O</span> indicates REMEMBER. That means, you have to remember this picture, because it will be tested later. <br><br>A <span style='color: darkorange; font-size:28px'>Ø</span> indicates FORGET. You do not have to remember this picture. <br><br> As you will have to remember a lot of pictures, it will be hard for you to remember all of them. <br>It will put you at an advantage if you instantly forget the pictures you are not asked to remember. <br> This will make it easier for you to remember the pictures that will be tested afterwards. <br><br>Press SPACE to continue.</div>","32","","","","","","","","","","","","","","","","","","","",""
"html-keyboard-response","82","274508","0.0-3.0-2.0","9pjg1wlt09toqu3","instructions","5f4eabfe4184f70d6428afdc","5f60e3c0a3b16e07647b2ff9","5f60ec477836cc0008fe88a5","false","10516","<div align=left> Now you have the chance to practice both tasks together.<br><br>Remember: <br> <br><li>Please place your index fingers on the <strong>'S'</strong> and <strong>'L'</strong> keys <br>to respond as fast and accurately as possible.</li><li>Every picture can be classified as either mechanical or non-mechanical.</li><li>If you do not respond in time or commit an error, you will receive a corresponding feedback. <br>Please try to respond as <strong> fast </strong> and as <strong> accurately as possible </strong>.</li><li> Please remember only the to-be-remembered <span style='color: dodgerblue; font-size: 28px'>O</span> pictures. <br></li><li> Please minimize distractions and stay focused. </li><br><br>Press SPACE to START</div>","32","","","","","","","","","","","","","","","","","","","",""
"html-keyboard-response","83","275213","0.0-3.0-3.0-0.0","9pjg1wlt09toqu3","practice_cue","5f4eabfe4184f70d6428afdc","5f60e3c0a3b16e07647b2ff9","5f60ec477836cc0008fe88a5","false","null","<span style=""color: black; font-size: 48px"">M + N</span>","null","","","","resp_prompt","","","","","","","","","","","","","","","",""
"categorize-image","84","275700","0.0-3.0-3.0-1.0","9pjg1wlt09toqu3","practice_cue","5f4eabfe4184f70d6428afdc","5f60e3c0a3b16e07647b2ff9","5f60ec477836cc0008fe88a5","true","485","./Stimuli/ImagesPractice/SN76.jpg","83","","","","test","false","M + N","76","","SN","SN76.jpg","forget","old","33","3","practice_forget","left","","","",""
"html-keyboard-response","85","276209","0.0-3.0-3.0-2.0-0.0","9pjg1wlt09toqu3","practice_cue","5f4eabfe4184f70d6428afdc","5f60e3c0a3b16e07647b2ff9","5f60ec477836cc0008fe88a5","false","null","<span style=""color: red; font-size: 48px"">Error!</span>","null","","","","feedback","","","","","","","","","","","","","","","",""
"html-keyboard-response","86","278211","0.0-3.0-3.0-3.0","9pjg1wlt09toqu3","practice_cue","5f4eabfe4184f70d6428afdc","5f60e3c0a3b16e07647b2ff9","5f60ec477836cc0008fe88a5","false","null","<div style=""align-items: center; display: flex; color: darkorange; font-size: 90px""><b>ø</b></div>","null","","","","forget_cue","","","","","","","","","","","","","","","",""
"html-keyboard-response","87","278922","0.0-3.0-3.0-0.1","9pjg1wlt09toqu3","practice_cue","5f4eabfe4184f70d6428afdc","5f60e3c0a3b16e07647b2ff9","5f60ec477836cc0008fe88a5","false","null","<span style=""color: black; font-size: 48px"">N + M</span>","null","","","","resp_prompt","","","","","","","","","","","","","","","",""
"categorize-image","88","279397","0.0-3.0-3.0-1.1","9pjg1wlt09toqu3","practice_cue","5f4eabfe4184f70d6428afdc","5f60e3c0a3b16e07647b2ff9","5f60ec477836cc0008fe88a5","true","473","./Stimuli/ImagesPractice/LM55.jpg","76","","","","test","true","N + M","76","","LM","LM55.jpg","forget","old","34","3","practice_forget","right","","","",""
"html-keyboard-response","89","281399","0.0-3.0-3.0-3.1","9pjg1wlt09toqu3","practice_cue","5f4eabfe4184f70d6428afdc","5f60e3c0a3b16e07647b2ff9","5f60ec477836cc0008fe88a5","false","null","<div style=""align-items: center; display: flex; color: darkorange; font-size: 90px""><b>ø</b></div>","null","","","","forget_cue","","","","","","","","","","","","","","","",""
"html-keyboard-response","90","282109","0.0-3.0-3.0-0.2","9pjg1wlt09toqu3","practice_cue","5f4eabfe4184f70d6428afdc","5f60e3c0a3b16e07647b2ff9","5f60ec477836cc0008fe88a5","false","null","<span style=""color: black; font-size: 48px"">M + N</span>","null","","","","resp_prompt","","","","","","","","","","","","","","","",""
"categorize-image","91","282486","0.0-3.0-3.0-1.2","9pjg1wlt09toqu3","practice_cue","5f4eabfe4184f70d6428afdc","5f60e3c0a3b16e07647b2ff9","5f60ec477836cc0008fe88a5","true","375","./Stimuli/ImagesPractice/SM62.jpg","83","","","","test","true","M + N","83","","SM","SM62.jpg","forget","old","35","3","practice_forget","left","","","",""
"html-keyboard-response","92","284492","0.0-3.0-3.0-3.2","9pjg1wlt09toqu3","practice_cue","5f4eabfe4184f70d6428afdc","5f60e3c0a3b16e07647b2ff9","5f60ec477836cc0008fe88a5","false","null","<div style=""align-items: center; display: flex; color: darkorange; font-size: 90px""><b>ø</b></div>","null","","","","forget_cue","","","","","","","","","","","","","","","",""
"html-keyboard-response","93","285207","0.0-3.0-3.0-0.3","9pjg1wlt09toqu3","practice_cue","5f4eabfe4184f70d6428afdc","5f60e3c0a3b16e07647b2ff9","5f60ec477836cc0008fe88a5","false","null","<span style=""color: black; font-size: 48px"">N + M</span>","null","","","","resp_prompt","","","","","","","","","","","","","","","",""
"categorize-image","94","285601","0.0-3.0-3.0-1.3","9pjg1wlt09toqu3","practice_cue","5f4eabfe4184f70d6428afdc","5f60e3c0a3b16e07647b2ff9","5f60ec477836cc0008fe88a5","true","391","./Stimuli/ImagesPractice/LM147.jpg","76","","","","test","true","N + M","76","","LM","LM147.jpg","remember","old","36","3","practice_forget","right","","","",""
"html-keyboard-response","95","287613","0.0-3.0-3.0-3.3","9pjg1wlt09toqu3","practice_cue","5f4eabfe4184f70d6428afdc","5f60e3c0a3b16e07647b2ff9","5f60ec477836cc0008fe88a5","false","null","<div style=""align-items: center; display: flex; color: dodgerblue; font-size: 90px""><b>o</b></div>","null","","","","forget_cue","","","","","","","","","","","","","","","",""
"html-keyboard-response","96","288321","0.0-3.0-3.0-0.4","9pjg1wlt09toqu3","practice_cue","5f4eabfe4184f70d6428afdc","5f60e3c0a3b16e07647b2ff9","5f60ec477836cc0008fe88a5","false","null","<span style=""color: black; font-size: 48px"">M + N</span>","null","","","","resp_prompt","","","","","","","","","","","","","","","",""
"categorize-image","97","288748","0.0-3.0-3.0-1.4","9pjg1wlt09toqu3","practice_cue","5f4eabfe4184f70d6428afdc","5f60e3c0a3b16e07647b2ff9","5f60ec477836cc0008fe88a5","true","423","./Stimuli/ImagesPractice/SN221.jpg","83","","","","test","false","M + N","76","","SN","SN221.jpg","remember","old","37","3","practice_forget","left","","","",""
"html-keyboard-response","98","289263","0.0-3.0-3.0-2.4-0.4","9pjg1wlt09toqu3","practice_cue","5f4eabfe4184f70d6428afdc","5f60e3c0a3b16e07647b2ff9","5f60ec477836cc0008fe88a5","false","null","<span style=""color: red; font-size: 48px"">Error!</span>","null","","","","feedback","","","","","","","","","","","","","","","",""
"html-keyboard-response","99","291269","0.0-3.0-3.0-3.4","9pjg1wlt09toqu3","practice_cue","5f4eabfe4184f70d6428afdc","5f60e3c0a3b16e07647b2ff9","5f60ec477836cc0008fe88a5","false","null","<div style=""align-items: center; display: flex; color: dodgerblue; font-size: 90px""><b>o</b></div>","null","","","","forget_cue","","","","","","","","","","","","","","","",""
"html-keyboard-response","100","291983","0.0-3.0-3.0-0.5","9pjg1wlt09toqu3","practice_cue","5f4eabfe4184f70d6428afdc","5f60e3c0a3b16e07647b2ff9","5f60ec477836cc0008fe88a5","false","null","<span style=""color: black; font-size: 48px"">N + M</span>","null","","","","resp_prompt","","","","","","","","","","","","","","","",""
"categorize-image","101","292273","0.0-3.0-3.0-1.5","9pjg1wlt09toqu3","practice_cue","5f4eabfe4184f70d6428afdc","5f60e3c0a3b16e07647b2ff9","5f60ec477836cc0008fe88a5","true","287","./Stimuli/ImagesPractice/LM224.jpg","76","","","","test","true","N + M","76","","LM","LM224.jpg","remember","old","38","3","practice_forget","right","","","",""
"html-keyboard-response","102","294279","0.0-3.0-3.0-3.5","9pjg1wlt09toqu3","practice_cue","5f4eabfe4184f70d6428afdc","5f60e3c0a3b16e07647b2ff9","5f60ec477836cc0008fe88a5","false","null","<div style=""align-items: center; display: flex; color: dodgerblue; font-size: 90px""><b>o</b></div>","null","","","","forget_cue","","","","","","","","","","","","","","","",""
"html-keyboard-response","103","294987","0.0-3.0-3.0-0.6","9pjg1wlt09toqu3","practice_cue","5f4eabfe4184f70d6428afdc","5f60e3c0a3b16e07647b2ff9","5f60ec477836cc0008fe88a5","false","null","<span style=""color: black; font-size: 48px"">M + N</span>","null","","","","resp_prompt","","","","","","","","","","","","","","","",""
"categorize-image","104","295270","0.0-3.0-3.0-1.6","9pjg1wlt09toqu3","practice_cue","5f4eabfe4184f70d6428afdc","5f60e3c0a3b16e07647b2ff9","5f60ec477836cc0008fe88a5","true","281","./Stimuli/ImagesPractice/LM230.jpg","83","","","","test","true","M + N","83","","LM","LM230.jpg","forget","old","39","3","practice_forget","left","","","",""
"html-keyboard-response","105","297282","0.0-3.0-3.0-3.6","9pjg1wlt09toqu3","practice_cue","5f4eabfe4184f70d6428afdc","5f60e3c0a3b16e07647b2ff9","5f60ec477836cc0008fe88a5","false","null","<div style=""align-items: center; display: flex; color: darkorange; font-size: 90px""><b>ø</b></div>","null","","","","forget_cue","","","","","","","","","","","","","","","",""
"html-keyboard-response","106","297988","0.0-3.0-3.0-0.7","9pjg1wlt09toqu3","practice_cue","5f4eabfe4184f70d6428afdc","5f60e3c0a3b16e07647b2ff9","5f60ec477836cc0008fe88a5","false","null","<span style=""color: black; font-size: 48px"">N + M</span>","null","","","","resp_prompt","","","","","","","","","","","","","","","",""
"categorize-image","107","298448","0.0-3.0-3.0-1.7","9pjg1wlt09toqu3","practice_cue","5f4eabfe4184f70d6428afdc","5f60e3c0a3b16e07647b2ff9","5f60ec477836cc0008fe88a5","true","457","./Stimuli/ImagesPractice/LN4.jpg","83","","","","test","true","N + M","83","","LN","LN4.jpg","remember","old","40","3","practice_forget","left","","","",""
"html-keyboard-response","108","300449","0.0-3.0-3.0-3.7","9pjg1wlt09toqu3","practice_cue","5f4eabfe4184f70d6428afdc","5f60e3c0a3b16e07647b2ff9","5f60ec477836cc0008fe88a5","false","null","<div style=""align-items: center; display: flex; color: dodgerblue; font-size: 90px""><b>o</b></div>","null","","","","forget_cue","","","","","","","","","","","","","","","",""
"html-keyboard-response","109","301151","0.0-3.0-3.0-0.8","9pjg1wlt09toqu3","practice_cue","5f4eabfe4184f70d6428afdc","5f60e3c0a3b16e07647b2ff9","5f60ec477836cc0008fe88a5","false","null","<span style=""color: black; font-size: 48px"">N + M</span>","null","","","","resp_prompt","","","","","","","","","","","","","","","",""
"categorize-image","110","301622","0.0-3.0-3.0-1.8","9pjg1wlt09toqu3","practice_cue","5f4eabfe4184f70d6428afdc","5f60e3c0a3b16e07647b2ff9","5f60ec477836cc0008fe88a5","true","466","./Stimuli/ImagesPractice/SN220.jpg","83","","","","test","true","N + M","83","","SN","SN220.jpg","forget","old","41","3","practice_forget","left","","","",""
"html-keyboard-response","111","303627","0.0-3.0-3.0-3.8","9pjg1wlt09toqu3","practice_cue","5f4eabfe4184f70d6428afdc","5f60e3c0a3b16e07647b2ff9","5f60ec477836cc0008fe88a5","false","null","<div style=""align-items: center; display: flex; color: darkorange; font-size: 90px""><b>ø</b></div>","null","","","","forget_cue","","","","","","","","","","","","","","","",""
"html-keyboard-response","112","304328","0.0-3.0-3.0-0.9","9pjg1wlt09toqu3","practice_cue","5f4eabfe4184f70d6428afdc","5f60e3c0a3b16e07647b2ff9","5f60ec477836cc0008fe88a5","false","null","<span style=""color: black; font-size: 48px"">N + M</span>","null","","","","resp_prompt","","","","","","","","","","","","","","","",""
"categorize-image","113","304611","0.0-3.0-3.0-1.9","9pjg1wlt09toqu3","practice_cue","5f4eabfe4184f70d6428afdc","5f60e3c0a3b16e07647b2ff9","5f60ec477836cc0008fe88a5","true","280","./Stimuli/ImagesPractice/SM98.jpg","76","","","","test","true","N + M","76","","SM","SM98.jpg","forget","old","42","3","practice_forget","right","","","",""
"html-keyboard-response","114","306614","0.0-3.0-3.0-3.9","9pjg1wlt09toqu3","practice_cue","5f4eabfe4184f70d6428afdc","5f60e3c0a3b16e07647b2ff9","5f60ec477836cc0008fe88a5","false","null","<div style=""align-items: center; display: flex; color: darkorange; font-size: 90px""><b>ø</b></div>","null","","","","forget_cue","","","","","","","","","","","","","","","",""
"html-keyboard-response","115","307332","0.0-3.0-3.0-0.10","9pjg1wlt09toqu3","practice_cue","5f4eabfe4184f70d6428afdc","5f60e3c0a3b16e07647b2ff9","5f60ec477836cc0008fe88a5","false","null","<span style=""color: black; font-size: 48px"">M + N</span>","null","","","","resp_prompt","","","","","","","","","","","","","","","",""
"categorize-image","116","307783","0.0-3.0-3.0-1.10","9pjg1wlt09toqu3","practice_cue","5f4eabfe4184f70d6428afdc","5f60e3c0a3b16e07647b2ff9","5f60ec477836cc0008fe88a5","true","449","./Stimuli/ImagesPractice/SN205.jpg","83","","","","test","false","M + N","76","","SN","SN205.jpg","remember","old","43","3","practice_forget","left","","","",""
"html-keyboard-response","117","308293","0.0-3.0-3.0-2.10-0.10","9pjg1wlt09toqu3","practice_cue","5f4eabfe4184f70d6428afdc","5f60e3c0a3b16e07647b2ff9","5f60ec477836cc0008fe88a5","false","null","<span style=""color: red; font-size: 48px"">Error!</span>","null","","","","feedback","","","","","","","","","","","","","","","",""
"html-keyboard-response","118","310303","0.0-3.0-3.0-3.10","9pjg1wlt09toqu3","practice_cue","5f4eabfe4184f70d6428afdc","5f60e3c0a3b16e07647b2ff9","5f60ec477836cc0008fe88a5","false","null","<div style=""align-items: center; display: flex; color: dodgerblue; font-size: 90px""><b>o</b></div>","null","","","","forget_cue","","","","","","","","","","","","","","","",""
"html-keyboard-response","119","311017","0.0-3.0-3.0-0.11","9pjg1wlt09toqu3","practice_cue","5f4eabfe4184f70d6428afdc","5f60e3c0a3b16e07647b2ff9","5f60ec477836cc0008fe88a5","false","null","<span style=""color: black; font-size: 48px"">N + M</span>","null","","","","resp_prompt","","","","","","","","","","","","","","","",""
"categorize-image","120","311499","0.0-3.0-3.0-1.11","9pjg1wlt09toqu3","practice_cue","5f4eabfe4184f70d6428afdc","5f60e3c0a3b16e07647b2ff9","5f60ec477836cc0008fe88a5","true","479","./Stimuli/ImagesPractice/LN17.jpg","76","","","","test","false","N + M","83","","LN","LN17.jpg","remember","old","44","3","practice_forget","right","","","",""
"html-keyboard-response","121","312005","0.0-3.0-3.0-2.11-0.11","9pjg1wlt09toqu3","practice_cue","5f4eabfe4184f70d6428afdc","5f60e3c0a3b16e07647b2ff9","5f60ec477836cc0008fe88a5","false","null","<span style=""color: red; font-size: 48px"">Error!</span>","null","","","","feedback","","","","","","","","","","","","","","","",""
"html-keyboard-response","122","314011","0.0-3.0-3.0-3.11","9pjg1wlt09toqu3","practice_cue","5f4eabfe4184f70d6428afdc","5f60e3c0a3b16e07647b2ff9","5f60ec477836cc0008fe88a5","false","null","<div style=""align-items: center; display: flex; color: dodgerblue; font-size: 90px""><b>o</b></div>","null","","","","forget_cue","","","","","","","","","","","","","","","",""
"html-keyboard-response","123","314713","0.0-3.0-3.0-0.12","9pjg1wlt09toqu3","practice_cue","5f4eabfe4184f70d6428afdc","5f60e3c0a3b16e07647b2ff9","5f60ec477836cc0008fe88a5","false","null","<span style=""color: black; font-size: 48px"">M + N</span>","null","","","","resp_prompt","","","","","","","","","","","","","","","",""
"categorize-image","124","315252","0.0-3.0-3.0-1.12","9pjg1wlt09toqu3","practice_cue","5f4eabfe4184f70d6428afdc","5f60e3c0a3b16e07647b2ff9","5f60ec477836cc0008fe88a5","true","537","./Stimuli/ImagesPractice/LM239.jpg","83","","","","test","true","M + N","83","","LM","LM239.jpg","forget","old","45","3","practice_forget","left","","","",""
"html-keyboard-response","125","317262","0.0-3.0-3.0-3.12","9pjg1wlt09toqu3","practice_cue","5f4eabfe4184f70d6428afdc","5f60e3c0a3b16e07647b2ff9","5f60ec477836cc0008fe88a5","false","null","<div style=""align-items: center; display: flex; color: darkorange; font-size: 90px""><b>ø</b></div>","null","","","","forget_cue","","","","","","","","","","","","","","","",""
"html-keyboard-response","126","317972","0.0-3.0-3.0-0.13","9pjg1wlt09toqu3","practice_cue","5f4eabfe4184f70d6428afdc","5f60e3c0a3b16e07647b2ff9","5f60ec477836cc0008fe88a5","false","null","<span style=""color: black; font-size: 48px"">M + N</span>","null","","","","resp_prompt","","","","","","","","","","","","","","","",""
"categorize-image","127","318501","0.0-3.0-3.0-1.13","9pjg1wlt09toqu3","practice_cue","5f4eabfe4184f70d6428afdc","5f60e3c0a3b16e07647b2ff9","5f60ec477836cc0008fe88a5","true","527","./Stimuli/ImagesPractice/SM61.jpg","76","","","","test","false","M + N","83","","SM","SM61.jpg","remember","old","46","3","practice_forget","right","","","",""
"html-keyboard-response","128","319012","0.0-3.0-3.0-2.13-0.13","9pjg1wlt09toqu3","practice_cue","5f4eabfe4184f70d6428afdc","5f60e3c0a3b16e07647b2ff9","5f60ec477836cc0008fe88a5","false","null","<span style=""color: red; font-size: 48px"">Error!</span>","null","","","","feedback","","","","","","","","","","","","","","","",""
"html-keyboard-response","129","321022","0.0-3.0-3.0-3.13","9pjg1wlt09toqu3","practice_cue","5f4eabfe4184f70d6428afdc","5f60e3c0a3b16e07647b2ff9","5f60ec477836cc0008fe88a5","false","null","<div style=""align-items: center; display: flex; color: dodgerblue; font-size: 90px""><b>o</b></div>","null","","","","forget_cue","","","","","","","","","","","","","","","",""
"html-keyboard-response","130","321732","0.0-3.0-3.0-0.14","9pjg1wlt09toqu3","practice_cue","5f4eabfe4184f70d6428afdc","5f60e3c0a3b16e07647b2ff9","5f60ec477836cc0008fe88a5","false","null","<span style=""color: black; font-size: 48px"">M + N</span>","null","","","","resp_prompt","","","","","","","","","","","","","","","",""
"categorize-image","131","322187","0.0-3.0-3.0-1.14","9pjg1wlt09toqu3","practice_cue","5f4eabfe4184f70d6428afdc","5f60e3c0a3b16e07647b2ff9","5f60ec477836cc0008fe88a5","true","453","./Stimuli/ImagesPractice/LN109.jpg","83","","","","test","false","M + N","76","","LN","LN109.jpg","remember","old","47","3","practice_forget","left","","","",""
"html-keyboard-response","132","322699","0.0-3.0-3.0-2.14-0.14","9pjg1wlt09toqu3","practice_cue","5f4eabfe4184f70d6428afdc","5f60e3c0a3b16e07647b2ff9","5f60ec477836cc0008fe88a5","false","null","<span style=""color: red; font-size: 48px"">Error!</span>","null","","","","feedback","","","","","","","","","","","","","","","",""
"html-keyboard-response","133","324705","0.0-3.0-3.0-3.14","9pjg1wlt09toqu3","practice_cue","5f4eabfe4184f70d6428afdc","5f60e3c0a3b16e07647b2ff9","5f60ec477836cc0008fe88a5","false","null","<div style=""align-items: center; display: flex; color: dodgerblue; font-size: 90px""><b>o</b></div>","null","","","","forget_cue","","","","","","","","","","","","","","","",""
"html-keyboard-response","134","325414","0.0-3.0-3.0-0.15","9pjg1wlt09toqu3","practice_cue","5f4eabfe4184f70d6428afdc","5f60e3c0a3b16e07647b2ff9","5f60ec477836cc0008fe88a5","false","null","<span style=""color: black; font-size: 48px"">N + M</span>","null","","","","resp_prompt","","","","","","","","","","","","","","","",""
"categorize-image","135","325984","0.0-3.0-3.0-1.15","9pjg1wlt09toqu3","practice_cue","5f4eabfe4184f70d6428afdc","5f60e3c0a3b16e07647b2ff9","5f60ec477836cc0008fe88a5","true","568","./Stimuli/ImagesPractice/LN72.jpg","83","","","","test","true","N + M","83","","LN","LN72.jpg","forget","old","48","3","practice_forget","left","","","",""
"html-keyboard-response","136","327993","0.0-3.0-3.0-3.15","9pjg1wlt09toqu3","practice_cue","5f4eabfe4184f70d6428afdc","5f60e3c0a3b16e07647b2ff9","5f60ec477836cc0008fe88a5","false","null","<div style=""align-items: center; display: flex; color: darkorange; font-size: 90px""><b>ø</b></div>","null","","","","forget_cue","","","","","","","","","","","","","","","",""
"html-keyboard-response","137","331287","0.0-3.0-4.0","9pjg1wlt09toqu3","break","5f4eabfe4184f70d6428afdc","5f60e3c0a3b16e07647b2ff9","5f60ec477836cc0008fe88a5","false","3291","<p style='font-size: 32px;'>Break</><br><br><br><br><br><p style='font-size: 24px;'>In the last block, you committed 6 errors and did not respond in time on 0 trials.
</p><p style='font-size: 24px;'>Try to respond as fast and accurately as possible in the next block as well! </p><p style='font-size: 24px;'>Press SPACE to continue.</p>","32","","","","","","","","","","","","","","","","","","","",""
"html-keyboard-response","138","342970","0.0-3.0-5.0","9pjg1wlt09toqu3","instructions","5f4eabfe4184f70d6428afdc","5f60e3c0a3b16e07647b2ff9","5f60ec477836cc0008fe88a5","false","11682","<div align=left> Now, to practice, we kindly ask you to remember as many of the to-be-remembered pictures<br>of the previous learning phase as possible.<br><br>The pictures you were instructed to remember were the pictures followed by a <span style='color: dodgerblue; font-size: 28px'>O</span>.<br><br>In this memory test phase, you will also see some new pictures.<br>It is your task to remember whether you were presented with this specific picture in this study so far or not.<br>If you recognize an object (you have already seen it in this study), it is an OLD object. <br>If you do not recognize an object (you have NOT seen it in this study), it is a NEW object. <br><strong> Attention</strong>: As already mentioned, <span style='color: darkorange; font-size:28px'>Ø</span>-pictures will <strong>never</strong> appear in this memory test (neither as new objects). <br><br>Press SPACE to continue. </div>","32","","","","","","","","","","","","","","","","","","","",""
"html-keyboard-response","139","369560","0.0-3.0-6.0","9pjg1wlt09toqu3","instructions","5f4eabfe4184f70d6428afdc","5f60e3c0a3b16e07647b2ff9","5f60ec477836cc0008fe88a5","false","26589","<div align=left> M and N no longer will appear on the left/right of the fixation cross. <br>Instead there will be a note at the bottom of the left or right side  <br>indicating which key you should press for an old or new object:  <br> <br>Press the <strong>right</strong> key to classify an object as <strong>old</strong> and press the <strong>left</strong>, to classify an object as <strong>new</strong>.<br>Please classify the objects as new/old by again placing your index finger on the 'S' and 'L' keys <br>and press them accordingly.<br><br><strong>Old:</strong> This object has been presented before. <br><strong>New:</strong> This object has <strong>not</strong> been presented.<br><br>Now please put your right and left index fingers on the 'S' and 'L' keys of your keyboard. <br>Please respond as fast and as accurately as possible!<br><br>Press SPACE to continue. </div>","32","","","","","","","","","","","","","","","","","","","",""
"categorize-image","140","371102","0.0-3.0-7.0-0.0","9pjg1wlt09toqu3","practice_recog","5f4eabfe4184f70d6428afdc","5f60e3c0a3b16e07647b2ff9","5f60ec477836cc0008fe88a5","true","1022","./Stimuli/ImagesPractice/SN75.jpg","83","","","","test","true","","83","","SN","SN75.jpg","","new","49","4","practice_recog","left","","","",""
"categorize-image","141","372539","0.0-3.0-7.0-0.1","9pjg1wlt09toqu3","practice_recog","5f4eabfe4184f70d6428afdc","5f60e3c0a3b16e07647b2ff9","5f60ec477836cc0008fe88a5","true","928","./Stimuli/ImagesPractice/SM35.jpg","83","","","","test","true","","83","","SM","SM35.jpg","","new","50","4","practice_recog","left","","","",""
"categorize-image","142","373715","0.0-3.0-7.0-0.2","9pjg1wlt09toqu3","practice_recog","5f4eabfe4184f70d6428afdc","5f60e3c0a3b16e07647b2ff9","5f60ec477836cc0008fe88a5","true","675","./Stimuli/ImagesPractice/SN205.jpg","76","","","","test","true","","76","","SN","SN205.jpg","","old","51","4","practice_recog","right","","","",""
"categorize-image","143","374931","0.0-3.0-7.0-0.3","9pjg1wlt09toqu3","practice_recog","5f4eabfe4184f70d6428afdc","5f60e3c0a3b16e07647b2ff9","5f60ec477836cc0008fe88a5","true","712","./Stimuli/ImagesPractice/LM143.jpg","83","","","","test","true","","83","","LM","LM143.jpg","","new","52","4","practice_recog","left","","","",""
"categorize-image","144","376065","0.0-3.0-7.0-0.4","9pjg1wlt09toqu3","practice_recog","5f4eabfe4184f70d6428afdc","5f60e3c0a3b16e07647b2ff9","5f60ec477836cc0008fe88a5","true","626","./Stimuli/ImagesPractice/LN109.jpg","76","","","","test","true","","76","","LN","LN109.jpg","","old","53","4","practice_recog","right","","","",""
"categorize-image","145","377319","0.0-3.0-7.0-0.5","9pjg1wlt09toqu3","practice_recog","5f4eabfe4184f70d6428afdc","5f60e3c0a3b16e07647b2ff9","5f60ec477836cc0008fe88a5","true","742","./Stimuli/ImagesPractice/SM37.jpg","83","","","","test","true","","83","","SM","SM37.jpg","","new","54","4","practice_recog","left","","","",""
"categorize-image","146","378516","0.0-3.0-7.0-0.6","9pjg1wlt09toqu3","practice_recog","5f4eabfe4184f70d6428afdc","5f60e3c0a3b16e07647b2ff9","5f60ec477836cc0008fe88a5","true","687","./Stimuli/ImagesPractice/SM61.jpg","76","","","","test","true","","76","","SM","SM61.jpg","","old","55","4","practice_recog","right","","","",""
"categorize-image","147","379664","0.0-3.0-7.0-0.7","9pjg1wlt09toqu3","practice_recog","5f4eabfe4184f70d6428afdc","5f60e3c0a3b16e07647b2ff9","5f60ec477836cc0008fe88a5","true","645","./Stimuli/ImagesPractice/LN4.jpg","76","","","","test","true","","76","","LN","LN4.jpg","","old","56","4","practice_recog","right","","","",""
"categorize-image","148","380866","0.0-3.0-7.0-0.8","9pjg1wlt09toqu3","practice_recog","5f4eabfe4184f70d6428afdc","5f60e3c0a3b16e07647b2ff9","5f60ec477836cc0008fe88a5","true","688","./Stimuli/ImagesPractice/LM147.jpg","76","","","","test","true","","76","","LM","LM147.jpg","","old","57","4","practice_recog","right","","","",""
"categorize-image","149","381965","0.0-3.0-7.0-0.9","9pjg1wlt09toqu3","practice_recog","5f4eabfe4184f70d6428afdc","5f60e3c0a3b16e07647b2ff9","5f60ec477836cc0008fe88a5","true","595","./Stimuli/ImagesPractice/SM97.jpg","83","","","","test","true","","83","","SM","SM97.jpg","","new","58","4","practice_recog","left","","","",""
"categorize-image","150","383082","0.0-3.0-7.0-0.10","9pjg1wlt09toqu3","practice_recog","5f4eabfe4184f70d6428afdc","5f60e3c0a3b16e07647b2ff9","5f60ec477836cc0008fe88a5","true","605","./Stimuli/ImagesPractice/LM224.jpg","76","","","","test","true","","76","","LM","LM224.jpg","","old","59","4","practice_recog","right","","","",""
"categorize-image","151","384347","0.0-3.0-7.0-0.11","9pjg1wlt09toqu3","practice_recog","5f4eabfe4184f70d6428afdc","5f60e3c0a3b16e07647b2ff9","5f60ec477836cc0008fe88a5","true","763","./Stimuli/ImagesPractice/LN15.jpg","83","","","","test","true","","83","","LN","LN15.jpg","","new","60","4","practice_recog","left","","","",""
"categorize-image","152","385633","0.0-3.0-7.0-0.12","9pjg1wlt09toqu3","practice_recog","5f4eabfe4184f70d6428afdc","5f60e3c0a3b16e07647b2ff9","5f60ec477836cc0008fe88a5","true","771","./Stimuli/ImagesPractice/LN2.jpg","83","","","","test","true","","83","","LN","LN2.jpg","","new","61","4","practice_recog","left","","","",""
"categorize-image","153","386688","0.0-3.0-7.0-0.13","9pjg1wlt09toqu3","practice_recog","5f4eabfe4184f70d6428afdc","5f60e3c0a3b16e07647b2ff9","5f60ec477836cc0008fe88a5","true","540","./Stimuli/ImagesPractice/SN221.jpg","76","","","","test","true","","76","","SN","SN221.jpg","","old","62","4","practice_recog","right","","","",""
"categorize-image","154","387812","0.0-3.0-7.0-0.14","9pjg1wlt09toqu3","practice_recog","5f4eabfe4184f70d6428afdc","5f60e3c0a3b16e07647b2ff9","5f60ec477836cc0008fe88a5","true","611","./Stimuli/ImagesPractice/LN17.jpg","76","","","","test","true","","76","","LN","LN17.jpg","","old","63","4","practice_recog","right","","","",""
"categorize-image","155","388912","0.0-3.0-7.0-0.15","9pjg1wlt09toqu3","practice_recog","5f4eabfe4184f70d6428afdc","5f60e3c0a3b16e07647b2ff9","5f60ec477836cc0008fe88a5","true","593","./Stimuli/ImagesPractice/SN222.jpg","83","","","","test","true","","83","","SN","SN222.jpg","","new","64","4","practice_recog","left","","","",""
"html-keyboard-response","156","400020","0.0-3.0-8.0","9pjg1wlt09toqu3","instructions","5f4eabfe4184f70d6428afdc","5f60e3c0a3b16e07647b2ff9","5f60ec477836cc0008fe88a5","false","11107","<div align=left> Great!<br><br>Are you ready to continue?<br>If you want to reread the instructions and redo the practice trials, please <br>press „Z“.<br><br>You can proceed when you are ready.<br><br>After the presentation of each object, you will receive an instruction whether to <br>remember or to forget the object.<br>We will test your memory of the following pictures only at the very end of <br>the experiment after all learning blocks are completed. <br><br>Press SPACE to CONTINUE when you are ready. </div>","32","","","","","","","","","","","","","","","","","","","",""
"html-keyboard-response","157","410871","0.0-4.0-0.0","9pjg1wlt09toqu3","instructions","5f4eabfe4184f70d6428afdc","5f60e3c0a3b16e07647b2ff9","5f60ec477836cc0008fe88a5","false","10850","<div align=left> The actual experiment is about to start.<br>The practice trials are over!<br><br>Please always respond both fast and accurately!<br><br>Remember: <br> <br><li> Please place your index fingers on the <strong>'S'</strong> and <strong>'L'</strong> keys <br>to respond as fast and accurately as possible.</li><li> Every picture can be classified as either mechanical or non-mechanical.</li><li> If you do not respond in time or commit an error, you will receive a corresponding feedback.<br> Please try to respond as <strong> fast </strong> and as <strong> accurately as possible </strong>.</li><li> Remember the <span style='color: dodgerblue; font-size: 28px'>O</span> pictures. <br></li><li> Please minimize distractions and stay focused. </li><br><br>Press SPACE to START.</div>","32","","","","","","","","","","","","","","","","","","","",""
"html-keyboard-response","158","411573","0.0-4.0-1.0-0.0","9pjg1wlt09toqu3","prime","5f4eabfe4184f70d6428afdc","5f60e3c0a3b16e07647b2ff9","5f60ec477836cc0008fe88a5","false","null","<span style=""color: black; font-size: 48px"">N + M</span>","null","","","","resp_prompt","","","","","","","","","","","","","","","",""
"categorize-image","159","412175","0.0-4.0-1.0-1.0","9pjg1wlt09toqu3","prime","5f4eabfe4184f70d6428afdc","5f60e3c0a3b16e07647b2ff9","5f60ec477836cc0008fe88a5","true","599","./Stimuli/SelectedImages/SN/SN27.bmp","76","","","","test","false","N + M","83","switch","SN","SN27.bmp","forget","","65","4","prime1","right","","","",""
"html-keyboard-response","160","412677","0.0-4.0-1.0-2.0-0.0","9pjg1wlt09toqu3","prime","5f4eabfe4184f70d6428afdc","5f60e3c0a3b16e07647b2ff9","5f60ec477836cc0008fe88a5","false","null","<span style=""color: red; font-size: 48px"">Error!</span>","null","","","","feedback","","","","","","","","","","","","","","","",""
"html-keyboard-response","161","414694","0.0-4.0-1.0-3.0","9pjg1wlt09toqu3","prime","5f4eabfe4184f70d6428afdc","5f60e3c0a3b16e07647b2ff9","5f60ec477836cc0008fe88a5","false","null","<div style=""align-items: center; display: flex; color: darkorange; font-size: 90px""><b>ø</b></div>","null","","","","forget_cue","","","","","","","","","","","","","","","",""
"html-keyboard-response","162","415405","0.0-4.0-1.0-0.1","9pjg1wlt09toqu3","prime","5f4eabfe4184f70d6428afdc","5f60e3c0a3b16e07647b2ff9","5f60ec477836cc0008fe88a5","false","null","<span style=""color: black; font-size: 48px"">M + N</span>","null","","","","resp_prompt","","","","","","","","","","","","","","","",""
"categorize-image","163","416260","0.0-4.0-1.0-1.1","9pjg1wlt09toqu3","prime","5f4eabfe4184f70d6428afdc","5f60e3c0a3b16e07647b2ff9","5f60ec477836cc0008fe88a5","true","853","./Stimuli/SelectedImages/SN/SN60.bmp","83","","","","test","false","M + N","76","switch","SN","SN60.bmp","forget","","66","4","prime1","left","","","",""
"html-keyboard-response","164","416762","0.0-4.0-1.0-2.1-0.1","9pjg1wlt09toqu3","prime","5f4eabfe4184f70d6428afdc","5f60e3c0a3b16e07647b2ff9","5f60ec477836cc0008fe88a5","false","null","<span style=""color: red; font-size: 48px"">Error!</span>","null","","","","feedback","","","","","","","","","","","","","","","",""
"html-keyboard-response","165","418773","0.0-4.0-1.0-3.1","9pjg1wlt09toqu3","prime","5f4eabfe4184f70d6428afdc","5f60e3c0a3b16e07647b2ff9","5f60ec477836cc0008fe88a5","false","null","<div style=""align-items: center; display: flex; color: darkorange; font-size: 90px""><b>ø</b></div>","null","","","","forget_cue","","","","","","","","","","","","","","","",""
"html-keyboard-response","166","419485","0.0-4.0-1.0-0.2","9pjg1wlt09toqu3","prime","5f4eabfe4184f70d6428afdc","5f60e3c0a3b16e07647b2ff9","5f60ec477836cc0008fe88a5","false","null","<span style=""color: black; font-size: 48px"">M + N</span>","null","","","","resp_prompt","","","","","","","","","","","","","","","",""
"categorize-image","167","420144","0.0-4.0-1.0-1.2","9pjg1wlt09toqu3","prime","5f4eabfe4184f70d6428afdc","5f60e3c0a3b16e07647b2ff9","5f60ec477836cc0008fe88a5","true","656","./Stimuli/SelectedImages/SN/SN179.bmp","83","","","","test","false","M + N","76","repetition","SN","SN179.bmp","remember","","67","4","prime1","left","","","",""
"html-keyboard-response","168","420648","0.0-4.0-1.0-2.2-0.2","9pjg1wlt09toqu3","prime","5f4eabfe4184f70d6428afdc","5f60e3c0a3b16e07647b2ff9","5f60ec477836cc0008fe88a5","false","null","<span style=""color: red; font-size: 48px"">Error!</span>","null","","","","feedback","","","","","","","","","","","","","","","",""
"html-keyboard-response","169","422658","0.0-4.0-1.0-3.2","9pjg1wlt09toqu3","prime","5f4eabfe4184f70d6428afdc","5f60e3c0a3b16e07647b2ff9","5f60ec477836cc0008fe88a5","false","null","<div style=""align-items: center; display: flex; color: dodgerblue; font-size: 90px""><b>o</b></div>","null","","","","forget_cue","","","","","","","","","","","","","","","",""
"html-keyboard-response","170","423367","0.0-4.0-1.0-0.3","9pjg1wlt09toqu3","prime","5f4eabfe4184f70d6428afdc","5f60e3c0a3b16e07647b2ff9","5f60ec477836cc0008fe88a5","false","null","<span style=""color: black; font-size: 48px"">N + M</span>","null","","","","resp_prompt","","","","","","","","","","","","","","","",""
"categorize-image","171","424119","0.0-4.0-1.0-1.3","9pjg1wlt09toqu3","prime","5f4eabfe4184f70d6428afdc","5f60e3c0a3b16e07647b2ff9","5f60ec477836cc0008fe88a5","true","751","./Stimuli/SelectedImages/SM/SM184.bmp","76","","","","test","true","N + M","76","switch","SM","SM184.bmp","forget","","68","4","prime1","right","","","",""
"html-keyboard-response","172","426133","0.0-4.0-1.0-3.3","9pjg1wlt09toqu3","prime","5f4eabfe4184f70d6428afdc","5f60e3c0a3b16e07647b2ff9","5f60ec477836cc0008fe88a5","false","null","<div style=""align-items: center; display: flex; color: darkorange; font-size: 90px""><b>ø</b></div>","null","","","","forget_cue","","","","","","","","","","","","","","","",""
"html-keyboard-response","173","426836","0.0-4.0-1.0-0.4","9pjg1wlt09toqu3","prime","5f4eabfe4184f70d6428afdc","5f60e3c0a3b16e07647b2ff9","5f60ec477836cc0008fe88a5","false","null","<span style=""color: black; font-size: 48px"">N + M</span>","null","","","","resp_prompt","","","","","","","","","","","","","","","",""
"categorize-image","174","427509","0.0-4.0-1.0-1.4","9pjg1wlt09toqu3","prime","5f4eabfe4184f70d6428afdc","5f60e3c0a3b16e07647b2ff9","5f60ec477836cc0008fe88a5","true","671","./Stimuli/SelectedImages/SN/SN49.bmp","83","","","","test","true","N + M","83","repetition","SN","SN49.bmp","remember","","69","4","prime1","left","","","",""
"html-keyboard-response","175","429516","0.0-4.0-1.0-3.4","9pjg1wlt09toqu3","prime","5f4eabfe4184f70d6428afdc","5f60e3c0a3b16e07647b2ff9","5f60ec477836cc0008fe88a5","false","null","<div style=""align-items: center; display: flex; color: dodgerblue; font-size: 90px""><b>o</b></div>","null","","","","forget_cue","","","","","","","","","","","","","","","",""
"html-keyboard-response","176","430229","0.0-4.0-1.0-0.5","9pjg1wlt09toqu3","prime","5f4eabfe4184f70d6428afdc","5f60e3c0a3b16e07647b2ff9","5f60ec477836cc0008fe88a5","false","null","<span style=""color: black; font-size: 48px"">M + N</span>","null","","","","resp_prompt","","","","","","","","","","","","","","","",""
"categorize-image","177","430773","0.0-4.0-1.0-1.5","9pjg1wlt09toqu3","prime","5f4eabfe4184f70d6428afdc","5f60e3c0a3b16e07647b2ff9","5f60ec477836cc0008fe88a5","true","542","./Stimuli/SelectedImages/LM/LM100.bmp","76","","","","test","false","M + N","83","switch","LM","LM100.bmp","remember","","70","4","prime1","right","","","",""
"html-keyboard-response","178","431286","0.0-4.0-1.0-2.5-0.5","9pjg1wlt09toqu3","prime","5f4eabfe4184f70d6428afdc","5f60e3c0a3b16e07647b2ff9","5f60ec477836cc0008fe88a5","false","null","<span style=""color: red; font-size: 48px"">Error!</span>","null","","","","feedback","","","","","","","","","","","","","","","",""
"html-keyboard-response","179","433288","0.0-4.0-1.0-3.5","9pjg1wlt09toqu3","prime","5f4eabfe4184f70d6428afdc","5f60e3c0a3b16e07647b2ff9","5f60ec477836cc0008fe88a5","false","null","<div style=""align-items: center; display: flex; color: dodgerblue; font-size: 90px""><b>o</b></div>","null","","","","forget_cue","","","","","","","","","","","","","","","",""
"html-keyboard-response","180","434003","0.0-4.0-1.0-0.6","9pjg1wlt09toqu3","prime","5f4eabfe4184f70d6428afdc","5f60e3c0a3b16e07647b2ff9","5f60ec477836cc0008fe88a5","false","null","<span style=""color: black; font-size: 48px"">M + N</span>","null","","","","resp_prompt","","","","","","","","","","","","","","","",""
"categorize-image","181","434551","0.0-4.0-1.0-1.6","9pjg1wlt09toqu3","prime","5f4eabfe4184f70d6428afdc","5f60e3c0a3b16e07647b2ff9","5f60ec477836cc0008fe88a5","true","546","./Stimuli/SelectedImages/SN/SN182.bmp","76","","","","test","true","M + N","76","switch","SN","SN182.bmp","remember","","71","4","prime1","right","","","",""
"html-keyboard-response","182","436563","0.0-4.0-1.0-3.6","9pjg1wlt09toqu3","prime","5f4eabfe4184f70d6428afdc","5f60e3c0a3b16e07647b2ff9","5f60ec477836cc0008fe88a5","false","null","<div style=""align-items: center; display: flex; color: dodgerblue; font-size: 90px""><b>o</b></div>","null","","","","forget_cue","","","","","","","","","","","","","","","",""
"html-keyboard-response","183","437273","0.0-4.0-1.0-0.7","9pjg1wlt09toqu3","prime","5f4eabfe4184f70d6428afdc","5f60e3c0a3b16e07647b2ff9","5f60ec477836cc0008fe88a5","false","null","<span style=""color: black; font-size: 48px"">M + N</span>","null","","","","resp_prompt","","","","","","","","","","","","","","","",""
"categorize-image","184","437974","0.0-4.0-1.0-1.7","9pjg1wlt09toqu3","prime","5f4eabfe4184f70d6428afdc","5f60e3c0a3b16e07647b2ff9","5f60ec477836cc0008fe88a5","true","699","./Stimuli/SelectedImages/SM/SM106.bmp","83","","","","test","true","M + N","83","switch","SM","SM106.bmp","remember","","72","4","prime1","left","","","",""
"html-keyboard-response","185","439988","0.0-4.0-1.0-3.7","9pjg1wlt09toqu3","prime","5f4eabfe4184f70d6428afdc","5f60e3c0a3b16e07647b2ff9","5f60ec477836cc0008fe88a5","false","null","<div style=""align-items: center; display: flex; color: dodgerblue; font-size: 90px""><b>o</b></div>","null","","","","forget_cue","","","","","","","","","","","","","","","",""
"html-keyboard-response","186","440695","0.0-4.0-1.0-0.8","9pjg1wlt09toqu3","prime","5f4eabfe4184f70d6428afdc","5f60e3c0a3b16e07647b2ff9","5f60ec477836cc0008fe88a5","false","null","<span style=""color: black; font-size: 48px"">M + N</span>","null","","","","resp_prompt","","","","","","","","","","","","","","","",""
"categorize-image","187","441732","0.0-4.0-1.0-1.8","9pjg1wlt09toqu3","prime","5f4eabfe4184f70d6428afdc","5f60e3c0a3b16e07647b2ff9","5f60ec477836cc0008fe88a5","true","1034","./Stimuli/SelectedImages/LM/LM235.bmp","83","","","","test","true","M + N","83","switch","LM","LM235.bmp","forget","","73","4","prime1","left","","","",""
"html-keyboard-response","188","443739","0.0-4.0-1.0-3.8","9pjg1wlt09toqu3","prime","5f4eabfe4184f70d6428afdc","5f60e3c0a3b16e07647b2ff9","5f60ec477836cc0008fe88a5","false","null","<div style=""align-items: center; display: flex; color: darkorange; font-size: 90px""><b>ø</b></div>","null","","","","forget_cue","","","","","","","","","","","","","","","",""
"html-keyboard-response","189","444441","0.0-4.0-1.0-0.9","9pjg1wlt09toqu3","prime","5f4eabfe4184f70d6428afdc","5f60e3c0a3b16e07647b2ff9","5f60ec477836cc0008fe88a5","false","null","<span style=""color: black; font-size: 48px"">M + N</span>","null","","","","resp_prompt","","","","","","","","","","","","","","","",""
"categorize-image","190","445412","0.0-4.0-1.0-1.9","9pjg1wlt09toqu3","prime","5f4eabfe4184f70d6428afdc","5f60e3c0a3b16e07647b2ff9","5f60ec477836cc0008fe88a5","true","969","./Stimuli/SelectedImages/SN/SN181.bmp","76","","","","test","true","M + N","76","repetition","SN","SN181.bmp","forget","","74","4","prime1","right","","","",""
"html-keyboard-response","191","447415","0.0-4.0-1.0-3.9","9pjg1wlt09toqu3","prime","5f4eabfe4184f70d6428afdc","5f60e3c0a3b16e07647b2ff9","5f60ec477836cc0008fe88a5","false","null","<div style=""align-items: center; display: flex; color: darkorange; font-size: 90px""><b>ø</b></div>","null","","","","forget_cue","","","","","","","","","","","","","","","",""
"html-keyboard-response","192","448128","0.0-4.0-1.0-0.10","9pjg1wlt09toqu3","prime","5f4eabfe4184f70d6428afdc","5f60e3c0a3b16e07647b2ff9","5f60ec477836cc0008fe88a5","false","null","<span style=""color: black; font-size: 48px"">N + M</span>","null","","","","resp_prompt","","","","","","","","","","","","","","","",""
"categorize-image","193","448942","0.0-4.0-1.0-1.10","9pjg1wlt09toqu3","prime","5f4eabfe4184f70d6428afdc","5f60e3c0a3b16e07647b2ff9","5f60ec477836cc0008fe88a5","true","813","./Stimuli/SelectedImages/LN/LN13.bmp","83","","","","test","true","N + M","83","repetition","LN","LN13.bmp","remember","","75","4","prime1","left","","","",""
"html-keyboard-response","194","450953","0.0-4.0-1.0-3.10","9pjg1wlt09toqu3","prime","5f4eabfe4184f70d6428afdc","5f60e3c0a3b16e07647b2ff9","5f60ec477836cc0008fe88a5","false","null","<div style=""align-items: center; display: flex; color: dodgerblue; font-size: 90px""><b>o</b></div>","null","","","","forget_cue","","","","","","","","","","","","","","","",""
"html-keyboard-response","195","451663","0.0-4.0-1.0-0.11","9pjg1wlt09toqu3","prime","5f4eabfe4184f70d6428afdc","5f60e3c0a3b16e07647b2ff9","5f60ec477836cc0008fe88a5","false","null","<span style=""color: black; font-size: 48px"">M + N</span>","null","","","","resp_prompt","","","","","","","","","","","","","","","",""
"categorize-image","196","452461","0.0-4.0-1.0-1.11","9pjg1wlt09toqu3","prime","5f4eabfe4184f70d6428afdc","5f60e3c0a3b16e07647b2ff9","5f60ec477836cc0008fe88a5","true","796","./Stimuli/SelectedImages/SM/SM148.bmp","83","","","","test","true","M + N","83","switch","SM","SM148.bmp","forget","","76","4","prime1","left","","","",""
"html-keyboard-response","197","454473","0.0-4.0-1.0-3.11","9pjg1wlt09toqu3","prime","5f4eabfe4184f70d6428afdc","5f60e3c0a3b16e07647b2ff9","5f60ec477836cc0008fe88a5","false","null","<div style=""align-items: center; display: flex; color: darkorange; font-size: 90px""><b>ø</b></div>","null","","","","forget_cue","","","","","","","","","","","","","","","",""
"html-keyboard-response","198","455184","0.0-4.0-1.0-0.12","9pjg1wlt09toqu3","prime","5f4eabfe4184f70d6428afdc","5f60e3c0a3b16e07647b2ff9","5f60ec477836cc0008fe88a5","false","null","<span style=""color: black; font-size: 48px"">N + M</span>","null","","","","resp_prompt","","","","","","","","","","","","","","","",""
"categorize-image","199","455932","0.0-4.0-1.0-1.12","9pjg1wlt09toqu3","prime","5f4eabfe4184f70d6428afdc","5f60e3c0a3b16e07647b2ff9","5f60ec477836cc0008fe88a5","true","744","./Stimuli/SelectedImages/SN/SN93.bmp","83","","","","test","true","N + M","83","switch","SN","SN93.bmp","forget","","77","4","prime1","left","","","",""
"html-keyboard-response","200","457935","0.0-4.0-1.0-3.12","9pjg1wlt09toqu3","prime","5f4eabfe4184f70d6428afdc","5f60e3c0a3b16e07647b2ff9","5f60ec477836cc0008fe88a5","false","null","<div style=""align-items: center; display: flex; color: darkorange; font-size: 90px""><b>ø</b></div>","null","","","","forget_cue","","","","","","","","","","","","","","","",""
"html-keyboard-response","201","458638","0.0-4.0-1.0-0.13","9pjg1wlt09toqu3","prime","5f4eabfe4184f70d6428afdc","5f60e3c0a3b16e07647b2ff9","5f60ec477836cc0008fe88a5","false","null","<span style=""color: black; font-size: 48px"">N + M</span>","null","","","","resp_prompt","","","","","","","","","","","","","","","",""
"categorize-image","202","459351","0.0-4.0-1.0-1.13","9pjg1wlt09toqu3","prime","5f4eabfe4184f70d6428afdc","5f60e3c0a3b16e07647b2ff9","5f60ec477836cc0008fe88a5","true","713","./Stimuli/SelectedImages/LM/LM209.bmp","76","","","","test","true","N + M","76","switch","LM","LM209.bmp","forget","","78","4","prime1","right","","","",""
"html-keyboard-response","203","461362","0.0-4.0-1.0-3.13","9pjg1wlt09toqu3","prime","5f4eabfe4184f70d6428afdc","5f60e3c0a3b16e07647b2ff9","5f60ec477836cc0008fe88a5","false","null","<div style=""align-items: center; display: flex; color: darkorange; font-size: 90px""><b>ø</b></div>","null","","","","forget_cue","","","","","","","","","","","","","","","",""
"html-keyboard-response","204","462073","0.0-4.0-1.0-0.14","9pjg1wlt09toqu3","prime","5f4eabfe4184f70d6428afdc","5f60e3c0a3b16e07647b2ff9","5f60ec477836cc0008fe88a5","false","null","<span style=""color: black; font-size: 48px"">N + M</span>","null","","","","resp_prompt","","","","","","","","","","","","","","","",""
"categorize-image","205","462996","0.0-4.0-1.0-1.14","9pjg1wlt09toqu3","prime","5f4eabfe4184f70d6428afdc","5f60e3c0a3b16e07647b2ff9","5f60ec477836cc0008fe88a5","true","920","./Stimuli/SelectedImages/SM/SM17.bmp","76","","","","test","true","N + M","76","switch","SM","SM17.bmp","forget","","79","4","prime1","right","","","",""
"html-keyboard-response","206","465005","0.0-4.0-1.0-3.14","9pjg1wlt09toqu3","prime","5f4eabfe4184f70d6428afdc","5f60e3c0a3b16e07647b2ff9","5f60ec477836cc0008fe88a5","false","null","<div style=""align-items: center; display: flex; color: darkorange; font-size: 90px""><b>ø</b></div>","null","","","","forget_cue","","","","","","","","","","","","","","","",""
"html-keyboard-response","207","465716","0.0-4.0-1.0-0.15","9pjg1wlt09toqu3","prime","5f4eabfe4184f70d6428afdc","5f60e3c0a3b16e07647b2ff9","5f60ec477836cc0008fe88a5","false","null","<span style=""color: black; font-size: 48px"">N + M</span>","null","","","","resp_prompt","","","","","","","","","","","","","","","",""
"categorize-image","208","466697","0.0-4.0-1.0-1.15","9pjg1wlt09toqu3","prime","5f4eabfe4184f70d6428afdc","5f60e3c0a3b16e07647b2ff9","5f60ec477836cc0008fe88a5","true","979","./Stimuli/SelectedImages/LN/LN150.bmp","76","","","","test","false","N + M","83","switch","LN","LN150.bmp","forget","","80","4","prime1","right","","","",""
"html-keyboard-response","209","467202","0.0-4.0-1.0-2.15-0.15","9pjg1wlt09toqu3","prime","5f4eabfe4184f70d6428afdc","5f60e3c0a3b16e07647b2ff9","5f60ec477836cc0008fe88a5","false","null","<span style=""color: red; font-size: 48px"">Error!</span>","null","","","","feedback","","","","","","","","","","","","","","","",""
"html-keyboard-response","210","469217","0.0-4.0-1.0-3.15","9pjg1wlt09toqu3","prime","5f4eabfe4184f70d6428afdc","5f60e3c0a3b16e07647b2ff9","5f60ec477836cc0008fe88a5","false","null","<div style=""align-items: center; display: flex; color: darkorange; font-size: 90px""><b>ø</b></div>","null","","","","forget_cue","","","","","","","","","","","","","","","",""
"html-keyboard-response","211","469918","0.0-4.0-1.0-0.16","9pjg1wlt09toqu3","prime","5f4eabfe4184f70d6428afdc","5f60e3c0a3b16e07647b2ff9","5f60ec477836cc0008fe88a5","false","null","<span style=""color: black; font-size: 48px"">M + N</span>","null","","","","resp_prompt","","","","","","","","","","","","","","","",""
"categorize-image","212","470774","0.0-4.0-1.0-1.16","9pjg1wlt09toqu3","prime","5f4eabfe4184f70d6428afdc","5f60e3c0a3b16e07647b2ff9","5f60ec477836cc0008fe88a5","true","854","./Stimuli/SelectedImages/LN/LN166.bmp","76","","","","test","true","M + N","76","repetition","LN","LN166.bmp","forget","","81","4","prime1","right","","","",""
"html-keyboard-response","213","472781","0.0-4.0-1.0-3.16","9pjg1wlt09toqu3","prime","5f4eabfe4184f70d6428afdc","5f60e3c0a3b16e07647b2ff9","5f60ec477836cc0008fe88a5","false","null","<div style=""align-items: center; display: flex; color: darkorange; font-size: 90px""><b>ø</b></div>","null","","","","forget_cue","","","","","","","","","","","","","","","",""
"html-keyboard-response","214","473486","0.0-4.0-1.0-0.17","9pjg1wlt09toqu3","prime","5f4eabfe4184f70d6428afdc","5f60e3c0a3b16e07647b2ff9","5f60ec477836cc0008fe88a5","false","null","<span style=""color: black; font-size: 48px"">M + N</span>","null","","","","resp_prompt","","","","","","","","","","","","","","","",""
"categorize-image","215","474228","0.0-4.0-1.0-1.17","9pjg1wlt09toqu3","prime","5f4eabfe4184f70d6428afdc","5f60e3c0a3b16e07647b2ff9","5f60ec477836cc0008fe88a5","true","739","./Stimuli/SelectedImages/LM/LM216.bmp","83","","","","test","true","M + N","83","repetition","LM","LM216.bmp","forget","","82","4","prime1","left","","","",""
"html-keyboard-response","216","476232","0.0-4.0-1.0-3.17","9pjg1wlt09toqu3","prime","5f4eabfe4184f70d6428afdc","5f60e3c0a3b16e07647b2ff9","5f60ec477836cc0008fe88a5","false","null","<div style=""align-items: center; display: flex; color: darkorange; font-size: 90px""><b>ø</b></div>","null","","","","forget_cue","","","","","","","","","","","","","","","",""
"html-keyboard-response","217","476944","0.0-4.0-1.0-0.18","9pjg1wlt09toqu3","prime","5f4eabfe4184f70d6428afdc","5f60e3c0a3b16e07647b2ff9","5f60ec477836cc0008fe88a5","false","null","<span style=""color: black; font-size: 48px"">N + M</span>","null","","","","resp_prompt","","","","","","","","","","","","","","","",""
"categorize-image","218","477885","0.0-4.0-1.0-1.18","9pjg1wlt09toqu3","prime","5f4eabfe4184f70d6428afdc","5f60e3c0a3b16e07647b2ff9","5f60ec477836cc0008fe88a5","true","939","./Stimuli/SelectedImages/LN/LN9.bmp","76","","","","test","false","N + M","83","switch","LN","LN9.bmp","forget","","83","4","prime1","right","","","",""
"html-keyboard-response","219","478392","0.0-4.0-1.0-2.18-0.18","9pjg1wlt09toqu3","prime","5f4eabfe4184f70d6428afdc","5f60e3c0a3b16e07647b2ff9","5f60ec477836cc0008fe88a5","false","null","<span style=""color: red; font-size: 48px"">Error!</span>","null","","","","feedback","","","","","","","","","","","","","","","",""
"html-keyboard-response","220","480407","0.0-4.0-1.0-3.18","9pjg1wlt09toqu3","prime","5f4eabfe4184f70d6428afdc","5f60e3c0a3b16e07647b2ff9","5f60ec477836cc0008fe88a5","false","null","<div style=""align-items: center; display: flex; color: darkorange; font-size: 90px""><b>ø</b></div>","null","","","","forget_cue","","","","","","","","","","","","","","","",""
"html-keyboard-response","221","481108","0.0-4.0-1.0-0.19","9pjg1wlt09toqu3","prime","5f4eabfe4184f70d6428afdc","5f60e3c0a3b16e07647b2ff9","5f60ec477836cc0008fe88a5","false","null","<span style=""color: black; font-size: 48px"">M + N</span>","null","","","","resp_prompt","","","","","","","","","","","","","","","",""
"categorize-image","222","481938","0.0-4.0-1.0-1.19","9pjg1wlt09toqu3","prime","5f4eabfe4184f70d6428afdc","5f60e3c0a3b16e07647b2ff9","5f60ec477836cc0008fe88a5","true","828","./Stimuli/SelectedImages/SN/SN155.bmp","76","","","","test","true","M + N","76","switch","SN","SN155.bmp","remember","","84","4","prime1","right","","","",""
"html-keyboard-response","223","483944","0.0-4.0-1.0-3.19","9pjg1wlt09toqu3","prime","5f4eabfe4184f70d6428afdc","5f60e3c0a3b16e07647b2ff9","5f60ec477836cc0008fe88a5","false","null","<div style=""align-items: center; display: flex; color: dodgerblue; font-size: 90px""><b>o</b></div>","null","","","","forget_cue","","","","","","","","","","","","","","","",""
"html-keyboard-response","224","484653","0.0-4.0-1.0-0.20","9pjg1wlt09toqu3","prime","5f4eabfe4184f70d6428afdc","5f60e3c0a3b16e07647b2ff9","5f60ec477836cc0008fe88a5","false","null","<span style=""color: black; font-size: 48px"">M + N</span>","null","","","","resp_prompt","","","","","","","","","","","","","","","",""
"categorize-image","225","485565","0.0-4.0-1.0-1.20","9pjg1wlt09toqu3","prime","5f4eabfe4184f70d6428afdc","5f60e3c0a3b16e07647b2ff9","5f60ec477836cc0008fe88a5","true","910","./Stimuli/SelectedImages/LN/LN177.bmp","76","","","","test","true","M + N","76","switch","LN","LN177.bmp","forget","","85","4","prime1","right","","","",""
"html-keyboard-response","226","487570","0.0-4.0-1.0-3.20","9pjg1wlt09toqu3","prime","5f4eabfe4184f70d6428afdc","5f60e3c0a3b16e07647b2ff9","5f60ec477836cc0008fe88a5","false","null","<div style=""align-items: center; display: flex; color: darkorange; font-size: 90px""><b>ø</b></div>","null","","","","forget_cue","","","","","","","","","","","","","","","",""
"html-keyboard-response","227","488275","0.0-4.0-1.0-0.21","9pjg1wlt09toqu3","prime","5f4eabfe4184f70d6428afdc","5f60e3c0a3b16e07647b2ff9","5f60ec477836cc0008fe88a5","false","null","<span style=""color: black; font-size: 48px"">M + N</span>","null","","","","resp_prompt","","","","","","","","","","","","","","","",""
"categorize-image","228","488932","0.0-4.0-1.0-1.21","9pjg1wlt09toqu3","prime","5f4eabfe4184f70d6428afdc","5f60e3c0a3b16e07647b2ff9","5f60ec477836cc0008fe88a5","true","654","./Stimuli/SelectedImages/LN/LN131.bmp","83","","","","test","false","M + N","76","switch","LN","LN131.bmp","remember","","86","4","prime1","left","","","",""
"html-keyboard-response","229","489438","0.0-4.0-1.0-2.21-0.21","9pjg1wlt09toqu3","prime","5f4eabfe4184f70d6428afdc","5f60e3c0a3b16e07647b2ff9","5f60ec477836cc0008fe88a5","false","null","<span style=""color: red; font-size: 48px"">Error!</span>","null","","","","feedback","","","","","","","","","","","","","","","",""
"html-keyboard-response","230","491452","0.0-4.0-1.0-3.21","9pjg1wlt09toqu3","prime","5f4eabfe4184f70d6428afdc","5f60e3c0a3b16e07647b2ff9","5f60ec477836cc0008fe88a5","false","null","<div style=""align-items: center; display: flex; color: dodgerblue; font-size: 90px""><b>o</b></div>","null","","","","forget_cue","","","","","","","","","","","","","","","",""
"html-keyboard-response","231","492166","0.0-4.0-1.0-0.22","9pjg1wlt09toqu3","prime","5f4eabfe4184f70d6428afdc","5f60e3c0a3b16e07647b2ff9","5f60ec477836cc0008fe88a5","false","null","<span style=""color: black; font-size: 48px"">M + N</span>","null","","","","resp_prompt","","","","","","","","","","","","","","","",""
"categorize-image","232","492884","0.0-4.0-1.0-1.22","9pjg1wlt09toqu3","prime","5f4eabfe4184f70d6428afdc","5f60e3c0a3b16e07647b2ff9","5f60ec477836cc0008fe88a5","true","715","./Stimuli/SelectedImages/LM/LM157.bmp","83","","","","test","true","M + N","83","switch","LM","LM157.bmp","forget","","87","4","prime1","left","","","",""
"html-keyboard-response","233","494888","0.0-4.0-1.0-3.22","9pjg1wlt09toqu3","prime","5f4eabfe4184f70d6428afdc","5f60e3c0a3b16e07647b2ff9","5f60ec477836cc0008fe88a5","false","null","<div style=""align-items: center; display: flex; color: darkorange; font-size: 90px""><b>ø</b></div>","null","","","","forget_cue","","","","","","","","","","","","","","","",""
"html-keyboard-response","234","495594","0.0-4.0-1.0-0.23","9pjg1wlt09toqu3","prime","5f4eabfe4184f70d6428afdc","5f60e3c0a3b16e07647b2ff9","5f60ec477836cc0008fe88a5","false","null","<span style=""color: black; font-size: 48px"">N + M</span>","null","","","","resp_prompt","","","","","","","","","","","","","","","",""
"categorize-image","235","496560","0.0-4.0-1.0-1.23","9pjg1wlt09toqu3","prime","5f4eabfe4184f70d6428afdc","5f60e3c0a3b16e07647b2ff9","5f60ec477836cc0008fe88a5","true","962","./Stimuli/SelectedImages/LM/LM167.bmp","83","","","","test","false","N + M","76","switch","LM","LM167.bmp","remember","","88","4","prime1","left","","","",""
"html-keyboard-response","236","497070","0.0-4.0-1.0-2.23-0.23","9pjg1wlt09toqu3","prime","5f4eabfe4184f70d6428afdc","5f60e3c0a3b16e07647b2ff9","5f60ec477836cc0008fe88a5","false","null","<span style=""color: red; font-size: 48px"">Error!</span>","null","","","","feedback","","","","","","","","","","","","","","","",""
"html-keyboard-response","237","499083","0.0-4.0-1.0-3.23","9pjg1wlt09toqu3","prime","5f4eabfe4184f70d6428afdc","5f60e3c0a3b16e07647b2ff9","5f60ec477836cc0008fe88a5","false","null","<div style=""align-items: center; display: flex; color: dodgerblue; font-size: 90px""><b>o</b></div>","null","","","","forget_cue","","","","","","","","","","","","","","","",""
"html-keyboard-response","238","499788","0.0-4.0-1.0-0.24","9pjg1wlt09toqu3","prime","5f4eabfe4184f70d6428afdc","5f60e3c0a3b16e07647b2ff9","5f60ec477836cc0008fe88a5","false","null","<span style=""color: black; font-size: 48px"">N + M</span>","null","","","","resp_prompt","","","","","","","","","","","","","","","",""
"categorize-image","239","500522","0.0-4.0-1.0-1.24","9pjg1wlt09toqu3","prime","5f4eabfe4184f70d6428afdc","5f60e3c0a3b16e07647b2ff9","5f60ec477836cc0008fe88a5","true","733","./Stimuli/SelectedImages/SM/SM207.bmp","76","","","","test","true","N + M","76","repetition","SM","SM207.bmp","forget","","89","4","prime1","right","","","",""
"html-keyboard-response","240","502532","0.0-4.0-1.0-3.24","9pjg1wlt09toqu3","prime","5f4eabfe4184f70d6428afdc","5f60e3c0a3b16e07647b2ff9","5f60ec477836cc0008fe88a5","false","null","<div style=""align-items: center; display: flex; color: darkorange; font-size: 90px""><b>ø</b></div>","null","","","","forget_cue","","","","","","","","","","","","","","","",""
"html-keyboard-response","241","503235","0.0-4.0-1.0-0.25","9pjg1wlt09toqu3","prime","5f4eabfe4184f70d6428afdc","5f60e3c0a3b16e07647b2ff9","5f60ec477836cc0008fe88a5","false","null","<span style=""color: black; font-size: 48px"">N + M</span>","null","","","","resp_prompt","","","","","","","","","","","","","","","",""
"categorize-image","242","503922","0.0-4.0-1.0-1.25","9pjg1wlt09toqu3","prime","5f4eabfe4184f70d6428afdc","5f60e3c0a3b16e07647b2ff9","5f60ec477836cc0008fe88a5","true","684","./Stimuli/SelectedImages/LM/LM51.bmp","83","","","","test","false","N + M","76","switch","LM","LM51.bmp","remember","","90","4","prime1","left","","","",""
"html-keyboard-response","243","504427","0.0-4.0-1.0-2.25-0.25","9pjg1wlt09toqu3","prime","5f4eabfe4184f70d6428afdc","5f60e3c0a3b16e07647b2ff9","5f60ec477836cc0008fe88a5","false","null","<span style=""color: red; font-size: 48px"">Error!</span>","null","","","","feedback","","","","","","","","","","","","","","","",""
"html-keyboard-response","244","506429","0.0-4.0-1.0-3.25","9pjg1wlt09toqu3","prime","5f4eabfe4184f70d6428afdc","5f60e3c0a3b16e07647b2ff9","5f60ec477836cc0008fe88a5","false","null","<div style=""align-items: center; display: flex; color: dodgerblue; font-size: 90px""><b>o</b></div>","null","","","","forget_cue","","","","","","","","","","","","","","","",""
"html-keyboard-response","245","507136","0.0-4.0-1.0-0.26","9pjg1wlt09toqu3","prime","5f4eabfe4184f70d6428afdc","5f60e3c0a3b16e07647b2ff9","5f60ec477836cc0008fe88a5","false","null","<span style=""color: black; font-size: 48px"">M + N</span>","null","","","","resp_prompt","","","","","","","","","","","","","","","",""
"categorize-image","246","507801","0.0-4.0-1.0-1.26","9pjg1wlt09toqu3","prime","5f4eabfe4184f70d6428afdc","5f60e3c0a3b16e07647b2ff9","5f60ec477836cc0008fe88a5","true","660","./Stimuli/SelectedImages/SM/SM24.bmp","76","","","","test","false","M + N","83","switch","SM","SM24.bmp","forget","","91","4","prime1","right","","","",""
"html-keyboard-response","247","508306","0.0-4.0-1.0-2.26-0.26","9pjg1wlt09toqu3","prime","5f4eabfe4184f70d6428afdc","5f60e3c0a3b16e07647b2ff9","5f60ec477836cc0008fe88a5","false","null","<span style=""color: red; font-size: 48px"">Error!</span>","null","","","","feedback","","","","","","","","","","","","","","","",""
"html-keyboard-response","248","510319","0.0-4.0-1.0-3.26","9pjg1wlt09toqu3","prime","5f4eabfe4184f70d6428afdc","5f60e3c0a3b16e07647b2ff9","5f60ec477836cc0008fe88a5","false","null","<div style=""align-items: center; display: flex; color: darkorange; font-size: 90px""><b>ø</b></div>","null","","","","forget_cue","","","","","","","","","","","","","","","",""
"html-keyboard-response","249","511029","0.0-4.0-1.0-0.27","9pjg1wlt09toqu3","prime","5f4eabfe4184f70d6428afdc","5f60e3c0a3b16e07647b2ff9","5f60ec477836cc0008fe88a5","false","null","<span style=""color: black; font-size: 48px"">N + M</span>","null","","","","resp_prompt","","","","","","","","","","","","","","","",""
"categorize-image","250","512072","0.0-4.0-1.0-1.27","9pjg1wlt09toqu3","prime","5f4eabfe4184f70d6428afdc","5f60e3c0a3b16e07647b2ff9","5f60ec477836cc0008fe88a5","true","1042","./Stimuli/SelectedImages/LN/LN149.bmp","76","","","","test","false","N + M","83","repetition","LN","LN149.bmp","forget","","92","4","prime1","right","","","",""
