"trial_type","trial_index","time_elapsed","internal_node_id","subject","exp_part","prolific_PID","study_ID","session_ID","use","rt","stimulus","key_press","button_pressed","responses","question_order","trial_part","correct","resp_map","correct_resp","probe_condition","category","image","forget_condition","list","trial_num","block_num","block","response","test_part","n_span","sequence","num_spaces"
"pavlovia","0","3","0.0-0.0","p0p56hp3ldhkpal","","5e9ce0a46976671ceda6082a","5f60e3c0a3b16e07647b2ff9","5f638033fcaaa106ed67654e","false","","","","","","","","","","","","","","","","","","","","","","",""
"html-keyboard-response","1","11052","0.0-1.0-0.0-0.0","p0p56hp3ldhkpal","welcome","5e9ce0a46976671ceda6082a","5f60e3c0a3b16e07647b2ff9","5f638033fcaaa106ed67654e","false","11047.144999960437","<div align=left>Dear participant, <br> thank you for participating in an online study of the Cognition, Action, and Sustainability Unit of the University of Freiburg! <br> <br>The aim of this study is to examine our ability to remember previously learned information. <br>Our goal is to find out, whether our memory improves, when we only remember information that is relevant to us. <br>The experiment will take about 35 minutes to complete. <br> <br>Please, note that you can only participate in this study if you are using a device with a keyboard (PC, Laptop etc.) <br>and not if you are using a mobile device such as a tablet or smartphone.<br> <br>Press 'SPACE' to proceed to the experiment. </div>","32","","","","","","","","","","","","","","","","","","","",""
"html-keyboard-response","2","82164","0.0-1.0-0.0-1.0","p0p56hp3ldhkpal","welcome","5e9ce0a46976671ceda6082a","5f60e3c0a3b16e07647b2ff9","5f638033fcaaa106ed67654e","false","71078.48999998532","<div align=left><strong> Time Course of this experiment: </strong> <br><br> <strong> 1.</strong>  First, please fill in some information regarding your demographic data. <br><br> <strong> 2.</strong>  Next, your task will be to classify everyday objects. <br>In addition, you will be asked to remember certain objects and recall them later. <br>Working on these tasks requires your undivided attention and concentration.<br>It is therefore essential that you eliminate any sources of distraction in your  <br>environment and ensure that you will not be disturbed. <br><br><strong> 3.</strong>  At the end of the experiment, you will be asked to answer a few additional questions. <br> <br><strong> Important:</strong> After finishing the experiment, only close the browser window <br> by clicking on the 'end the experiment'-button when you are asked to do so. <br>Closing the browser window prematurely will make the allocation of your participation credit impossible. <br><br> Press 'SPACE' to start the experiment. </div>","32","","","","","","","","","","","","","","","","","","","",""
"html-button-response","3","89992","0.0-1.0-0.0-2.0","p0p56hp3ldhkpal","welcome","5e9ce0a46976671ceda6082a","5f60e3c0a3b16e07647b2ff9","5f638033fcaaa106ed67654e","true","7826.060000108555","<div align=left><strong> Informed consent </strong>  <br>The aim of our research is to better understand human behavior and mental processes. <br>In the following study your behavior (e.g. choices, reaction times) will be studied. <br> <br><strong> Voluntariness and Anonymity </strong> <br>Your participation in this study is  <strong> voluntary</strong>.<br>You may withdraw your consent to participate at any time without providing a reason for doing so and without fear of prejudice. <br><br>As no personal data will be collected, <strong>your data and your person cannot be connected after data collection</strong> – the data-set is anonymous. <br>Respectively, deletion of your data will not be possible after data collection has been completed, as we cannot retrace your data-set.<br>The results and anonymized data collected in this study will be published as a scientific publication. <br>This will happen in an <strong>anonymized format</strong>, so that no data can be traced back to a specific person. <br> <br>The anonymized data of this study will be made available to other researchers and/or in a data archive on the Internet as a means of transparency and to enable subsequent re-use. By doing so, this study follows the recommendations of the Deutsche Forschungsgemeinschaft (DFG, German Research Foundation) and Deutsche Gesellschaft für Psychologie (DGPS, German Psychological Society) regarding quality assurance in research.<br>If you have any questions now or after the experiment, please contact our team (experiments@cs.uni-freiburg.de).<br><br><br>I hereby declare, that I understand the above described conditions of participation and I agree to participate under these conditions. <br><br> </div>","","0","","","","","","","","","","","","","","","","","","",""
"html-keyboard-response","4","132834","0.0-1.0-0.0-3.0","p0p56hp3ldhkpal","welcome","5e9ce0a46976671ceda6082a","5f60e3c0a3b16e07647b2ff9","5f638033fcaaa106ed67654e","false","42839.66000005603","<div align=left><strong> General information concerning the experiment </strong>  <br> <br>Please follow the instructions:<ol> <li><strong> Do not leave this tab (your browser window) during the experiment and do not reload this tab! </strong>  <br>If you do switch tabs/windows during the experiment (to check your mail or visit another website, for example), <br>the experiment will end automatically and you will <strong>not receive credit</strong> for your participation. <br>Repeated participation or resumption of the experiment is impossible.</li> <br><li>Please close all other programs for the duration of your participation. </li> <br><li>Please mute or turn off your phone and put it out of your reach. </li> <br><li>Please also take off any disturbing accessories (such as wristwatches, bracelets, etc.). </li> <br><li>If you have music playing in the background, please turn it off now. </li> <br></ol>Thank you! <br>Press 'SPACE' to continue. </div>","32","","","","","","","","","","","","","","","","","","","",""
"survey-text","5","136262","0.0-1.0-1.0-0.0","p0p56hp3ldhkpal","demographics","5e9ce0a46976671ceda6082a","5f60e3c0a3b16e07647b2ff9","5f638033fcaaa106ed67654e","true","3424.129999941215","","","","{""age"":""37""}","","","","","","","","","","","","","","","","","",""
"survey-multi-choice","6","185086","0.0-1.0-1.0-1.0","p0p56hp3ldhkpal","demographics","5e9ce0a46976671ceda6082a","5f60e3c0a3b16e07647b2ff9","5f638033fcaaa106ed67654e","true","48821.62000006065","","","","{""gender"":""male"",""school"":""high school"",""education"":""Completed university degree or equivalent""}","[0,1,2]","","","","","","","","","","","","","","","","",""
"html-keyboard-response","7","205507","0.0-1.0-2.0","p0p56hp3ldhkpal","instructions","5e9ce0a46976671ceda6082a","5f60e3c0a3b16e07647b2ff9","5f638033fcaaa106ed67654e","false","20419.75999996066","<div align=left> The experiment is now about to start: <br> <br>In the following part, you will be presented pictures of everyday objects. <br>Your first task is to <strong>classify these objects. </strong> <br> <br> You will classify them either as mechanical or non-mechanical objects. <br> <br>Objects that include any kind of technical mechanism (for example, wheels, switches, levers, <br> electronic components) fall under the category of <strong>mechanical</strong> objects. <br>Only objects without any kind of technical mechanism should be classified as <strong>non-mechanical</strong>. <br><br>Press 'SPACE' to continue. </div>","32","","","","","","","","","","","","","","","","","","","",""
"html-keyboard-response","8","574958","0.0-2.0-0.0","p0p56hp3ldhkpal","instructions","5e9ce0a46976671ceda6082a","5f60e3c0a3b16e07647b2ff9","5f638033fcaaa106ed67654e","false","369450.50500007346","<div align=justify>You will classify the objects using the <strong>'S'</strong> and the <strong>'L'</strong> keys on your keyboard.<br>For doing so, please place your <strong>left index finger</strong> on the <strong>'S'</strong> key and place your <strong>right index finger</strong> on the <strong>'L'</strong> key. <br><br> Each trial starts with an instruction, indicating which key ('S'/'L') you need to press to classify <br>the object as mechanical (letter M) or non-mechanical (letter N).<br>The instruction <strong>M + N</strong> indicates that, in the current trial, by pressing the left key ('S') you classify the displayed object as mechanical (M) <br> and by pressing the right key ('L') you classify the object as non-mechanical (N). <br>The instruction <strong>N + M</strong> on the other hand indicates that by pressing the left key ('S') you classify the displayed object as non-mechanical (N) <br> and by pressing the right key ('L') you classify the object as mechanical (M). <br><br>Please press the key corresponding to the correct classification as fast as possible as soon as the object is displayed and try to avoid making mistakes.<br>If you do not respond within a 2 second window, a corresponding feedback will be displayed and the next trial will start.<br> The experiment is divided into multiple blocks to give you the opportunity to take a break after each block. <br>First, you can now practice this task. <br><br>Please place your <strong>LEFT INDEX FINGER</strong> on the 'S' key and your <strong>RIGHT INDEX FINGER</strong> on the 'L' key now. <br><br>Press SPACE to continue.</div>","32","","","","","","","","","","","","","","","","","","","",""
"html-keyboard-response","9","582843","0.0-2.0-1.0","p0p56hp3ldhkpal","instructions","5e9ce0a46976671ceda6082a","5f60e3c0a3b16e07647b2ff9","5f638033fcaaa106ed67654e","false","7884.20999981463","<div align=left> You will now have time to practice this task.<br><br>Remember: <br> <br><li>Please place your index fingers on the <strong>'S'</strong> and <strong>'L'</strong> keys <br>to respond as fast and accurately as possible.</li><li>Every picture can be classified as either mechanical or non-mechanical.</li><li>If you do not respond in time or commit an error, you will receive a corresponding feedback. </li><li> Please try to respond as <strong> fast </strong> and as <strong> accurately as possible </strong> .<br><li>To ensure optimal results, please minimize distractions and stay focused. </li><br><br>Press SPACE to continue.</div>","32","","","","","","","","","","","","","","","","","","","",""
"html-keyboard-response","10","583549","0.0-2.0-2.0-0.0","p0p56hp3ldhkpal","practice_no_cue","5e9ce0a46976671ceda6082a","5f60e3c0a3b16e07647b2ff9","5f638033fcaaa106ed67654e","false","null","<span style=""color: black; font-size: 48px"">M + N</span>","null","","","","resp_prompt","","","","","","","","","","","","","","","",""
"categorize-image","11","586060","0.0-2.0-2.0-1.0","p0p56hp3ldhkpal","practice_no_cue","5e9ce0a46976671ceda6082a","5f60e3c0a3b16e07647b2ff9","5f638033fcaaa106ed67654e","true","null","./Stimuli/ImagesPractice/LN2.jpg","null","","","","test","false","M + N","76","","LN","LN2.jpg","remember","old","1","1","start","too_slow","","","",""
"html-keyboard-response","12","586765","0.0-2.0-2.0-0.1","p0p56hp3ldhkpal","practice_no_cue","5e9ce0a46976671ceda6082a","5f60e3c0a3b16e07647b2ff9","5f638033fcaaa106ed67654e","false","null","<span style=""color: black; font-size: 48px"">N + M</span>","null","","","","resp_prompt","","","","","","","","","","","","","","","",""
"categorize-image","13","588565","0.0-2.0-2.0-1.1","p0p56hp3ldhkpal","practice_no_cue","5e9ce0a46976671ceda6082a","5f60e3c0a3b16e07647b2ff9","5f638033fcaaa106ed67654e","true","1298.5449999105185","./Stimuli/ImagesPractice/SM98.jpg","76","","","","test","true","N + M","76","","SM","SM98.jpg","forget","old","2","1","start","right","","","",""
"html-keyboard-response","14","589269","0.0-2.0-2.0-0.2","p0p56hp3ldhkpal","practice_no_cue","5e9ce0a46976671ceda6082a","5f60e3c0a3b16e07647b2ff9","5f638033fcaaa106ed67654e","false","null","<span style=""color: black; font-size: 48px"">N + M</span>","null","","","","resp_prompt","","","","","","","","","","","","","","","",""
"categorize-image","15","590860","0.0-2.0-2.0-1.2","p0p56hp3ldhkpal","practice_no_cue","5e9ce0a46976671ceda6082a","5f60e3c0a3b16e07647b2ff9","5f638033fcaaa106ed67654e","true","1087.0250000152737","./Stimuli/ImagesPractice/LN109.jpg","76","","","","test","false","N + M","83","","LN","LN109.jpg","forget","old","3","1","start","right","","","",""
"html-keyboard-response","16","591561","0.0-2.0-2.0-0.3","p0p56hp3ldhkpal","practice_no_cue","5e9ce0a46976671ceda6082a","5f60e3c0a3b16e07647b2ff9","5f638033fcaaa106ed67654e","false","null","<span style=""color: black; font-size: 48px"">M + N</span>","null","","","","resp_prompt","","","","","","","","","","","","","","","",""
"categorize-image","17","592877","0.0-2.0-2.0-1.3","p0p56hp3ldhkpal","practice_no_cue","5e9ce0a46976671ceda6082a","5f60e3c0a3b16e07647b2ff9","5f638033fcaaa106ed67654e","true","814.5700001623482","./Stimuli/ImagesPractice/SM35.jpg","83","","","","test","true","M + N","83","","SM","SM35.jpg","forget","old","4","1","start","left","","","",""
"html-keyboard-response","18","593579","0.0-2.0-2.0-0.4","p0p56hp3ldhkpal","practice_no_cue","5e9ce0a46976671ceda6082a","5f60e3c0a3b16e07647b2ff9","5f638033fcaaa106ed67654e","false","null","<span style=""color: black; font-size: 48px"">M + N</span>","null","","","","resp_prompt","","","","","","","","","","","","","","","",""
"categorize-image","19","595119","0.0-2.0-2.0-1.4","p0p56hp3ldhkpal","practice_no_cue","5e9ce0a46976671ceda6082a","5f60e3c0a3b16e07647b2ff9","5f638033fcaaa106ed67654e","true","1037.5449999701232","./Stimuli/ImagesPractice/LN72.jpg","76","","","","test","true","M + N","76","","LN","LN72.jpg","forget","old","5","1","start","right","","","",""
"html-keyboard-response","20","595821","0.0-2.0-2.0-0.5","p0p56hp3ldhkpal","practice_no_cue","5e9ce0a46976671ceda6082a","5f60e3c0a3b16e07647b2ff9","5f638033fcaaa106ed67654e","false","null","<span style=""color: black; font-size: 48px"">N + M</span>","null","","","","resp_prompt","","","","","","","","","","","","","","","",""
"categorize-image","21","597164","0.0-2.0-2.0-1.5","p0p56hp3ldhkpal","practice_no_cue","5e9ce0a46976671ceda6082a","5f60e3c0a3b16e07647b2ff9","5f638033fcaaa106ed67654e","true","837.0350000914186","./Stimuli/ImagesPractice/LM239.jpg","83","","","","test","false","N + M","76","","LM","LM239.jpg","remember","old","6","1","start","left","","","",""
"html-keyboard-response","22","597869","0.0-2.0-2.0-0.6","p0p56hp3ldhkpal","practice_no_cue","5e9ce0a46976671ceda6082a","5f60e3c0a3b16e07647b2ff9","5f638033fcaaa106ed67654e","false","null","<span style=""color: black; font-size: 48px"">N + M</span>","null","","","","resp_prompt","","","","","","","","","","","","","","","",""
"categorize-image","23","599901","0.0-2.0-2.0-1.6","p0p56hp3ldhkpal","practice_no_cue","5e9ce0a46976671ceda6082a","5f60e3c0a3b16e07647b2ff9","5f638033fcaaa106ed67654e","true","1528.0999999959022","./Stimuli/ImagesPractice/SM61.jpg","76","","","","test","true","N + M","76","","SM","SM61.jpg","remember","old","7","1","start","right","","","",""
"html-keyboard-response","24","600602","0.0-2.0-2.0-0.7","p0p56hp3ldhkpal","practice_no_cue","5e9ce0a46976671ceda6082a","5f60e3c0a3b16e07647b2ff9","5f638033fcaaa106ed67654e","false","null","<span style=""color: black; font-size: 48px"">N + M</span>","null","","","","resp_prompt","","","","","","","","","","","","","","","",""
"categorize-image","25","602554","0.0-2.0-2.0-1.7","p0p56hp3ldhkpal","practice_no_cue","5e9ce0a46976671ceda6082a","5f60e3c0a3b16e07647b2ff9","5f638033fcaaa106ed67654e","true","1448.5700000077486","./Stimuli/ImagesPractice/SN220.jpg","76","","","","test","false","N + M","83","","SN","SN220.jpg","remember","old","8","1","start","right","","","",""
"html-keyboard-response","26","603256","0.0-2.0-2.0-0.8","p0p56hp3ldhkpal","practice_no_cue","5e9ce0a46976671ceda6082a","5f60e3c0a3b16e07647b2ff9","5f638033fcaaa106ed67654e","false","null","<span style=""color: black; font-size: 48px"">M + N</span>","null","","","","resp_prompt","","","","","","","","","","","","","","","",""
"categorize-image","27","605045","0.0-2.0-2.0-1.8","p0p56hp3ldhkpal","practice_no_cue","5e9ce0a46976671ceda6082a","5f60e3c0a3b16e07647b2ff9","5f638033fcaaa106ed67654e","true","1285.9099998604506","./Stimuli/ImagesPractice/SN76.jpg","76","","","","test","true","M + N","76","","SN","SN76.jpg","remember","old","9","1","start","right","","","",""
"html-keyboard-response","28","605747","0.0-2.0-2.0-0.9","p0p56hp3ldhkpal","practice_no_cue","5e9ce0a46976671ceda6082a","5f60e3c0a3b16e07647b2ff9","5f638033fcaaa106ed67654e","false","null","<span style=""color: black; font-size: 48px"">M + N</span>","null","","","","resp_prompt","","","","","","","","","","","","","","","",""
"categorize-image","29","607664","0.0-2.0-2.0-1.9","p0p56hp3ldhkpal","practice_no_cue","5e9ce0a46976671ceda6082a","5f60e3c0a3b16e07647b2ff9","5f638033fcaaa106ed67654e","true","1413.93500007689","./Stimuli/ImagesPractice/SN221.jpg","83","","","","test","false","M + N","76","","SN","SN221.jpg","remember","old","10","1","start","left","","","",""
"html-keyboard-response","30","608369","0.0-2.0-2.0-0.10","p0p56hp3ldhkpal","practice_no_cue","5e9ce0a46976671ceda6082a","5f60e3c0a3b16e07647b2ff9","5f638033fcaaa106ed67654e","false","null","<span style=""color: black; font-size: 48px"">M + N</span>","null","","","","resp_prompt","","","","","","","","","","","","","","","",""
"categorize-image","31","610588","0.0-2.0-2.0-1.10","p0p56hp3ldhkpal","practice_no_cue","5e9ce0a46976671ceda6082a","5f60e3c0a3b16e07647b2ff9","5f638033fcaaa106ed67654e","true","1715.2199998963624","./Stimuli/ImagesPractice/LM143.jpg","83","","","","test","true","M + N","83","","LM","LM143.jpg","forget","old","11","1","start","left","","","",""
"html-keyboard-response","32","611291","0.0-2.0-2.0-0.11","p0p56hp3ldhkpal","practice_no_cue","5e9ce0a46976671ceda6082a","5f60e3c0a3b16e07647b2ff9","5f638033fcaaa106ed67654e","false","null","<span style=""color: black; font-size: 48px"">N + M</span>","null","","","","resp_prompt","","","","","","","","","","","","","","","",""
"categorize-image","33","612811","0.0-2.0-2.0-1.11","p0p56hp3ldhkpal","practice_no_cue","5e9ce0a46976671ceda6082a","5f60e3c0a3b16e07647b2ff9","5f638033fcaaa106ed67654e","true","1015.855000121519","./Stimuli/ImagesPractice/LM147.jpg","83","","","","test","false","N + M","76","","LM","LM147.jpg","remember","old","12","1","start","left","","","",""
"html-keyboard-response","34","613515","0.0-2.0-2.0-0.12","p0p56hp3ldhkpal","practice_no_cue","5e9ce0a46976671ceda6082a","5f60e3c0a3b16e07647b2ff9","5f638033fcaaa106ed67654e","false","null","<span style=""color: black; font-size: 48px"">N + M</span>","null","","","","resp_prompt","","","","","","","","","","","","","","","",""
"categorize-image","35","615698","0.0-2.0-2.0-1.12","p0p56hp3ldhkpal","practice_no_cue","5e9ce0a46976671ceda6082a","5f60e3c0a3b16e07647b2ff9","5f638033fcaaa106ed67654e","true","1678.974999813363","./Stimuli/ImagesPractice/SN222.jpg","76","","","","test","false","N + M","83","","SN","SN222.jpg","forget","old","13","1","start","right","","","",""
"html-keyboard-response","36","616401","0.0-2.0-2.0-0.13","p0p56hp3ldhkpal","practice_no_cue","5e9ce0a46976671ceda6082a","5f60e3c0a3b16e07647b2ff9","5f638033fcaaa106ed67654e","false","null","<span style=""color: black; font-size: 48px"">M + N</span>","null","","","","resp_prompt","","","","","","","","","","","","","","","",""
"categorize-image","37","617860","0.0-2.0-2.0-1.13","p0p56hp3ldhkpal","practice_no_cue","5e9ce0a46976671ceda6082a","5f60e3c0a3b16e07647b2ff9","5f638033fcaaa106ed67654e","true","955.9799998532981","./Stimuli/ImagesPractice/LN4.jpg","76","","","","test","true","M + N","76","","LN","LN4.jpg","forget","old","14","1","start","right","","","",""
"html-keyboard-response","38","618561","0.0-2.0-2.0-0.14","p0p56hp3ldhkpal","practice_no_cue","5e9ce0a46976671ceda6082a","5f60e3c0a3b16e07647b2ff9","5f638033fcaaa106ed67654e","false","null","<span style=""color: black; font-size: 48px"">M + N</span>","null","","","","resp_prompt","","","","","","","","","","","","","","","",""
"categorize-image","39","621069","0.0-2.0-2.0-1.14","p0p56hp3ldhkpal","practice_no_cue","5e9ce0a46976671ceda6082a","5f60e3c0a3b16e07647b2ff9","5f638033fcaaa106ed67654e","true","null","./Stimuli/ImagesPractice/SM62.jpg","null","","","","test","false","M + N","83","","SM","SM62.jpg","remember","old","15","1","start","too_slow","","","",""
"html-keyboard-response","40","621771","0.0-2.0-2.0-0.15","p0p56hp3ldhkpal","practice_no_cue","5e9ce0a46976671ceda6082a","5f60e3c0a3b16e07647b2ff9","5f638033fcaaa106ed67654e","false","null","<span style=""color: black; font-size: 48px"">N + M</span>","null","","","","resp_prompt","","","","","","","","","","","","","","","",""
"categorize-image","41","623098","0.0-2.0-2.0-1.15","p0p56hp3ldhkpal","practice_no_cue","5e9ce0a46976671ceda6082a","5f60e3c0a3b16e07647b2ff9","5f638033fcaaa106ed67654e","true","824.3499998934567","./Stimuli/ImagesPractice/LM224.jpg","83","","","","test","false","N + M","76","","LM","LM224.jpg","forget","old","16","1","start","left","","","",""
"html-keyboard-response","42","687676","0.0-2.0-3.0","p0p56hp3ldhkpal","break","5e9ce0a46976671ceda6082a","5f60e3c0a3b16e07647b2ff9","5f638033fcaaa106ed67654e","false","64575.90500009246","<p style='font-size: 32px;'>Break</><br><br><br><br><br><p style='font-size: 24px;'>In the last block, you committed 7 errors and did not respond in time on 2 trials.
</p><p style='font-size: 24px;'>Try to respond as fast and accurately as possible in the next block as well! </p><p style='font-size: 24px;'>Press SPACE to continue.</p>","32","","","","","","","","","","","","","","","","","","","",""
"html-keyboard-response","43","697653","0.0-2.0-4.0","p0p56hp3ldhkpal","instructions","5e9ce0a46976671ceda6082a","5f60e3c0a3b16e07647b2ff9","5f638033fcaaa106ed67654e","false","9976.34999989532","<div align=left> Great!<br><br>Are you ready to continue?<br><br>If you want to reread the instructions and redo the practice trials, <br>please press „Z“. <br><br>Press SPACE to CONTINUE with the experiment when you are ready. </div>","32","","","","","","","","","","","","","","","","","","","",""
"html-keyboard-response","44","709981","0.0-3.0-0.0","p0p56hp3ldhkpal","instructions","5e9ce0a46976671ceda6082a","5f60e3c0a3b16e07647b2ff9","5f638033fcaaa106ed67654e","false","12326.630000025034","<div align=left>Great!<br> <strong>Attention</strong>! You will now receive a second, additional task! <br><br>To this point it was you <strong>first task</strong> to correctly <strong>classify objects</strong>. <br><br>As mentioned in the beginning, we aim to examine how well humans can remember previously learned information.<br>We would like to find out whether our memory improves if we only remember information that is relevant to us. <br><br>Therefore, your <strong>second task</strong> will be to <strong>remember</strong> the pictures you are to categorize. <br> After the learning phase, there will be a memory test phase, in which you will be asked to indicate whether you have seen a picture before or not. <br>Some, but not all pictures shown in the learning phase will appear in the memory test phase.<br>After classifying a picture, you will be told whether you should remember it for the memory test phase or not. <br>Thus, some pictures can be forgotten, whereas others have to be remembered. <br><br>Note: From now on, feedback will only be displayed if you responded incorrectly or not in time.<br><br>Press SPACE to continue.</div>","32","","","","","","","","","","","","","","","","","","","",""
"html-keyboard-response","45","727732","0.0-3.0-1.0","p0p56hp3ldhkpal","instructions","5e9ce0a46976671ceda6082a","5f60e3c0a3b16e07647b2ff9","5f638033fcaaa106ed67654e","false","17750.264999922365","<div align=left>In the following part, you will thus have to remember only some pictures. <br>Immediately after seeing and classifying the picture, a symbol will be displayed, indicating whether you should remember or forget the previous picture. <br><br>A <span style='color: dodgerblue; font-size: 28px'>O</span> indicates REMEMBER. That means, you have to remember this picture, because it will be tested later. <br><br>A <span style='color: darkorange; font-size:28px'>Ø</span> indicates FORGET. You do not have to remember this picture. <br><br> As you will have to remember a lot of pictures, it will be hard for you to remember all of them. <br>It will put you at an advantage if you instantly forget the pictures you are not asked to remember. <br> This will make it easier for you to remember the pictures that will be tested afterwards. <br><br>Press SPACE to continue.</div>","32","","","","","","","","","","","","","","","","","","","",""
"html-keyboard-response","46","738305","0.0-3.0-2.0","p0p56hp3ldhkpal","instructions","5e9ce0a46976671ceda6082a","5f60e3c0a3b16e07647b2ff9","5f638033fcaaa106ed67654e","false","10572.225000010803","<div align=left> Now you have the chance to practice both tasks together.<br><br>Remember: <br> <br><li>Please place your index fingers on the <strong>'S'</strong> and <strong>'L'</strong> keys <br>to respond as fast and accurately as possible.</li><li>Every picture can be classified as either mechanical or non-mechanical.</li><li>If you do not respond in time or commit an error, you will receive a corresponding feedback. <br>Please try to respond as <strong> fast </strong> and as <strong> accurately as possible </strong>.</li><li> Please remember only the to-be-remembered <span style='color: dodgerblue; font-size: 28px'>O</span> pictures. <br></li><li> Please minimize distractions and stay focused. </li><br><br>Press SPACE to START</div>","32","","","","","","","","","","","","","","","","","","","",""
"html-keyboard-response","47","739010","0.0-3.0-3.0-0.0","p0p56hp3ldhkpal","practice_cue","5e9ce0a46976671ceda6082a","5f60e3c0a3b16e07647b2ff9","5f638033fcaaa106ed67654e","false","null","<span style=""color: black; font-size: 48px"">M + N</span>","null","","","","resp_prompt","","","","","","","","","","","","","","","",""
"categorize-image","48","739767","0.0-3.0-3.0-1.0","p0p56hp3ldhkpal","practice_cue","5e9ce0a46976671ceda6082a","5f60e3c0a3b16e07647b2ff9","5f638033fcaaa106ed67654e","true","753.5999999381602","./Stimuli/ImagesPractice/SM35.jpg","83","","","","test","true","M + N","83","","SM","SM35.jpg","forget","old","17","2","practice_forget","left","","","",""
"html-keyboard-response","49","741769","0.0-3.0-3.0-3.0","p0p56hp3ldhkpal","practice_cue","5e9ce0a46976671ceda6082a","5f60e3c0a3b16e07647b2ff9","5f638033fcaaa106ed67654e","false","null","<div style=""align-items: center; display: flex; color: darkorange; font-size: 90px""><b>ø</b></div>","null","","","","forget_cue","","","","","","","","","","","","","","","",""
"html-keyboard-response","50","742473","0.0-3.0-3.0-0.1","p0p56hp3ldhkpal","practice_cue","5e9ce0a46976671ceda6082a","5f60e3c0a3b16e07647b2ff9","5f638033fcaaa106ed67654e","false","null","<span style=""color: black; font-size: 48px"">M + N</span>","null","","","","resp_prompt","","","","","","","","","","","","","","","",""
"categorize-image","51","743264","0.0-3.0-3.0-1.1","p0p56hp3ldhkpal","practice_cue","5e9ce0a46976671ceda6082a","5f60e3c0a3b16e07647b2ff9","5f638033fcaaa106ed67654e","true","787.5950001180172","./Stimuli/ImagesPractice/LN72.jpg","83","","","","test","false","M + N","76","","LN","LN72.jpg","forget","old","18","2","practice_forget","left","","","",""
"html-keyboard-response","52","743765","0.0-3.0-3.0-2.1-0.1","p0p56hp3ldhkpal","practice_cue","5e9ce0a46976671ceda6082a","5f60e3c0a3b16e07647b2ff9","5f638033fcaaa106ed67654e","false","null","<span style=""color: red; font-size: 48px"">Error!</span>","null","","","","feedback","","","","","","","","","","","","","","","",""
"html-keyboard-response","53","745769","0.0-3.0-3.0-3.1","p0p56hp3ldhkpal","practice_cue","5e9ce0a46976671ceda6082a","5f60e3c0a3b16e07647b2ff9","5f638033fcaaa106ed67654e","false","null","<div style=""align-items: center; display: flex; color: darkorange; font-size: 90px""><b>ø</b></div>","null","","","","forget_cue","","","","","","","","","","","","","","","",""
"html-keyboard-response","54","746471","0.0-3.0-3.0-0.2","p0p56hp3ldhkpal","practice_cue","5e9ce0a46976671ceda6082a","5f60e3c0a3b16e07647b2ff9","5f638033fcaaa106ed67654e","false","null","<span style=""color: black; font-size: 48px"">N + M</span>","null","","","","resp_prompt","","","","","","","","","","","","","","","",""
"categorize-image","55","746995","0.0-3.0-3.0-1.2","p0p56hp3ldhkpal","practice_cue","5e9ce0a46976671ceda6082a","5f60e3c0a3b16e07647b2ff9","5f638033fcaaa106ed67654e","true","520.7100000698119","./Stimuli/ImagesPractice/LM224.jpg","76","","","","test","true","N + M","76","","LM","LM224.jpg","forget","old","19","2","practice_forget","right","","","",""
"html-keyboard-response","56","749001","0.0-3.0-3.0-3.2","p0p56hp3ldhkpal","practice_cue","5e9ce0a46976671ceda6082a","5f60e3c0a3b16e07647b2ff9","5f638033fcaaa106ed67654e","false","null","<div style=""align-items: center; display: flex; color: darkorange; font-size: 90px""><b>ø</b></div>","null","","","","forget_cue","","","","","","","","","","","","","","","",""
"html-keyboard-response","57","749705","0.0-3.0-3.0-0.3","p0p56hp3ldhkpal","practice_cue","5e9ce0a46976671ceda6082a","5f60e3c0a3b16e07647b2ff9","5f638033fcaaa106ed67654e","false","null","<span style=""color: black; font-size: 48px"">M + N</span>","null","","","","resp_prompt","","","","","","","","","","","","","","","",""
"categorize-image","58","750518","0.0-3.0-3.0-1.3","p0p56hp3ldhkpal","practice_cue","5e9ce0a46976671ceda6082a","5f60e3c0a3b16e07647b2ff9","5f638033fcaaa106ed67654e","true","809.6450001467019","./Stimuli/ImagesPractice/LN4.jpg","76","","","","test","true","M + N","76","","LN","LN4.jpg","forget","old","20","2","practice_forget","right","","","",""
"html-keyboard-response","59","752519","0.0-3.0-3.0-3.3","p0p56hp3ldhkpal","practice_cue","5e9ce0a46976671ceda6082a","5f60e3c0a3b16e07647b2ff9","5f638033fcaaa106ed67654e","false","null","<div style=""align-items: center; display: flex; color: darkorange; font-size: 90px""><b>ø</b></div>","null","","","","forget_cue","","","","","","","","","","","","","","","",""
"html-keyboard-response","60","753221","0.0-3.0-3.0-0.4","p0p56hp3ldhkpal","practice_cue","5e9ce0a46976671ceda6082a","5f60e3c0a3b16e07647b2ff9","5f638033fcaaa106ed67654e","false","null","<span style=""color: black; font-size: 48px"">N + M</span>","null","","","","resp_prompt","","","","","","","","","","","","","","","",""
"categorize-image","61","754811","0.0-3.0-3.0-1.4","p0p56hp3ldhkpal","practice_cue","5e9ce0a46976671ceda6082a","5f60e3c0a3b16e07647b2ff9","5f638033fcaaa106ed67654e","true","1587.3549999669194","./Stimuli/ImagesPractice/SN222.jpg","83","","","","test","true","N + M","83","","SN","SN222.jpg","forget","old","21","2","practice_forget","left","","","",""
"html-keyboard-response","62","756812","0.0-3.0-3.0-3.4","p0p56hp3ldhkpal","practice_cue","5e9ce0a46976671ceda6082a","5f60e3c0a3b16e07647b2ff9","5f638033fcaaa106ed67654e","false","null","<div style=""align-items: center; display: flex; color: darkorange; font-size: 90px""><b>ø</b></div>","null","","","","forget_cue","","","","","","","","","","","","","","","",""
"html-keyboard-response","63","757515","0.0-3.0-3.0-0.5","p0p56hp3ldhkpal","practice_cue","5e9ce0a46976671ceda6082a","5f60e3c0a3b16e07647b2ff9","5f638033fcaaa106ed67654e","false","null","<span style=""color: black; font-size: 48px"">M + N</span>","null","","","","resp_prompt","","","","","","","","","","","","","","","",""
"categorize-image","64","758090","0.0-3.0-3.0-1.5","p0p56hp3ldhkpal","practice_cue","5e9ce0a46976671ceda6082a","5f60e3c0a3b16e07647b2ff9","5f638033fcaaa106ed67654e","true","572.8899999521673","./Stimuli/ImagesPractice/SN221.jpg","76","","","","test","true","M + N","76","","SN","SN221.jpg","remember","old","22","2","practice_forget","right","","","",""
"html-keyboard-response","65","760094","0.0-3.0-3.0-3.5","p0p56hp3ldhkpal","practice_cue","5e9ce0a46976671ceda6082a","5f60e3c0a3b16e07647b2ff9","5f638033fcaaa106ed67654e","false","null","<div style=""align-items: center; display: flex; color: dodgerblue; font-size: 90px""><b>o</b></div>","null","","","","forget_cue","","","","","","","","","","","","","","","",""
"html-keyboard-response","66","760797","0.0-3.0-3.0-0.6","p0p56hp3ldhkpal","practice_cue","5e9ce0a46976671ceda6082a","5f60e3c0a3b16e07647b2ff9","5f638033fcaaa106ed67654e","false","null","<span style=""color: black; font-size: 48px"">M + N</span>","null","","","","resp_prompt","","","","","","","","","","","","","","","",""
"categorize-image","67","761249","0.0-3.0-3.0-1.6","p0p56hp3ldhkpal","practice_cue","5e9ce0a46976671ceda6082a","5f60e3c0a3b16e07647b2ff9","5f638033fcaaa106ed67654e","true","448.7199999857694","./Stimuli/ImagesPractice/SM62.jpg","76","","","","test","false","M + N","83","","SM","SM62.jpg","remember","old","23","2","practice_forget","right","","","",""
"html-keyboard-response","68","761751","0.0-3.0-3.0-2.6-0.6","p0p56hp3ldhkpal","practice_cue","5e9ce0a46976671ceda6082a","5f60e3c0a3b16e07647b2ff9","5f638033fcaaa106ed67654e","false","null","<span style=""color: red; font-size: 48px"">Error!</span>","null","","","","feedback","","","","","","","","","","","","","","","",""
"html-keyboard-response","69","763755","0.0-3.0-3.0-3.6","p0p56hp3ldhkpal","practice_cue","5e9ce0a46976671ceda6082a","5f60e3c0a3b16e07647b2ff9","5f638033fcaaa106ed67654e","false","null","<div style=""align-items: center; display: flex; color: dodgerblue; font-size: 90px""><b>o</b></div>","null","","","","forget_cue","","","","","","","","","","","","","","","",""
"html-keyboard-response","70","764460","0.0-3.0-3.0-0.7","p0p56hp3ldhkpal","practice_cue","5e9ce0a46976671ceda6082a","5f60e3c0a3b16e07647b2ff9","5f638033fcaaa106ed67654e","false","null","<span style=""color: black; font-size: 48px"">N + M</span>","null","","","","resp_prompt","","","","","","","","","","","","","","","",""
"categorize-image","71","765900","0.0-3.0-3.0-1.7","p0p56hp3ldhkpal","practice_cue","5e9ce0a46976671ceda6082a","5f60e3c0a3b16e07647b2ff9","5f638033fcaaa106ed67654e","true","1436.794999986887","./Stimuli/ImagesPractice/SM98.jpg","83","","","","test","false","N + M","76","","SM","SM98.jpg","forget","old","24","2","practice_forget","left","","","",""
"html-keyboard-response","72","766401","0.0-3.0-3.0-2.7-0.7","p0p56hp3ldhkpal","practice_cue","5e9ce0a46976671ceda6082a","5f60e3c0a3b16e07647b2ff9","5f638033fcaaa106ed67654e","false","null","<span style=""color: red; font-size: 48px"">Error!</span>","null","","","","feedback","","","","","","","","","","","","","","","",""
"html-keyboard-response","73","768406","0.0-3.0-3.0-3.7","p0p56hp3ldhkpal","practice_cue","5e9ce0a46976671ceda6082a","5f60e3c0a3b16e07647b2ff9","5f638033fcaaa106ed67654e","false","null","<div style=""align-items: center; display: flex; color: darkorange; font-size: 90px""><b>ø</b></div>","null","","","","forget_cue","","","","","","","","","","","","","","","",""
"html-keyboard-response","74","769107","0.0-3.0-3.0-0.8","p0p56hp3ldhkpal","practice_cue","5e9ce0a46976671ceda6082a","5f60e3c0a3b16e07647b2ff9","5f638033fcaaa106ed67654e","false","null","<span style=""color: black; font-size: 48px"">N + M</span>","null","","","","resp_prompt","","","","","","","","","","","","","","","",""
"categorize-image","75","769621","0.0-3.0-3.0-1.8","p0p56hp3ldhkpal","practice_cue","5e9ce0a46976671ceda6082a","5f60e3c0a3b16e07647b2ff9","5f638033fcaaa106ed67654e","true","510.74999989941716","./Stimuli/ImagesPractice/LN109.jpg","76","","","","test","false","N + M","83","","LN","LN109.jpg","forget","old","25","2","practice_forget","right","","","",""
"html-keyboard-response","76","770122","0.0-3.0-3.0-2.8-0.8","p0p56hp3ldhkpal","practice_cue","5e9ce0a46976671ceda6082a","5f60e3c0a3b16e07647b2ff9","5f638033fcaaa106ed67654e","false","null","<span style=""color: red; font-size: 48px"">Error!</span>","null","","","","feedback","","","","","","","","","","","","","","","",""
"html-keyboard-response","77","772125","0.0-3.0-3.0-3.8","p0p56hp3ldhkpal","practice_cue","5e9ce0a46976671ceda6082a","5f60e3c0a3b16e07647b2ff9","5f638033fcaaa106ed67654e","false","null","<div style=""align-items: center; display: flex; color: darkorange; font-size: 90px""><b>ø</b></div>","null","","","","forget_cue","","","","","","","","","","","","","","","",""
"html-keyboard-response","78","772828","0.0-3.0-3.0-0.9","p0p56hp3ldhkpal","practice_cue","5e9ce0a46976671ceda6082a","5f60e3c0a3b16e07647b2ff9","5f638033fcaaa106ed67654e","false","null","<span style=""color: black; font-size: 48px"">N + M</span>","null","","","","resp_prompt","","","","","","","","","","","","","","","",""
"categorize-image","79","773154","0.0-3.0-3.0-1.9","p0p56hp3ldhkpal","practice_cue","5e9ce0a46976671ceda6082a","5f60e3c0a3b16e07647b2ff9","5f638033fcaaa106ed67654e","true","323.76500009559095","./Stimuli/ImagesPractice/SM61.jpg","83","","","","test","false","N + M","76","","SM","SM61.jpg","remember","old","26","2","practice_forget","left","","","",""
"html-keyboard-response","80","773655","0.0-3.0-3.0-2.9-0.9","p0p56hp3ldhkpal","practice_cue","5e9ce0a46976671ceda6082a","5f60e3c0a3b16e07647b2ff9","5f638033fcaaa106ed67654e","false","null","<span style=""color: red; font-size: 48px"">Error!</span>","null","","","","feedback","","","","","","","","","","","","","","","",""
"html-keyboard-response","81","775660","0.0-3.0-3.0-3.9","p0p56hp3ldhkpal","practice_cue","5e9ce0a46976671ceda6082a","5f60e3c0a3b16e07647b2ff9","5f638033fcaaa106ed67654e","false","null","<div style=""align-items: center; display: flex; color: dodgerblue; font-size: 90px""><b>o</b></div>","null","","","","forget_cue","","","","","","","","","","","","","","","",""
"html-keyboard-response","82","776361","0.0-3.0-3.0-0.10","p0p56hp3ldhkpal","practice_cue","5e9ce0a46976671ceda6082a","5f60e3c0a3b16e07647b2ff9","5f638033fcaaa106ed67654e","false","null","<span style=""color: black; font-size: 48px"">N + M</span>","null","","","","resp_prompt","","","","","","","","","","","","","","","",""
"categorize-image","83","777071","0.0-3.0-3.0-1.10","p0p56hp3ldhkpal","practice_cue","5e9ce0a46976671ceda6082a","5f60e3c0a3b16e07647b2ff9","5f638033fcaaa106ed67654e","true","706.5999999176711","./Stimuli/ImagesPractice/LM239.jpg","83","","","","test","false","N + M","76","","LM","LM239.jpg","remember","old","27","2","practice_forget","left","","","",""
"html-keyboard-response","84","777573","0.0-3.0-3.0-2.10-0.10","p0p56hp3ldhkpal","practice_cue","5e9ce0a46976671ceda6082a","5f60e3c0a3b16e07647b2ff9","5f638033fcaaa106ed67654e","false","null","<span style=""color: red; font-size: 48px"">Error!</span>","null","","","","feedback","","","","","","","","","","","","","","","",""
"html-keyboard-response","85","779575","0.0-3.0-3.0-3.10","p0p56hp3ldhkpal","practice_cue","5e9ce0a46976671ceda6082a","5f60e3c0a3b16e07647b2ff9","5f638033fcaaa106ed67654e","false","null","<div style=""align-items: center; display: flex; color: dodgerblue; font-size: 90px""><b>o</b></div>","null","","","","forget_cue","","","","","","","","","","","","","","","",""
"html-keyboard-response","86","780276","0.0-3.0-3.0-0.11","p0p56hp3ldhkpal","practice_cue","5e9ce0a46976671ceda6082a","5f60e3c0a3b16e07647b2ff9","5f638033fcaaa106ed67654e","false","null","<span style=""color: black; font-size: 48px"">M + N</span>","null","","","","resp_prompt","","","","","","","","","","","","","","","",""
"categorize-image","87","780333","0.0-3.0-3.0-1.11","p0p56hp3ldhkpal","practice_cue","5e9ce0a46976671ceda6082a","5f60e3c0a3b16e07647b2ff9","5f638033fcaaa106ed67654e","true","54.07999991439283","./Stimuli/ImagesPractice/LM143.jpg","83","","","","test","true","M + N","83","","LM","LM143.jpg","forget","old","28","2","practice_forget","left","","","",""
"html-keyboard-response","88","782335","0.0-3.0-3.0-3.11","p0p56hp3ldhkpal","practice_cue","5e9ce0a46976671ceda6082a","5f60e3c0a3b16e07647b2ff9","5f638033fcaaa106ed67654e","false","null","<div style=""align-items: center; display: flex; color: darkorange; font-size: 90px""><b>ø</b></div>","null","","","","forget_cue","","","","","","","","","","","","","","","",""
"html-keyboard-response","89","783038","0.0-3.0-3.0-0.12","p0p56hp3ldhkpal","practice_cue","5e9ce0a46976671ceda6082a","5f60e3c0a3b16e07647b2ff9","5f638033fcaaa106ed67654e","false","null","<span style=""color: black; font-size: 48px"">N + M</span>","null","","","","resp_prompt","","","","","","","","","","","","","","","",""
"categorize-image","90","783786","0.0-3.0-3.0-1.12","p0p56hp3ldhkpal","practice_cue","5e9ce0a46976671ceda6082a","5f60e3c0a3b16e07647b2ff9","5f638033fcaaa106ed67654e","true","745.8599999081343","./Stimuli/ImagesPractice/SN220.jpg","83","","","","test","true","N + M","83","","SN","SN220.jpg","remember","old","29","2","practice_forget","left","","","",""
"html-keyboard-response","91","785788","0.0-3.0-3.0-3.12","p0p56hp3ldhkpal","practice_cue","5e9ce0a46976671ceda6082a","5f60e3c0a3b16e07647b2ff9","5f638033fcaaa106ed67654e","false","null","<div style=""align-items: center; display: flex; color: dodgerblue; font-size: 90px""><b>o</b></div>","null","","","","forget_cue","","","","","","","","","","","","","","","",""
"html-keyboard-response","92","786489","0.0-3.0-3.0-0.13","p0p56hp3ldhkpal","practice_cue","5e9ce0a46976671ceda6082a","5f60e3c0a3b16e07647b2ff9","5f638033fcaaa106ed67654e","false","null","<span style=""color: black; font-size: 48px"">M + N</span>","null","","","","resp_prompt","","","","","","","","","","","","","","","",""
"categorize-image","93","787927","0.0-3.0-3.0-1.13","p0p56hp3ldhkpal","practice_cue","5e9ce0a46976671ceda6082a","5f60e3c0a3b16e07647b2ff9","5f638033fcaaa106ed67654e","true","1435.5599998962134","./Stimuli/ImagesPractice/LN2.jpg","83","","","","test","false","M + N","76","","LN","LN2.jpg","remember","old","30","2","practice_forget","left","","","",""
"html-keyboard-response","94","788428","0.0-3.0-3.0-2.13-0.13","p0p56hp3ldhkpal","practice_cue","5e9ce0a46976671ceda6082a","5f60e3c0a3b16e07647b2ff9","5f638033fcaaa106ed67654e","false","null","<span style=""color: red; font-size: 48px"">Error!</span>","null","","","","feedback","","","","","","","","","","","","","","","",""
"html-keyboard-response","95","790430","0.0-3.0-3.0-3.13","p0p56hp3ldhkpal","practice_cue","5e9ce0a46976671ceda6082a","5f60e3c0a3b16e07647b2ff9","5f638033fcaaa106ed67654e","false","null","<div style=""align-items: center; display: flex; color: dodgerblue; font-size: 90px""><b>o</b></div>","null","","","","forget_cue","","","","","","","","","","","","","","","",""
"html-keyboard-response","96","791135","0.0-3.0-3.0-0.14","p0p56hp3ldhkpal","practice_cue","5e9ce0a46976671ceda6082a","5f60e3c0a3b16e07647b2ff9","5f638033fcaaa106ed67654e","false","null","<span style=""color: black; font-size: 48px"">M + N</span>","null","","","","resp_prompt","","","","","","","","","","","","","","","",""
"categorize-image","97","791816","0.0-3.0-3.0-1.14","p0p56hp3ldhkpal","practice_cue","5e9ce0a46976671ceda6082a","5f60e3c0a3b16e07647b2ff9","5f638033fcaaa106ed67654e","true","679.075000109151","./Stimuli/ImagesPractice/SN76.jpg","76","","","","test","true","M + N","76","","SN","SN76.jpg","remember","old","31","2","practice_forget","right","","","",""
"html-keyboard-response","98","793818","0.0-3.0-3.0-3.14","p0p56hp3ldhkpal","practice_cue","5e9ce0a46976671ceda6082a","5f60e3c0a3b16e07647b2ff9","5f638033fcaaa106ed67654e","false","null","<div style=""align-items: center; display: flex; color: dodgerblue; font-size: 90px""><b>o</b></div>","null","","","","forget_cue","","","","","","","","","","","","","","","",""
"html-keyboard-response","99","794522","0.0-3.0-3.0-0.15","p0p56hp3ldhkpal","practice_cue","5e9ce0a46976671ceda6082a","5f60e3c0a3b16e07647b2ff9","5f638033fcaaa106ed67654e","false","null","<span style=""color: black; font-size: 48px"">N + M</span>","null","","","","resp_prompt","","","","","","","","","","","","","","","",""
"categorize-image","100","795051","0.0-3.0-3.0-1.15","p0p56hp3ldhkpal","practice_cue","5e9ce0a46976671ceda6082a","5f60e3c0a3b16e07647b2ff9","5f638033fcaaa106ed67654e","true","526.0450001806021","./Stimuli/ImagesPractice/LM147.jpg","83","","","","test","false","N + M","76","","LM","LM147.jpg","remember","old","32","2","practice_forget","left","","","",""
"html-keyboard-response","101","795551","0.0-3.0-3.0-2.15-0.15","p0p56hp3ldhkpal","practice_cue","5e9ce0a46976671ceda6082a","5f60e3c0a3b16e07647b2ff9","5f638033fcaaa106ed67654e","false","null","<span style=""color: red; font-size: 48px"">Error!</span>","null","","","","feedback","","","","","","","","","","","","","","","",""
"html-keyboard-response","102","797555","0.0-3.0-3.0-3.15","p0p56hp3ldhkpal","practice_cue","5e9ce0a46976671ceda6082a","5f60e3c0a3b16e07647b2ff9","5f638033fcaaa106ed67654e","false","null","<div style=""align-items: center; display: flex; color: dodgerblue; font-size: 90px""><b>o</b></div>","null","","","","forget_cue","","","","","","","","","","","","","","","",""
"html-keyboard-response","103","802001","0.0-3.0-4.0","p0p56hp3ldhkpal","break","5e9ce0a46976671ceda6082a","5f60e3c0a3b16e07647b2ff9","5f638033fcaaa106ed67654e","false","4444.690000033006","<p style='font-size: 32px;'>Break</><br><br><br><br><br><p style='font-size: 24px;'>In the last block, you committed 8 errors and did not respond in time on 0 trials.
</p><p style='font-size: 24px;'>Try to respond as fast and accurately as possible in the next block as well! </p><p style='font-size: 24px;'>Press SPACE to continue.</p>","32","","","","","","","","","","","","","","","","","","","",""
"html-keyboard-response","104","837122","0.0-3.0-5.0","p0p56hp3ldhkpal","instructions","5e9ce0a46976671ceda6082a","5f60e3c0a3b16e07647b2ff9","5f638033fcaaa106ed67654e","false","35120.32500002533","<div align=left> Now, to practice, we kindly ask you to remember as many of the to-be-remembered pictures<br>of the previous learning phase as possible.<br><br>The pictures you were instructed to remember were the pictures followed by a <span style='color: dodgerblue; font-size: 28px'>O</span>.<br><br>In this memory test phase, you will also see some new pictures.<br>It is your task to remember whether you were presented with this specific picture in this study so far or not.<br>If you recognize an object (you have already seen it in this study), it is an OLD object. <br>If you do not recognize an object (you have NOT seen it in this study), it is a NEW object. <br><strong> Attention</strong>: As already mentioned, <span style='color: darkorange; font-size:28px'>Ø</span>-pictures will <strong>never</strong> appear in this memory test (neither as new objects). <br><br>Press SPACE to continue. </div>","32","","","","","","","","","","","","","","","","","","","",""
"html-keyboard-response","105","883754","0.0-3.0-6.0","p0p56hp3ldhkpal","instructions","5e9ce0a46976671ceda6082a","5f60e3c0a3b16e07647b2ff9","5f638033fcaaa106ed67654e","false","46630.795000121","<div align=left> M and N no longer will appear on the left/right of the fixation cross. <br>Instead there will be a note at the bottom of the left or right side  <br>indicating which key you should press for an old or new object:  <br> <br>Press the <strong>right</strong> key to classify an object as <strong>old</strong> and press the <strong>left</strong>, to classify an object as <strong>new</strong>.<br>Please classify the objects as new/old by again placing your index finger on the 'S' and 'L' keys <br>and press them accordingly.<br><br><strong>Old:</strong> This object has been presented before. <br><strong>New:</strong> This object has <strong>not</strong> been presented.<br><br>Now please put your right and left index fingers on the 'S' and 'L' keys of your keyboard. <br>Please respond as fast and as accurately as possible!<br><br>Press SPACE to continue. </div>","32","","","","","","","","","","","","","","","","","","","",""
"categorize-image","106","886569","0.0-3.0-7.0-0.0","p0p56hp3ldhkpal","practice_recog","5e9ce0a46976671ceda6082a","5f60e3c0a3b16e07647b2ff9","5f638033fcaaa106ed67654e","true","2312.3550000600517","./Stimuli/ImagesPractice/LM230.jpg","76","","","","test","true","","76","","LM","LM230.jpg","","new","33","3","practice_recog","right","","","",""
"categorize-image","107","888255","0.0-3.0-7.0-0.1","p0p56hp3ldhkpal","practice_recog","5e9ce0a46976671ceda6082a","5f60e3c0a3b16e07647b2ff9","5f638033fcaaa106ed67654e","true","1181.9549999199808","./Stimuli/ImagesPractice/LM55.jpg","76","","","","test","true","","76","","LM","LM55.jpg","","new","34","3","practice_recog","right","","","",""
"categorize-image","108","889529","0.0-3.0-7.0-0.2","p0p56hp3ldhkpal","practice_recog","5e9ce0a46976671ceda6082a","5f60e3c0a3b16e07647b2ff9","5f638033fcaaa106ed67654e","true","771.9499999657273","./Stimuli/ImagesPractice/SN220.jpg","83","","","","test","true","","83","","SN","SN220.jpg","","old","35","3","practice_recog","left","","","",""
"categorize-image","109","891375","0.0-3.0-7.0-0.3","p0p56hp3ldhkpal","practice_recog","5e9ce0a46976671ceda6082a","5f60e3c0a3b16e07647b2ff9","5f638033fcaaa106ed67654e","true","1343.739999923855","./Stimuli/ImagesPractice/SN205.jpg","76","","","","test","true","","76","","SN","SN205.jpg","","new","36","3","practice_recog","right","","","",""
"categorize-image","110","893598","0.0-3.0-7.0-0.4","p0p56hp3ldhkpal","practice_recog","5e9ce0a46976671ceda6082a","5f60e3c0a3b16e07647b2ff9","5f638033fcaaa106ed67654e","true","1718.044999986887","./Stimuli/ImagesPractice/LN15.jpg","76","","","","test","true","","76","","LN","LN15.jpg","","new","37","3","practice_recog","right","","","",""
"categorize-image","111","894905","0.0-3.0-7.0-0.5","p0p56hp3ldhkpal","practice_recog","5e9ce0a46976671ceda6082a","5f60e3c0a3b16e07647b2ff9","5f638033fcaaa106ed67654e","true","800.1149999909103","./Stimuli/ImagesPractice/SN75.jpg","76","","","","test","true","","76","","SN","SN75.jpg","","new","38","3","practice_recog","right","","","",""
"categorize-image","112","896152","0.0-3.0-7.0-0.6","p0p56hp3ldhkpal","practice_recog","5e9ce0a46976671ceda6082a","5f60e3c0a3b16e07647b2ff9","5f638033fcaaa106ed67654e","true","743.1400001514703","./Stimuli/ImagesPractice/LM147.jpg","83","","","","test","true","","83","","LM","LM147.jpg","","old","39","3","practice_recog","left","","","",""
"categorize-image","113","897468","0.0-3.0-7.0-0.7","p0p56hp3ldhkpal","practice_recog","5e9ce0a46976671ceda6082a","5f60e3c0a3b16e07647b2ff9","5f638033fcaaa106ed67654e","true","814.0849999617785","./Stimuli/ImagesPractice/LN2.jpg","83","","","","test","true","","83","","LN","LN2.jpg","","old","40","3","practice_recog","left","","","",""
"categorize-image","114","898910","0.0-3.0-7.0-0.8","p0p56hp3ldhkpal","practice_recog","5e9ce0a46976671ceda6082a","5f60e3c0a3b16e07647b2ff9","5f638033fcaaa106ed67654e","true","940.1350000407547","./Stimuli/ImagesPractice/SM37.jpg","76","","","","test","true","","76","","SM","SM37.jpg","","new","41","3","practice_recog","right","","","",""
"categorize-image","115","900261","0.0-3.0-7.0-0.9","p0p56hp3ldhkpal","practice_recog","5e9ce0a46976671ceda6082a","5f60e3c0a3b16e07647b2ff9","5f638033fcaaa106ed67654e","true","849.5549999643117","./Stimuli/ImagesPractice/SM62.jpg","83","","","","test","true","","83","","SM","SM62.jpg","","old","42","3","practice_recog","left","","","",""
"categorize-image","116","901569","0.0-3.0-7.0-0.10","p0p56hp3ldhkpal","practice_recog","5e9ce0a46976671ceda6082a","5f60e3c0a3b16e07647b2ff9","5f638033fcaaa106ed67654e","true","803.2599999569356","./Stimuli/ImagesPractice/SM97.jpg","76","","","","test","true","","76","","SM","SM97.jpg","","new","43","3","practice_recog","right","","","",""
"categorize-image","117","902775","0.0-3.0-7.0-0.11","p0p56hp3ldhkpal","practice_recog","5e9ce0a46976671ceda6082a","5f60e3c0a3b16e07647b2ff9","5f638033fcaaa106ed67654e","true","700.8099998347461","./Stimuli/ImagesPractice/SM61.jpg","83","","","","test","true","","83","","SM","SM61.jpg","","old","44","3","practice_recog","left","","","",""
"categorize-image","118","904175","0.0-3.0-7.0-0.12","p0p56hp3ldhkpal","practice_recog","5e9ce0a46976671ceda6082a","5f60e3c0a3b16e07647b2ff9","5f638033fcaaa106ed67654e","true","898.445000173524","./Stimuli/ImagesPractice/SN221.jpg","83","","","","test","true","","83","","SN","SN221.jpg","","old","45","3","practice_recog","left","","","",""
"categorize-image","119","905400","0.0-3.0-7.0-0.13","p0p56hp3ldhkpal","practice_recog","5e9ce0a46976671ceda6082a","5f60e3c0a3b16e07647b2ff9","5f638033fcaaa106ed67654e","true","723.920000018552","./Stimuli/ImagesPractice/LM239.jpg","83","","","","test","true","","83","","LM","LM239.jpg","","old","46","3","practice_recog","left","","","",""
"categorize-image","120","906685","0.0-3.0-7.0-0.14","p0p56hp3ldhkpal","practice_recog","5e9ce0a46976671ceda6082a","5f60e3c0a3b16e07647b2ff9","5f638033fcaaa106ed67654e","true","782.1700000204146","./Stimuli/ImagesPractice/SN76.jpg","83","","","","test","true","","83","","SN","SN76.jpg","","old","47","3","practice_recog","left","","","",""
"categorize-image","121","907985","0.0-3.0-7.0-0.15","p0p56hp3ldhkpal","practice_recog","5e9ce0a46976671ceda6082a","5f60e3c0a3b16e07647b2ff9","5f638033fcaaa106ed67654e","true","796.169999986887","./Stimuli/ImagesPractice/LN17.jpg","76","","","","test","true","","76","","LN","LN17.jpg","","new","48","3","practice_recog","right","","","",""
"html-keyboard-response","122","914980","0.0-3.0-8.0","p0p56hp3ldhkpal","instructions","5e9ce0a46976671ceda6082a","5f60e3c0a3b16e07647b2ff9","5f638033fcaaa106ed67654e","false","6993.809999898076","<div align=left> Great!<br><br>Are you ready to continue?<br>If you want to reread the instructions and redo the practice trials, please <br>press „Z“.<br><br>You can proceed when you are ready.<br><br>After the presentation of each object, you will receive an instruction whether to <br>remember or to forget the object.<br>We will test your memory of the following pictures only at the very end of <br>the experiment after all learning blocks are completed. <br><br>Press SPACE to CONTINUE when you are ready. </div>","32","","","","","","","","","","","","","","","","","","","",""
"html-keyboard-response","123","967313","0.0-4.0-0.0","p0p56hp3ldhkpal","instructions","5e9ce0a46976671ceda6082a","5f60e3c0a3b16e07647b2ff9","5f638033fcaaa106ed67654e","false","52332.01500005089","<div align=left> The actual experiment is about to start.<br>The practice trials are over!<br><br>Please always respond both fast and accurately!<br><br>Remember: <br> <br><li> Please place your index fingers on the <strong>'S'</strong> and <strong>'L'</strong> keys <br>to respond as fast and accurately as possible.</li><li> Every picture can be classified as either mechanical or non-mechanical.</li><li> If you do not respond in time or commit an error, you will receive a corresponding feedback.<br> Please try to respond as <strong> fast </strong> and as <strong> accurately as possible </strong>.</li><li> Remember the <span style='color: dodgerblue; font-size: 28px'>O</span> pictures. <br></li><li> Please minimize distractions and stay focused. </li><br><br>Press SPACE to START.</div>","32","","","","","","","","","","","","","","","","","","","",""
"html-keyboard-response","124","968014","0.0-4.0-1.0-0.0","p0p56hp3ldhkpal","prime","5e9ce0a46976671ceda6082a","5f60e3c0a3b16e07647b2ff9","5f638033fcaaa106ed67654e","false","null","<span style=""color: black; font-size: 48px"">M + N</span>","null","","","","resp_prompt","","","","","","","","","","","","","","","",""
"categorize-image","125","968955","0.0-4.0-1.0-1.0","p0p56hp3ldhkpal","prime","5e9ce0a46976671ceda6082a","5f60e3c0a3b16e07647b2ff9","5f638033fcaaa106ed67654e","true","938.2300002034754","./Stimuli/SelectedImages/LM/LM103.bmp","83","","","","test","true","M + N","83","switch","LM","LM103.bmp","forget","","49","3","prime1","left","","","",""
"html-keyboard-response","126","970960","0.0-4.0-1.0-3.0","p0p56hp3ldhkpal","prime","5e9ce0a46976671ceda6082a","5f60e3c0a3b16e07647b2ff9","5f638033fcaaa106ed67654e","false","null","<div style=""align-items: center; display: flex; color: darkorange; font-size: 90px""><b>ø</b></div>","null","","","","forget_cue","","","","","","","","","","","","","","","",""
"html-keyboard-response","127","971661","0.0-4.0-1.0-0.1","p0p56hp3ldhkpal","prime","5e9ce0a46976671ceda6082a","5f60e3c0a3b16e07647b2ff9","5f638033fcaaa106ed67654e","false","null","<span style=""color: black; font-size: 48px"">M + N</span>","null","","","","resp_prompt","","","","","","","","","","","","","","","",""
"categorize-image","128","972765","0.0-4.0-1.0-1.1","p0p56hp3ldhkpal","prime","5e9ce0a46976671ceda6082a","5f60e3c0a3b16e07647b2ff9","5f638033fcaaa106ed67654e","true","1102.0400000270456","./Stimuli/SelectedImages/LM/LM167.bmp","83","","","","test","true","M + N","83","repetition","LM","LM167.bmp","remember","","50","3","prime1","left","","","",""
"html-keyboard-response","129","974769","0.0-4.0-1.0-3.1","p0p56hp3ldhkpal","prime","5e9ce0a46976671ceda6082a","5f60e3c0a3b16e07647b2ff9","5f638033fcaaa106ed67654e","false","null","<div style=""align-items: center; display: flex; color: dodgerblue; font-size: 90px""><b>o</b></div>","null","","","","forget_cue","","","","","","","","","","","","","","","",""
"html-keyboard-response","130","975472","0.0-4.0-1.0-0.2","p0p56hp3ldhkpal","prime","5e9ce0a46976671ceda6082a","5f60e3c0a3b16e07647b2ff9","5f638033fcaaa106ed67654e","false","null","<span style=""color: black; font-size: 48px"">M + N</span>","null","","","","resp_prompt","","","","","","","","","","","","","","","",""
"categorize-image","131","976159","0.0-4.0-1.0-1.2","p0p56hp3ldhkpal","prime","5e9ce0a46976671ceda6082a","5f60e3c0a3b16e07647b2ff9","5f638033fcaaa106ed67654e","true","684.6099998801947","./Stimuli/SelectedImages/LN/LN28.bmp","76","","","","test","true","M + N","76","repetition","LN","LN28.bmp","forget","","51","3","prime1","right","","","",""
"html-keyboard-response","132","978160","0.0-4.0-1.0-3.2","p0p56hp3ldhkpal","prime","5e9ce0a46976671ceda6082a","5f60e3c0a3b16e07647b2ff9","5f638033fcaaa106ed67654e","false","null","<div style=""align-items: center; display: flex; color: darkorange; font-size: 90px""><b>ø</b></div>","null","","","","forget_cue","","","","","","","","","","","","","","","",""
"html-keyboard-response","133","978861","0.0-4.0-1.0-0.3","p0p56hp3ldhkpal","prime","5e9ce0a46976671ceda6082a","5f60e3c0a3b16e07647b2ff9","5f638033fcaaa106ed67654e","false","null","<span style=""color: black; font-size: 48px"">M + N</span>","null","","","","resp_prompt","","","","","","","","","","","","","","","",""
"categorize-image","134","980081","0.0-4.0-1.0-1.3","p0p56hp3ldhkpal","prime","5e9ce0a46976671ceda6082a","5f60e3c0a3b16e07647b2ff9","5f638033fcaaa106ed67654e","true","1216.990000102669","./Stimuli/SelectedImages/LN/LN177.bmp","76","","","","test","true","M + N","76","repetition","LN","LN177.bmp","remember","","52","3","prime1","right","","","",""
"html-keyboard-response","135","982085","0.0-4.0-1.0-3.3","p0p56hp3ldhkpal","prime","5e9ce0a46976671ceda6082a","5f60e3c0a3b16e07647b2ff9","5f638033fcaaa106ed67654e","false","null","<div style=""align-items: center; display: flex; color: dodgerblue; font-size: 90px""><b>o</b></div>","null","","","","forget_cue","","","","","","","","","","","","","","","",""
"html-keyboard-response","136","982788","0.0-4.0-1.0-0.4","p0p56hp3ldhkpal","prime","5e9ce0a46976671ceda6082a","5f60e3c0a3b16e07647b2ff9","5f638033fcaaa106ed67654e","false","null","<span style=""color: black; font-size: 48px"">M + N</span>","null","","","","resp_prompt","","","","","","","","","","","","","","","",""
"categorize-image","137","983588","0.0-4.0-1.0-1.4","p0p56hp3ldhkpal","prime","5e9ce0a46976671ceda6082a","5f60e3c0a3b16e07647b2ff9","5f638033fcaaa106ed67654e","true","797.349999891594","./Stimuli/SelectedImages/SN/SN52.bmp","76","","","","test","true","M + N","76","switch","SN","SN52.bmp","forget","","53","3","prime1","right","","","",""
"html-keyboard-response","138","985590","0.0-4.0-1.0-3.4","p0p56hp3ldhkpal","prime","5e9ce0a46976671ceda6082a","5f60e3c0a3b16e07647b2ff9","5f638033fcaaa106ed67654e","false","null","<div style=""align-items: center; display: flex; color: darkorange; font-size: 90px""><b>ø</b></div>","null","","","","forget_cue","","","","","","","","","","","","","","","",""
"html-keyboard-response","139","986294","0.0-4.0-1.0-0.5","p0p56hp3ldhkpal","prime","5e9ce0a46976671ceda6082a","5f60e3c0a3b16e07647b2ff9","5f638033fcaaa106ed67654e","false","null","<span style=""color: black; font-size: 48px"">N + M</span>","null","","","","resp_prompt","","","","","","","","","","","","","","","",""
"categorize-image","140","987245","0.0-4.0-1.0-1.5","p0p56hp3ldhkpal","prime","5e9ce0a46976671ceda6082a","5f60e3c0a3b16e07647b2ff9","5f638033fcaaa106ed67654e","true","947.6699999067932","./Stimuli/SelectedImages/SM/SM78.bmp","83","","","","test","false","N + M","76","repetition","SM","SM78.bmp","forget","","54","3","prime1","left","","","",""
"html-keyboard-response","141","987746","0.0-4.0-1.0-2.5-0.5","p0p56hp3ldhkpal","prime","5e9ce0a46976671ceda6082a","5f60e3c0a3b16e07647b2ff9","5f638033fcaaa106ed67654e","false","null","<span style=""color: red; font-size: 48px"">Error!</span>","null","","","","feedback","","","","","","","","","","","","","","","",""
"html-keyboard-response","142","989750","0.0-4.0-1.0-3.5","p0p56hp3ldhkpal","prime","5e9ce0a46976671ceda6082a","5f60e3c0a3b16e07647b2ff9","5f638033fcaaa106ed67654e","false","null","<div style=""align-items: center; display: flex; color: darkorange; font-size: 90px""><b>ø</b></div>","null","","","","forget_cue","","","","","","","","","","","","","","","",""
"html-keyboard-response","143","990454","0.0-4.0-1.0-0.6","p0p56hp3ldhkpal","prime","5e9ce0a46976671ceda6082a","5f60e3c0a3b16e07647b2ff9","5f638033fcaaa106ed67654e","false","null","<span style=""color: black; font-size: 48px"">N + M</span>","null","","","","resp_prompt","","","","","","","","","","","","","","","",""
"categorize-image","144","991030","0.0-4.0-1.0-1.6","p0p56hp3ldhkpal","prime","5e9ce0a46976671ceda6082a","5f60e3c0a3b16e07647b2ff9","5f638033fcaaa106ed67654e","true","573.7799999769777","./Stimuli/SelectedImages/SM/SM207.bmp","76","","","","test","true","N + M","76","switch","SM","SM207.bmp","forget","","55","3","prime1","right","","","",""
"html-keyboard-response","145","993035","0.0-4.0-1.0-3.6","p0p56hp3ldhkpal","prime","5e9ce0a46976671ceda6082a","5f60e3c0a3b16e07647b2ff9","5f638033fcaaa106ed67654e","false","null","<div style=""align-items: center; display: flex; color: darkorange; font-size: 90px""><b>ø</b></div>","null","","","","forget_cue","","","","","","","","","","","","","","","",""
"html-keyboard-response","146","993737","0.0-4.0-1.0-0.7","p0p56hp3ldhkpal","prime","5e9ce0a46976671ceda6082a","5f60e3c0a3b16e07647b2ff9","5f638033fcaaa106ed67654e","false","null","<span style=""color: black; font-size: 48px"">N + M</span>","null","","","","resp_prompt","","","","","","","","","","","","","","","",""
"categorize-image","147","995739","0.0-4.0-1.0-1.7","p0p56hp3ldhkpal","prime","5e9ce0a46976671ceda6082a","5f60e3c0a3b16e07647b2ff9","5f638033fcaaa106ed67654e","true","1998.5549999400973","./Stimuli/SelectedImages/LM/LM59.bmp","83","","","","test","false","N + M","76","repetition","LM","LM59.bmp","remember","","56","3","prime1","left","","","",""
"html-keyboard-response","148","996240","0.0-4.0-1.0-2.7-0.7","p0p56hp3ldhkpal","prime","5e9ce0a46976671ceda6082a","5f60e3c0a3b16e07647b2ff9","5f638033fcaaa106ed67654e","false","null","<span style=""color: red; font-size: 48px"">Error!</span>","null","","","","feedback","","","","","","","","","","","","","","","",""
"html-keyboard-response","149","998245","0.0-4.0-1.0-3.7","p0p56hp3ldhkpal","prime","5e9ce0a46976671ceda6082a","5f60e3c0a3b16e07647b2ff9","5f638033fcaaa106ed67654e","false","null","<div style=""align-items: center; display: flex; color: dodgerblue; font-size: 90px""><b>o</b></div>","null","","","","forget_cue","","","","","","","","","","","","","","","",""
"html-keyboard-response","150","998946","0.0-4.0-1.0-0.8","p0p56hp3ldhkpal","prime","5e9ce0a46976671ceda6082a","5f60e3c0a3b16e07647b2ff9","5f638033fcaaa106ed67654e","false","null","<span style=""color: black; font-size: 48px"">M + N</span>","null","","","","resp_prompt","","","","","","","","","","","","","","","",""
"categorize-image","151","999961","0.0-4.0-1.0-1.8","p0p56hp3ldhkpal","prime","5e9ce0a46976671ceda6082a","5f60e3c0a3b16e07647b2ff9","5f638033fcaaa106ed67654e","true","1012.8349999431521","./Stimuli/SelectedImages/SN/SN181.bmp","76","","","","test","true","M + N","76","switch","SN","SN181.bmp","remember","","57","3","prime1","right","","","",""
"html-keyboard-response","152","1001964","0.0-4.0-1.0-3.8","p0p56hp3ldhkpal","prime","5e9ce0a46976671ceda6082a","5f60e3c0a3b16e07647b2ff9","5f638033fcaaa106ed67654e","false","null","<div style=""align-items: center; display: flex; color: dodgerblue; font-size: 90px""><b>o</b></div>","null","","","","forget_cue","","","","","","","","","","","","","","","",""
"html-keyboard-response","153","1002668","0.0-4.0-1.0-0.9","p0p56hp3ldhkpal","prime","5e9ce0a46976671ceda6082a","5f60e3c0a3b16e07647b2ff9","5f638033fcaaa106ed67654e","false","null","<span style=""color: black; font-size: 48px"">N + M</span>","null","","","","resp_prompt","","","","","","","","","","","","","","","",""
"categorize-image","154","1004163","0.0-4.0-1.0-1.9","p0p56hp3ldhkpal","prime","5e9ce0a46976671ceda6082a","5f60e3c0a3b16e07647b2ff9","5f638033fcaaa106ed67654e","true","1492.2599999699742","./Stimuli/SelectedImages/SN/SN179.bmp","76","","","","test","false","N + M","83","repetition","SN","SN179.bmp","remember","","58","3","prime1","right","","","",""
"html-keyboard-response","155","1004666","0.0-4.0-1.0-2.9-0.9","p0p56hp3ldhkpal","prime","5e9ce0a46976671ceda6082a","5f60e3c0a3b16e07647b2ff9","5f638033fcaaa106ed67654e","false","null","<span style=""color: red; font-size: 48px"">Error!</span>","null","","","","feedback","","","","","","","","","","","","","","","",""
"html-keyboard-response","156","1006668","0.0-4.0-1.0-3.9","p0p56hp3ldhkpal","prime","5e9ce0a46976671ceda6082a","5f60e3c0a3b16e07647b2ff9","5f638033fcaaa106ed67654e","false","null","<div style=""align-items: center; display: flex; color: dodgerblue; font-size: 90px""><b>o</b></div>","null","","","","forget_cue","","","","","","","","","","","","","","","",""
"html-keyboard-response","157","1007369","0.0-4.0-1.0-0.10","p0p56hp3ldhkpal","prime","5e9ce0a46976671ceda6082a","5f60e3c0a3b16e07647b2ff9","5f638033fcaaa106ed67654e","false","null","<span style=""color: black; font-size: 48px"">M + N</span>","null","","","","resp_prompt","","","","","","","","","","","","","","","",""
"categorize-image","158","1008323","0.0-4.0-1.0-1.10","p0p56hp3ldhkpal","prime","5e9ce0a46976671ceda6082a","5f60e3c0a3b16e07647b2ff9","5f638033fcaaa106ed67654e","true","951.2650000397116","./Stimuli/SelectedImages/LN/LN12.bmp","76","","","","test","true","M + N","76","switch","LN","LN12.bmp","remember","","59","3","prime1","right","","","",""
"html-keyboard-response","159","1010328","0.0-4.0-1.0-3.10","p0p56hp3ldhkpal","prime","5e9ce0a46976671ceda6082a","5f60e3c0a3b16e07647b2ff9","5f638033fcaaa106ed67654e","false","null","<div style=""align-items: center; display: flex; color: dodgerblue; font-size: 90px""><b>o</b></div>","null","","","","forget_cue","","","","","","","","","","","","","","","",""
"html-keyboard-response","160","1011032","0.0-4.0-1.0-0.11","p0p56hp3ldhkpal","prime","5e9ce0a46976671ceda6082a","5f60e3c0a3b16e07647b2ff9","5f638033fcaaa106ed67654e","false","null","<span style=""color: black; font-size: 48px"">M + N</span>","null","","","","resp_prompt","","","","","","","","","","","","","","","",""
"categorize-image","161","1012007","0.0-4.0-1.0-1.11","p0p56hp3ldhkpal","prime","5e9ce0a46976671ceda6082a","5f60e3c0a3b16e07647b2ff9","5f638033fcaaa106ed67654e","true","973.2100002001971","./Stimuli/SelectedImages/SN/SN182.bmp","76","","","","test","true","M + N","76","repetition","SN","SN182.bmp","forget","","60","3","prime1","right","","","",""
"html-keyboard-response","162","1014010","0.0-4.0-1.0-3.11","p0p56hp3ldhkpal","prime","5e9ce0a46976671ceda6082a","5f60e3c0a3b16e07647b2ff9","5f638033fcaaa106ed67654e","false","null","<div style=""align-items: center; display: flex; color: darkorange; font-size: 90px""><b>ø</b></div>","null","","","","forget_cue","","","","","","","","","","","","","","","",""
"html-keyboard-response","163","1014711","0.0-4.0-1.0-0.12","p0p56hp3ldhkpal","prime","5e9ce0a46976671ceda6082a","5f60e3c0a3b16e07647b2ff9","5f638033fcaaa106ed67654e","false","null","<span style=""color: black; font-size: 48px"">N + M</span>","null","","","","resp_prompt","","","","","","","","","","","","","","","",""
"categorize-image","164","1015574","0.0-4.0-1.0-1.12","p0p56hp3ldhkpal","prime","5e9ce0a46976671ceda6082a","5f60e3c0a3b16e07647b2ff9","5f638033fcaaa106ed67654e","true","860.4500000365078","./Stimuli/SelectedImages/LN/LN111.bmp","76","","","","test","false","N + M","83","switch","LN","LN111.bmp","remember","","61","3","prime1","right","","","",""
"html-keyboard-response","165","1016075","0.0-4.0-1.0-2.12-0.12","p0p56hp3ldhkpal","prime","5e9ce0a46976671ceda6082a","5f60e3c0a3b16e07647b2ff9","5f638033fcaaa106ed67654e","false","null","<span style=""color: red; font-size: 48px"">Error!</span>","null","","","","feedback","","","","","","","","","","","","","","","",""
"html-keyboard-response","166","1018080","0.0-4.0-1.0-3.12","p0p56hp3ldhkpal","prime","5e9ce0a46976671ceda6082a","5f60e3c0a3b16e07647b2ff9","5f638033fcaaa106ed67654e","false","null","<div style=""align-items: center; display: flex; color: dodgerblue; font-size: 90px""><b>o</b></div>","null","","","","forget_cue","","","","","","","","","","","","","","","",""
"html-keyboard-response","167","1018784","0.0-4.0-1.0-0.13","p0p56hp3ldhkpal","prime","5e9ce0a46976671ceda6082a","5f60e3c0a3b16e07647b2ff9","5f638033fcaaa106ed67654e","false","null","<span style=""color: black; font-size: 48px"">N + M</span>","null","","","","resp_prompt","","","","","","","","","","","","","","","",""
"categorize-image","168","1019628","0.0-4.0-1.0-1.13","p0p56hp3ldhkpal","prime","5e9ce0a46976671ceda6082a","5f60e3c0a3b16e07647b2ff9","5f638033fcaaa106ed67654e","true","840.1950001716614","./Stimuli/SelectedImages/LN/LN42.bmp","76","","","","test","false","N + M","83","switch","LN","LN42.bmp","remember","","62","3","prime1","right","","","",""
"html-keyboard-response","169","1020128","0.0-4.0-1.0-2.13-0.13","p0p56hp3ldhkpal","prime","5e9ce0a46976671ceda6082a","5f60e3c0a3b16e07647b2ff9","5f638033fcaaa106ed67654e","false","null","<span style=""color: red; font-size: 48px"">Error!</span>","null","","","","feedback","","","","","","","","","","","","","","","",""
"html-keyboard-response","170","1022133","0.0-4.0-1.0-3.13","p0p56hp3ldhkpal","prime","5e9ce0a46976671ceda6082a","5f60e3c0a3b16e07647b2ff9","5f638033fcaaa106ed67654e","false","null","<div style=""align-items: center; display: flex; color: dodgerblue; font-size: 90px""><b>o</b></div>","null","","","","forget_cue","","","","","","","","","","","","","","","",""
"html-keyboard-response","171","1022837","0.0-4.0-1.0-0.14","p0p56hp3ldhkpal","prime","5e9ce0a46976671ceda6082a","5f60e3c0a3b16e07647b2ff9","5f638033fcaaa106ed67654e","false","null","<span style=""color: black; font-size: 48px"">N + M</span>","null","","","","resp_prompt","","","","","","","","","","","","","","","",""
"categorize-image","172","1023999","0.0-4.0-1.0-1.14","p0p56hp3ldhkpal","prime","5e9ce0a46976671ceda6082a","5f60e3c0a3b16e07647b2ff9","5f638033fcaaa106ed67654e","true","1158.5500000510365","./Stimuli/SelectedImages/LN/LN149.bmp","76","","","","test","false","N + M","83","repetition","LN","LN149.bmp","remember","","63","3","prime1","right","","","",""
"html-keyboard-response","173","1024502","0.0-4.0-1.0-2.14-0.14","p0p56hp3ldhkpal","prime","5e9ce0a46976671ceda6082a","5f60e3c0a3b16e07647b2ff9","5f638033fcaaa106ed67654e","false","null","<span style=""color: red; font-size: 48px"">Error!</span>","null","","","","feedback","","","","","","","","","","","","","","","",""
"html-keyboard-response","174","1026505","0.0-4.0-1.0-3.14","p0p56hp3ldhkpal","prime","5e9ce0a46976671ceda6082a","5f60e3c0a3b16e07647b2ff9","5f638033fcaaa106ed67654e","false","null","<div style=""align-items: center; display: flex; color: dodgerblue; font-size: 90px""><b>o</b></div>","null","","","","forget_cue","","","","","","","","","","","","","","","",""
"html-keyboard-response","175","1027210","0.0-4.0-1.0-0.15","p0p56hp3ldhkpal","prime","5e9ce0a46976671ceda6082a","5f60e3c0a3b16e07647b2ff9","5f638033fcaaa106ed67654e","false","null","<span style=""color: black; font-size: 48px"">N + M</span>","null","","","","resp_prompt","","","","","","","","","","","","","","","",""
"categorize-image","176","1028042","0.0-4.0-1.0-1.15","p0p56hp3ldhkpal","prime","5e9ce0a46976671ceda6082a","5f60e3c0a3b16e07647b2ff9","5f638033fcaaa106ed67654e","true","828.3349999692291","./Stimuli/SelectedImages/SN/SN49.bmp","76","","","","test","false","N + M","83","repetition","SN","SN49.bmp","remember","","64","3","prime1","right","","","",""
"html-keyboard-response","177","1028545","0.0-4.0-1.0-2.15-0.15","p0p56hp3ldhkpal","prime","5e9ce0a46976671ceda6082a","5f60e3c0a3b16e07647b2ff9","5f638033fcaaa106ed67654e","false","null","<span style=""color: red; font-size: 48px"">Error!</span>","null","","","","feedback","","","","","","","","","","","","","","","",""
"html-keyboard-response","178","1030550","0.0-4.0-1.0-3.15","p0p56hp3ldhkpal","prime","5e9ce0a46976671ceda6082a","5f60e3c0a3b16e07647b2ff9","5f638033fcaaa106ed67654e","false","null","<div style=""align-items: center; display: flex; color: dodgerblue; font-size: 90px""><b>o</b></div>","null","","","","forget_cue","","","","","","","","","","","","","","","",""
"html-keyboard-response","179","1031255","0.0-4.0-1.0-0.16","p0p56hp3ldhkpal","prime","5e9ce0a46976671ceda6082a","5f60e3c0a3b16e07647b2ff9","5f638033fcaaa106ed67654e","false","null","<span style=""color: black; font-size: 48px"">N + M</span>","null","","","","resp_prompt","","","","","","","","","","","","","","","",""
"categorize-image","180","1032269","0.0-4.0-1.0-1.16","p0p56hp3ldhkpal","prime","5e9ce0a46976671ceda6082a","5f60e3c0a3b16e07647b2ff9","5f638033fcaaa106ed67654e","true","1011.0800000838935","./Stimuli/SelectedImages/SM/SM213.bmp","83","","","","test","false","N + M","76","switch","SM","SM213.bmp","forget","","65","3","prime1","left","","","",""
"html-keyboard-response","181","1032770","0.0-4.0-1.0-2.16-0.16","p0p56hp3ldhkpal","prime","5e9ce0a46976671ceda6082a","5f60e3c0a3b16e07647b2ff9","5f638033fcaaa106ed67654e","false","null","<span style=""color: red; font-size: 48px"">Error!</span>","null","","","","feedback","","","","","","","","","","","","","","","",""
"html-keyboard-response","182","1034774","0.0-4.0-1.0-3.16","p0p56hp3ldhkpal","prime","5e9ce0a46976671ceda6082a","5f60e3c0a3b16e07647b2ff9","5f638033fcaaa106ed67654e","false","null","<div style=""align-items: center; display: flex; color: darkorange; font-size: 90px""><b>ø</b></div>","null","","","","forget_cue","","","","","","","","","","","","","","","",""
"html-keyboard-response","183","1035477","0.0-4.0-1.0-0.17","p0p56hp3ldhkpal","prime","5e9ce0a46976671ceda6082a","5f60e3c0a3b16e07647b2ff9","5f638033fcaaa106ed67654e","false","null","<span style=""color: black; font-size: 48px"">M + N</span>","null","","","","resp_prompt","","","","","","","","","","","","","","","",""
"categorize-image","184","1036362","0.0-4.0-1.0-1.17","p0p56hp3ldhkpal","prime","5e9ce0a46976671ceda6082a","5f60e3c0a3b16e07647b2ff9","5f638033fcaaa106ed67654e","true","881.7549999803305","./Stimuli/SelectedImages/SM/SM200.bmp","83","","","","test","true","M + N","83","switch","SM","SM200.bmp","forget","","66","3","prime1","left","","","",""
"html-keyboard-response","185","1038364","0.0-4.0-1.0-3.17","p0p56hp3ldhkpal","prime","5e9ce0a46976671ceda6082a","5f60e3c0a3b16e07647b2ff9","5f638033fcaaa106ed67654e","false","null","<div style=""align-items: center; display: flex; color: darkorange; font-size: 90px""><b>ø</b></div>","null","","","","forget_cue","","","","","","","","","","","","","","","",""
"html-keyboard-response","186","1039069","0.0-4.0-1.0-0.18","p0p56hp3ldhkpal","prime","5e9ce0a46976671ceda6082a","5f60e3c0a3b16e07647b2ff9","5f638033fcaaa106ed67654e","false","null","<span style=""color: black; font-size: 48px"">M + N</span>","null","","","","resp_prompt","","","","","","","","","","","","","","","",""
"categorize-image","187","1039867","0.0-4.0-1.0-1.18","p0p56hp3ldhkpal","prime","5e9ce0a46976671ceda6082a","5f60e3c0a3b16e07647b2ff9","5f638033fcaaa106ed67654e","true","795.5849999561906","./Stimuli/SelectedImages/SN/SN128.bmp","76","","","","test","true","M + N","76","repetition","SN","SN128.bmp","forget","","67","3","prime1","right","","","",""
"html-keyboard-response","188","1041869","0.0-4.0-1.0-3.18","p0p56hp3ldhkpal","prime","5e9ce0a46976671ceda6082a","5f60e3c0a3b16e07647b2ff9","5f638033fcaaa106ed67654e","false","null","<div style=""align-items: center; display: flex; color: darkorange; font-size: 90px""><b>ø</b></div>","null","","","","forget_cue","","","","","","","","","","","","","","","",""
"html-keyboard-response","189","1042571","0.0-4.0-1.0-0.19","p0p56hp3ldhkpal","prime","5e9ce0a46976671ceda6082a","5f60e3c0a3b16e07647b2ff9","5f638033fcaaa106ed67654e","false","null","<span style=""color: black; font-size: 48px"">M + N</span>","null","","","","resp_prompt","","","","","","","","","","","","","","","",""
"categorize-image","190","1043356","0.0-4.0-1.0-1.19","p0p56hp3ldhkpal","prime","5e9ce0a46976671ceda6082a","5f60e3c0a3b16e07647b2ff9","5f638033fcaaa106ed67654e","true","781.9749999325722","./Stimuli/SelectedImages/LN/LN92.bmp","76","","","","test","true","M + N","76","switch","LN","LN92.bmp","remember","","68","3","prime1","right","","","",""
"html-keyboard-response","191","1045360","0.0-4.0-1.0-3.19","p0p56hp3ldhkpal","prime","5e9ce0a46976671ceda6082a","5f60e3c0a3b16e07647b2ff9","5f638033fcaaa106ed67654e","false","null","<div style=""align-items: center; display: flex; color: dodgerblue; font-size: 90px""><b>o</b></div>","null","","","","forget_cue","","","","","","","","","","","","","","","",""
"html-keyboard-response","192","1046061","0.0-4.0-1.0-0.20","p0p56hp3ldhkpal","prime","5e9ce0a46976671ceda6082a","5f60e3c0a3b16e07647b2ff9","5f638033fcaaa106ed67654e","false","null","<span style=""color: black; font-size: 48px"">M + N</span>","null","","","","resp_prompt","","","","","","","","","","","","","","","",""
"categorize-image","193","1046890","0.0-4.0-1.0-1.20","p0p56hp3ldhkpal","prime","5e9ce0a46976671ceda6082a","5f60e3c0a3b16e07647b2ff9","5f638033fcaaa106ed67654e","true","825.8999998215586","./Stimuli/SelectedImages/SN/SN111.bmp","76","","","","test","true","M + N","76","repetition","SN","SN111.bmp","remember","","69","3","prime1","right","","","",""
"html-keyboard-response","194","1048895","0.0-4.0-1.0-3.20","p0p56hp3ldhkpal","prime","5e9ce0a46976671ceda6082a","5f60e3c0a3b16e07647b2ff9","5f638033fcaaa106ed67654e","false","null","<div style=""align-items: center; display: flex; color: dodgerblue; font-size: 90px""><b>o</b></div>","null","","","","forget_cue","","","","","","","","","","","","","","","",""
"html-keyboard-response","195","1049598","0.0-4.0-1.0-0.21","p0p56hp3ldhkpal","prime","5e9ce0a46976671ceda6082a","5f60e3c0a3b16e07647b2ff9","5f638033fcaaa106ed67654e","false","null","<span style=""color: black; font-size: 48px"">N + M</span>","null","","","","resp_prompt","","","","","","","","","","","","","","","",""
"categorize-image","196","1050690","0.0-4.0-1.0-1.21","p0p56hp3ldhkpal","prime","5e9ce0a46976671ceda6082a","5f60e3c0a3b16e07647b2ff9","5f638033fcaaa106ed67654e","true","1088.9000000897795","./Stimuli/SelectedImages/LM/LM235.bmp","83","","","","test","false","N + M","76","switch","LM","LM235.bmp","remember","","70","3","prime1","left","","","",""
"html-keyboard-response","197","1051193","0.0-4.0-1.0-2.21-0.21","p0p56hp3ldhkpal","prime","5e9ce0a46976671ceda6082a","5f60e3c0a3b16e07647b2ff9","5f638033fcaaa106ed67654e","false","null","<span style=""color: red; font-size: 48px"">Error!</span>","null","","","","feedback","","","","","","","","","","","","","","","",""
"html-keyboard-response","198","1053194","0.0-4.0-1.0-3.21","p0p56hp3ldhkpal","prime","5e9ce0a46976671ceda6082a","5f60e3c0a3b16e07647b2ff9","5f638033fcaaa106ed67654e","false","null","<div style=""align-items: center; display: flex; color: dodgerblue; font-size: 90px""><b>o</b></div>","null","","","","forget_cue","","","","","","","","","","","","","","","",""
"html-keyboard-response","199","1053898","0.0-4.0-1.0-0.22","p0p56hp3ldhkpal","prime","5e9ce0a46976671ceda6082a","5f60e3c0a3b16e07647b2ff9","5f638033fcaaa106ed67654e","false","null","<span style=""color: black; font-size: 48px"">N + M</span>","null","","","","resp_prompt","","","","","","","","","","","","","","","",""
"categorize-image","200","1054577","0.0-4.0-1.0-1.22","p0p56hp3ldhkpal","prime","5e9ce0a46976671ceda6082a","5f60e3c0a3b16e07647b2ff9","5f638033fcaaa106ed67654e","true","676.5250000171363","./Stimuli/SelectedImages/SM/SM74.bmp","76","","","","test","true","N + M","76","switch","SM","SM74.bmp","remember","","71","3","prime1","right","","","",""
"html-keyboard-response","201","1056581","0.0-4.0-1.0-3.22","p0p56hp3ldhkpal","prime","5e9ce0a46976671ceda6082a","5f60e3c0a3b16e07647b2ff9","5f638033fcaaa106ed67654e","false","null","<div style=""align-items: center; display: flex; color: dodgerblue; font-size: 90px""><b>o</b></div>","null","","","","forget_cue","","","","","","","","","","","","","","","",""
"html-keyboard-response","202","1057284","0.0-4.0-1.0-0.23","p0p56hp3ldhkpal","prime","5e9ce0a46976671ceda6082a","5f60e3c0a3b16e07647b2ff9","5f638033fcaaa106ed67654e","false","null","<span style=""color: black; font-size: 48px"">N + M</span>","null","","","","resp_prompt","","","","","","","","","","","","","","","",""
"categorize-image","203","1057855","0.0-4.0-1.0-1.23","p0p56hp3ldhkpal","prime","5e9ce0a46976671ceda6082a","5f60e3c0a3b16e07647b2ff9","5f638033fcaaa106ed67654e","true","568.4300002176315","./Stimuli/SelectedImages/LM/LM58.bmp","83","","","","test","false","N + M","76","repetition","LM","LM58.bmp","forget","","72","3","prime1","left","","","",""
"html-keyboard-response","204","1058356","0.0-4.0-1.0-2.23-0.23","p0p56hp3ldhkpal","prime","5e9ce0a46976671ceda6082a","5f60e3c0a3b16e07647b2ff9","5f638033fcaaa106ed67654e","false","null","<span style=""color: red; font-size: 48px"">Error!</span>","null","","","","feedback","","","","","","","","","","","","","","","",""
"html-keyboard-response","205","1060360","0.0-4.0-1.0-3.23","p0p56hp3ldhkpal","prime","5e9ce0a46976671ceda6082a","5f60e3c0a3b16e07647b2ff9","5f638033fcaaa106ed67654e","false","null","<div style=""align-items: center; display: flex; color: darkorange; font-size: 90px""><b>ø</b></div>","null","","","","forget_cue","","","","","","","","","","","","","","","",""
"html-keyboard-response","206","1061061","0.0-4.0-1.0-0.24","p0p56hp3ldhkpal","prime","5e9ce0a46976671ceda6082a","5f60e3c0a3b16e07647b2ff9","5f638033fcaaa106ed67654e","false","null","<span style=""color: black; font-size: 48px"">M + N</span>","null","","","","resp_prompt","","","","","","","","","","","","","","","",""
"categorize-image","207","1062510","0.0-4.0-1.0-1.24","p0p56hp3ldhkpal","prime","5e9ce0a46976671ceda6082a","5f60e3c0a3b16e07647b2ff9","5f638033fcaaa106ed67654e","true","1446.5199999976903","./Stimuli/SelectedImages/LN/LN150.bmp","76","","","","test","true","M + N","76","switch","LN","LN150.bmp","forget","","73","3","prime1","right","","","",""
"html-keyboard-response","208","1064512","0.0-4.0-1.0-3.24","p0p56hp3ldhkpal","prime","5e9ce0a46976671ceda6082a","5f60e3c0a3b16e07647b2ff9","5f638033fcaaa106ed67654e","false","null","<div style=""align-items: center; display: flex; color: darkorange; font-size: 90px""><b>ø</b></div>","null","","","","forget_cue","","","","","","","","","","","","","","","",""
"html-keyboard-response","209","1065213","0.0-4.0-1.0-0.25","p0p56hp3ldhkpal","prime","5e9ce0a46976671ceda6082a","5f60e3c0a3b16e07647b2ff9","5f638033fcaaa106ed67654e","false","null","<span style=""color: black; font-size: 48px"">N + M</span>","null","","","","resp_prompt","","","","","","","","","","","","","","","",""
"categorize-image","210","1065869","0.0-4.0-1.0-1.25","p0p56hp3ldhkpal","prime","5e9ce0a46976671ceda6082a","5f60e3c0a3b16e07647b2ff9","5f638033fcaaa106ed67654e","true","652.8799999505281","./Stimuli/SelectedImages/SM/SM106.bmp","83","","","","test","false","N + M","76","repetition","SM","SM106.bmp","remember","","74","3","prime1","left","","","",""
"html-keyboard-response","211","1066370","0.0-4.0-1.0-2.25-0.25","p0p56hp3ldhkpal","prime","5e9ce0a46976671ceda6082a","5f60e3c0a3b16e07647b2ff9","5f638033fcaaa106ed67654e","false","null","<span style=""color: red; font-size: 48px"">Error!</span>","null","","","","feedback","","","","","","","","","","","","","","","",""
"html-keyboard-response","212","1068374","0.0-4.0-1.0-3.25","p0p56hp3ldhkpal","prime","5e9ce0a46976671ceda6082a","5f60e3c0a3b16e07647b2ff9","5f638033fcaaa106ed67654e","false","null","<div style=""align-items: center; display: flex; color: dodgerblue; font-size: 90px""><b>o</b></div>","null","","","","forget_cue","","","","","","","","","","","","","","","",""
"html-keyboard-response","213","1069076","0.0-4.0-1.0-0.26","p0p56hp3ldhkpal","prime","5e9ce0a46976671ceda6082a","5f60e3c0a3b16e07647b2ff9","5f638033fcaaa106ed67654e","false","null","<span style=""color: black; font-size: 48px"">N + M</span>","null","","","","resp_prompt","","","","","","","","","","","","","","","",""
"categorize-image","214","1069825","0.0-4.0-1.0-1.26","p0p56hp3ldhkpal","prime","5e9ce0a46976671ceda6082a","5f60e3c0a3b16e07647b2ff9","5f638033fcaaa106ed67654e","true","745.8900001365691","./Stimuli/SelectedImages/SN/SN27.bmp","76","","","","test","false","N + M","83","repetition","SN","SN27.bmp","forget","","75","3","prime1","right","","","",""
"html-keyboard-response","215","1070326","0.0-4.0-1.0-2.26-0.26","p0p56hp3ldhkpal","prime","5e9ce0a46976671ceda6082a","5f60e3c0a3b16e07647b2ff9","5f638033fcaaa106ed67654e","false","null","<span style=""color: red; font-size: 48px"">Error!</span>","null","","","","feedback","","","","","","","","","","","","","","","",""
"html-keyboard-response","216","1072328","0.0-4.0-1.0-3.26","p0p56hp3ldhkpal","prime","5e9ce0a46976671ceda6082a","5f60e3c0a3b16e07647b2ff9","5f638033fcaaa106ed67654e","false","null","<div style=""align-items: center; display: flex; color: darkorange; font-size: 90px""><b>ø</b></div>","null","","","","forget_cue","","","","","","","","","","","","","","","",""
"html-keyboard-response","217","1073031","0.0-4.0-1.0-0.27","p0p56hp3ldhkpal","prime","5e9ce0a46976671ceda6082a","5f60e3c0a3b16e07647b2ff9","5f638033fcaaa106ed67654e","false","null","<span style=""color: black; font-size: 48px"">N + M</span>","null","","","","resp_prompt","","","","","","","","","","","","","","","",""
"categorize-image","218","1073340","0.0-4.0-1.0-1.27","p0p56hp3ldhkpal","prime","5e9ce0a46976671ceda6082a","5f60e3c0a3b16e07647b2ff9","5f638033fcaaa106ed67654e","true","306.74999998882413","./Stimuli/SelectedImages/LN/LN13.bmp","76","","","","test","false","N + M","83","repetition","LN","LN13.bmp","remember","","76","3","prime1","right","","","",""
"html-keyboard-response","219","1073843","0.0-4.0-1.0-2.27-0.27","p0p56hp3ldhkpal","prime","5e9ce0a46976671ceda6082a","5f60e3c0a3b16e07647b2ff9","5f638033fcaaa106ed67654e","false","null","<span style=""color: red; font-size: 48px"">Error!</span>","null","","","","feedback","","","","","","","","","","","","","","","",""
"html-keyboard-response","220","1075844","0.0-4.0-1.0-3.27","p0p56hp3ldhkpal","prime","5e9ce0a46976671ceda6082a","5f60e3c0a3b16e07647b2ff9","5f638033fcaaa106ed67654e","false","null","<div style=""align-items: center; display: flex; color: dodgerblue; font-size: 90px""><b>o</b></div>","null","","","","forget_cue","","","","","","","","","","","","","","","",""
"html-keyboard-response","221","1076547","0.0-4.0-1.0-0.28","p0p56hp3ldhkpal","prime","5e9ce0a46976671ceda6082a","5f60e3c0a3b16e07647b2ff9","5f638033fcaaa106ed67654e","false","null","<span style=""color: black; font-size: 48px"">M + N</span>","null","","","","resp_prompt","","","","","","","","","","","","","","","",""
"categorize-image","222","1077622","0.0-4.0-1.0-1.28","p0p56hp3ldhkpal","prime","5e9ce0a46976671ceda6082a","5f60e3c0a3b16e07647b2ff9","5f638033fcaaa106ed67654e","true","1071.989999851212","./Stimuli/SelectedImages/LN/LN101.bmp","76","","","","test","true","M + N","76","switch","LN","LN101.bmp","forget","","77","3","prime1","right","","","",""
"html-keyboard-response","223","1079624","0.0-4.0-1.0-3.28","p0p56hp3ldhkpal","prime","5e9ce0a46976671ceda6082a","5f60e3c0a3b16e07647b2ff9","5f638033fcaaa106ed67654e","false","null","<div style=""align-items: center; display: flex; color: darkorange; font-size: 90px""><b>ø</b></div>","null","","","","forget_cue","","","","","","","","","","","","","","","",""
"html-keyboard-response","224","1080325","0.0-4.0-1.0-0.29","p0p56hp3ldhkpal","prime","5e9ce0a46976671ceda6082a","5f60e3c0a3b16e07647b2ff9","5f638033fcaaa106ed67654e","false","null","<span style=""color: black; font-size: 48px"">M + N</span>","null","","","","resp_prompt","","","","","","","","","","","","","","","",""
"categorize-image","225","1081028","0.0-4.0-1.0-1.29","p0p56hp3ldhkpal","prime","5e9ce0a46976671ceda6082a","5f60e3c0a3b16e07647b2ff9","5f638033fcaaa106ed67654e","true","700.5450001452118","./Stimuli/SelectedImages/SM/SM205.bmp","83","","","","test","true","M + N","83","switch","SM","SM205.bmp","remember","","78","3","prime1","left","","","",""
"html-keyboard-response","226","1083033","0.0-4.0-1.0-3.29","p0p56hp3ldhkpal","prime","5e9ce0a46976671ceda6082a","5f60e3c0a3b16e07647b2ff9","5f638033fcaaa106ed67654e","false","null","<div style=""align-items: center; display: flex; color: dodgerblue; font-size: 90px""><b>o</b></div>","null","","","","forget_cue","","","","","","","","","","","","","","","",""
"html-keyboard-response","227","1083737","0.0-4.0-1.0-0.30","p0p56hp3ldhkpal","prime","5e9ce0a46976671ceda6082a","5f60e3c0a3b16e07647b2ff9","5f638033fcaaa106ed67654e","false","null","<span style=""color: black; font-size: 48px"">M + N</span>","null","","","","resp_prompt","","","","","","","","","","","","","","","",""
"categorize-image","228","1084761","0.0-4.0-1.0-1.30","p0p56hp3ldhkpal","prime","5e9ce0a46976671ceda6082a","5f60e3c0a3b16e07647b2ff9","5f638033fcaaa106ed67654e","true","1020.5149999819696","./Stimuli/SelectedImages/SN/SN140.bmp","76","","","","test","true","M + N","76","repetition","SN","SN140.bmp","remember","","79","3","prime1","right","","","",""
"html-keyboard-response","229","1086764","0.0-4.0-1.0-3.30","p0p56hp3ldhkpal","prime","5e9ce0a46976671ceda6082a","5f60e3c0a3b16e07647b2ff9","5f638033fcaaa106ed67654e","false","null","<div style=""align-items: center; display: flex; color: dodgerblue; font-size: 90px""><b>o</b></div>","null","","","","forget_cue","","","","","","","","","","","","","","","",""
"html-keyboard-response","230","1087468","0.0-4.0-1.0-0.31","p0p56hp3ldhkpal","prime","5e9ce0a46976671ceda6082a","5f60e3c0a3b16e07647b2ff9","5f638033fcaaa106ed67654e","false","null","<span style=""color: black; font-size: 48px"">M + N</span>","null","","","","resp_prompt","","","","","","","","","","","","","","","",""
"categorize-image","231","1088078","0.0-4.0-1.0-1.31","p0p56hp3ldhkpal","prime","5e9ce0a46976671ceda6082a","5f60e3c0a3b16e07647b2ff9","5f638033fcaaa106ed67654e","true","607.2849999181926","./Stimuli/SelectedImages/LN/LN82.bmp","76","","","","test","true","M + N","76","repetition","LN","LN82.bmp","forget","","80","3","prime1","right","","","",""
"html-keyboard-response","232","1090079","0.0-4.0-1.0-3.31","p0p56hp3ldhkpal","prime","5e9ce0a46976671ceda6082a","5f60e3c0a3b16e07647b2ff9","5f638033fcaaa106ed67654e","false","null","<div style=""align-items: center; display: flex; color: darkorange; font-size: 90px""><b>ø</b></div>","null","","","","forget_cue","","","","","","","","","","","","","","","",""
"html-keyboard-response","233","1090781","0.0-4.0-1.0-0.32","p0p56hp3ldhkpal","prime","5e9ce0a46976671ceda6082a","5f60e3c0a3b16e07647b2ff9","5f638033fcaaa106ed67654e","false","null","<span style=""color: black; font-size: 48px"">N + M</span>","null","","","","resp_prompt","","","","","","","","","","","","","","","",""
"categorize-image","234","1091299","0.0-4.0-1.0-1.32","p0p56hp3ldhkpal","prime","5e9ce0a46976671ceda6082a","5f60e3c0a3b16e07647b2ff9","5f638033fcaaa106ed67654e","true","515.4850000981241","./Stimuli/SelectedImages/LN/LN166.bmp","76","","","","test","false","N + M","83","repetition","LN","LN166.bmp","forget","","81","3","prime1","right","","","",""
"html-keyboard-response","235","1091801","0.0-4.0-1.0-2.32-0.32","p0p56hp3ldhkpal","prime","5e9ce0a46976671ceda6082a","5f60e3c0a3b16e07647b2ff9","5f638033fcaaa106ed67654e","false","null","<span style=""color: red; font-size: 48px"">Error!</span>","null","","","","feedback","","","","","","","","","","","","","","","",""
"html-keyboard-response","236","1093805","0.0-4.0-1.0-3.32","p0p56hp3ldhkpal","prime","5e9ce0a46976671ceda6082a","5f60e3c0a3b16e07647b2ff9","5f638033fcaaa106ed67654e","false","null","<div style=""align-items: center; display: flex; color: darkorange; font-size: 90px""><b>ø</b></div>","null","","","","forget_cue","","","","","","","","","","","","","","","",""
"html-keyboard-response","237","1094510","0.0-4.0-1.0-0.33","p0p56hp3ldhkpal","prime","5e9ce0a46976671ceda6082a","5f60e3c0a3b16e07647b2ff9","5f638033fcaaa106ed67654e","false","null","<span style=""color: black; font-size: 48px"">N + M</span>","null","","","","resp_prompt","","","","","","","","","","","","","","","",""
"categorize-image","238","1094641","0.0-4.0-1.0-1.33","p0p56hp3ldhkpal","prime","5e9ce0a46976671ceda6082a","5f60e3c0a3b16e07647b2ff9","5f638033fcaaa106ed67654e","true","128.0599997844547","./Stimuli/SelectedImages/LM/LM157.bmp","76","","","","test","true","N + M","76","repetition","LM","LM157.bmp","remember","","82","3","prime1","right","","","",""
"html-keyboard-response","239","1096644","0.0-4.0-1.0-3.33","p0p56hp3ldhkpal","prime","5e9ce0a46976671ceda6082a","5f60e3c0a3b16e07647b2ff9","5f638033fcaaa106ed67654e","false","null","<div style=""align-items: center; display: flex; color: dodgerblue; font-size: 90px""><b>o</b></div>","null","","","","forget_cue","","","","","","","","","","","","","","","",""
"html-keyboard-response","240","1097345","0.0-4.0-1.0-0.34","p0p56hp3ldhkpal","prime","5e9ce0a46976671ceda6082a","5f60e3c0a3b16e07647b2ff9","5f638033fcaaa106ed67654e","false","null","<span style=""color: black; font-size: 48px"">N + M</span>","null","","","","resp_prompt","","","","","","","","","","","","","","","",""
"categorize-image","241","1098122","0.0-4.0-1.0-1.34","p0p56hp3ldhkpal","prime","5e9ce0a46976671ceda6082a","5f60e3c0a3b16e07647b2ff9","5f638033fcaaa106ed67654e","true","774.8000000137836","./Stimuli/SelectedImages/SN/SN240.bmp","76","","","","test","false","N + M","83","repetition","SN","SN240.bmp","forget","","83","3","prime1","right","","","",""
"html-keyboard-response","242","1098623","0.0-4.0-1.0-2.34-0.34","p0p56hp3ldhkpal","prime","5e9ce0a46976671ceda6082a","5f60e3c0a3b16e07647b2ff9","5f638033fcaaa106ed67654e","false","null","<span style=""color: red; font-size: 48px"">Error!</span>","null","","","","feedback","","","","","","","","","","","","","","","",""
"html-keyboard-response","243","1100624","0.0-4.0-1.0-3.34","p0p56hp3ldhkpal","prime","5e9ce0a46976671ceda6082a","5f60e3c0a3b16e07647b2ff9","5f638033fcaaa106ed67654e","false","null","<div style=""align-items: center; display: flex; color: darkorange; font-size: 90px""><b>ø</b></div>","null","","","","forget_cue","","","","","","","","","","","","","","","",""
"html-keyboard-response","244","1101325","0.0-4.0-1.0-0.35","p0p56hp3ldhkpal","prime","5e9ce0a46976671ceda6082a","5f60e3c0a3b16e07647b2ff9","5f638033fcaaa106ed67654e","false","null","<span style=""color: black; font-size: 48px"">N + M</span>","null","","","","resp_prompt","","","","","","","","","","","","","","","",""
"categorize-image","245","1101910","0.0-4.0-1.0-1.35","p0p56hp3ldhkpal","prime","5e9ce0a46976671ceda6082a","5f60e3c0a3b16e07647b2ff9","5f638033fcaaa106ed67654e","true","582.0400000084192","./Stimuli/SelectedImages/LM/LM179.bmp","83","","","","test","false","N + M","76","switch","LM","LM179.bmp","remember","","84","3","prime1","left","","","",""
"html-keyboard-response","246","1102412","0.0-4.0-1.0-2.35-0.35","p0p56hp3ldhkpal","prime","5e9ce0a46976671ceda6082a","5f60e3c0a3b16e07647b2ff9","5f638033fcaaa106ed67654e","false","null","<span style=""color: red; font-size: 48px"">Error!</span>","null","","","","feedback","","","","","","","","","","","","","","","",""
"html-keyboard-response","247","1104413","0.0-4.0-1.0-3.35","p0p56hp3ldhkpal","prime","5e9ce0a46976671ceda6082a","5f60e3c0a3b16e07647b2ff9","5f638033fcaaa106ed67654e","false","null","<div style=""align-items: center; display: flex; color: dodgerblue; font-size: 90px""><b>o</b></div>","null","","","","forget_cue","","","","","","","","","","","","","","","",""
"html-keyboard-response","248","1105114","0.0-4.0-1.0-0.36","p0p56hp3ldhkpal","prime","5e9ce0a46976671ceda6082a","5f60e3c0a3b16e07647b2ff9","5f638033fcaaa106ed67654e","false","null","<span style=""color: black; font-size: 48px"">M + N</span>","null","","","","resp_prompt","","","","","","","","","","","","","","","",""
"categorize-image","249","1105715","0.0-4.0-1.0-1.36","p0p56hp3ldhkpal","prime","5e9ce0a46976671ceda6082a","5f60e3c0a3b16e07647b2ff9","5f638033fcaaa106ed67654e","true","598.2000001240522","./Stimuli/SelectedImages/SM/SM17.bmp","83","","","","test","true","M + N","83","switch","SM","SM17.bmp","remember","","85","3","prime1","left","","","",""
"html-keyboard-response","250","1107719","0.0-4.0-1.0-3.36","p0p56hp3ldhkpal","prime","5e9ce0a46976671ceda6082a","5f60e3c0a3b16e07647b2ff9","5f638033fcaaa106ed67654e","false","null","<div style=""align-items: center; display: flex; color: dodgerblue; font-size: 90px""><b>o</b></div>","null","","","","forget_cue","","","","","","","","","","","","","","","",""
"html-keyboard-response","251","1108421","0.0-4.0-1.0-0.37","p0p56hp3ldhkpal","prime","5e9ce0a46976671ceda6082a","5f60e3c0a3b16e07647b2ff9","5f638033fcaaa106ed67654e","false","null","<span style=""color: black; font-size: 48px"">M + N</span>","null","","","","resp_prompt","","","","","","","","","","","","","","","",""
"categorize-image","252","1109160","0.0-4.0-1.0-1.37","p0p56hp3ldhkpal","prime","5e9ce0a46976671ceda6082a","5f60e3c0a3b16e07647b2ff9","5f638033fcaaa106ed67654e","true","736.2299999222159","./Stimuli/SelectedImages/LM/LM51.bmp","83","","","","test","true","M + N","83","repetition","LM","LM51.bmp","forget","","86","3","prime1","left","","","",""
"html-keyboard-response","253","1111161","0.0-4.0-1.0-3.37","p0p56hp3ldhkpal","prime","5e9ce0a46976671ceda6082a","5f60e3c0a3b16e07647b2ff9","5f638033fcaaa106ed67654e","false","null","<div style=""align-items: center; display: flex; color: darkorange; font-size: 90px""><b>ø</b></div>","null","","","","forget_cue","","","","","","","","","","","","","","","",""
