"trial_type","trial_index","time_elapsed","internal_node_id","subject","exp_part","prolific_PID","study_ID","session_ID","use","rt","stimulus","key_press","button_pressed","responses","question_order","trial_part","correct","resp_map","correct_resp","probe_condition","category","image","forget_condition","list","trial_num","block_num","block","response","test_part","n_span","sequence","num_spaces"
"pavlovia","0","3","0.0-0.0","uraug36g6yddvu6","","5f4faaa78d88ed0955209226","5f60e3c0a3b16e07647b2ff9","5f61dbf590e12618dc2e9753","false","","","","","","","","","","","","","","","","","","","","","","",""
"html-keyboard-response","1","169899","0.0-1.0-0.0-0.0","uraug36g6yddvu6","welcome","5f4faaa78d88ed0955209226","5f60e3c0a3b16e07647b2ff9","5f61dbf590e12618dc2e9753","false","169894.92999999947","<div align=left>Dear participant, <br> thank you for participating in an online study of the Cognition, Action, and Sustainability Unit of the University of Freiburg! <br> <br>The aim of this study is to examine our ability to remember previously learned information. <br>Our goal is to find out, whether our memory improves, when we only remember information that is relevant to us. <br>The experiment will take about 35 minutes to complete. <br> <br>Please, note that you can only participate in this study if you are using a device with a keyboard (PC, Laptop etc.) <br>and not if you are using a mobile device such as a tablet or smartphone.<br> <br>Press 'SPACE' to proceed to the experiment. </div>","32","","","","","","","","","","","","","","","","","","","",""
"html-keyboard-response","2","188160","0.0-1.0-0.0-1.0","uraug36g6yddvu6","welcome","5f4faaa78d88ed0955209226","5f60e3c0a3b16e07647b2ff9","5f61dbf590e12618dc2e9753","false","18259.96000000034","<div align=left><strong> Time Course of this experiment: </strong> <br><br> <strong> 1.</strong>  First, please fill in some information regarding your demographic data. <br><br> <strong> 2.</strong>  Next, your task will be to classify everyday objects. <br>In addition, you will be asked to remember certain objects and recall them later. <br>Working on these tasks requires your undivided attention and concentration.<br>It is therefore essential that you eliminate any sources of distraction in your  <br>environment and ensure that you will not be disturbed. <br><br><strong> 3.</strong>  At the end of the experiment, you will be asked to answer a few additional questions. <br> <br><strong> Important:</strong> After finishing the experiment, only close the browser window <br> by clicking on the 'end the experiment'-button when you are asked to do so. <br>Closing the browser window prematurely will make the allocation of your participation credit impossible. <br><br> Press 'SPACE' to start the experiment. </div>","32","","","","","","","","","","","","","","","","","","","",""
"html-button-response","3","193071","0.0-1.0-0.0-2.0","uraug36g6yddvu6","welcome","5f4faaa78d88ed0955209226","5f60e3c0a3b16e07647b2ff9","5f61dbf590e12618dc2e9753","true","4909.92499999993","<div align=left><strong> Informed consent </strong>  <br>The aim of our research is to better understand human behavior and mental processes. <br>In the following study your behavior (e.g. choices, reaction times) will be studied. <br> <br><strong> Voluntariness and Anonymity </strong> <br>Your participation in this study is  <strong> voluntary</strong>.<br>You may withdraw your consent to participate at any time without providing a reason for doing so and without fear of prejudice. <br><br>As no personal data will be collected, <strong>your data and your person cannot be connected after data collection</strong> – the data-set is anonymous. <br>Respectively, deletion of your data will not be possible after data collection has been completed, as we cannot retrace your data-set.<br>The results and anonymized data collected in this study will be published as a scientific publication. <br>This will happen in an <strong>anonymized format</strong>, so that no data can be traced back to a specific person. <br> <br>The anonymized data of this study will be made available to other researchers and/or in a data archive on the Internet as a means of transparency and to enable subsequent re-use. By doing so, this study follows the recommendations of the Deutsche Forschungsgemeinschaft (DFG, German Research Foundation) and Deutsche Gesellschaft für Psychologie (DGPS, German Psychological Society) regarding quality assurance in research.<br>If you have any questions now or after the experiment, please contact our team (experiments@cs.uni-freiburg.de).<br><br><br>I hereby declare, that I understand the above described conditions of participation and I agree to participate under these conditions. <br><br> </div>","","0","","","","","","","","","","","","","","","","","","",""
"html-keyboard-response","4","234428","0.0-1.0-0.0-3.0","uraug36g6yddvu6","welcome","5f4faaa78d88ed0955209226","5f60e3c0a3b16e07647b2ff9","5f61dbf590e12618dc2e9753","false","41355.35499999969","<div align=left><strong> General information concerning the experiment </strong>  <br> <br>Please follow the instructions:<ol> <li><strong> Do not leave this tab (your browser window) during the experiment and do not reload this tab! </strong>  <br>If you do switch tabs/windows during the experiment (to check your mail or visit another website, for example), <br>the experiment will end automatically and you will <strong>not receive credit</strong> for your participation. <br>Repeated participation or resumption of the experiment is impossible.</li> <br><li>Please close all other programs for the duration of your participation. </li> <br><li>Please mute or turn off your phone and put it out of your reach. </li> <br><li>Please also take off any disturbing accessories (such as wristwatches, bracelets, etc.). </li> <br><li>If you have music playing in the background, please turn it off now. </li> <br></ol>Thank you! <br>Press 'SPACE' to continue. </div>","32","","","","","","","","","","","","","","","","","","","",""
"survey-text","5","238579","0.0-1.0-1.0-0.0","uraug36g6yddvu6","demographics","5f4faaa78d88ed0955209226","5f60e3c0a3b16e07647b2ff9","5f61dbf590e12618dc2e9753","true","4147.390000000101","","","","{""age"":""19""}","","","","","","","","","","","","","","","","","",""
"survey-multi-choice","6","259191","0.0-1.0-1.0-1.0","uraug36g6yddvu6","demographics","5f4faaa78d88ed0955209226","5f60e3c0a3b16e07647b2ff9","5f61dbf590e12618dc2e9753","true","20609.95999999976","","","","{""gender"":""male"",""school"":""others"",""education"":""other""}","[0,1,2]","","","","","","","","","","","","","","","","",""
"html-keyboard-response","7","283328","0.0-1.0-2.0","uraug36g6yddvu6","instructions","5f4faaa78d88ed0955209226","5f60e3c0a3b16e07647b2ff9","5f61dbf590e12618dc2e9753","false","24133.27500000014","<div align=left> The experiment is now about to start: <br> <br>In the following part, you will be presented pictures of everyday objects. <br>Your first task is to <strong>classify these objects. </strong> <br> <br> You will classify them either as mechanical or non-mechanical objects. <br> <br>Objects that include any kind of technical mechanism (for example, wheels, switches, levers, <br> electronic components) fall under the category of <strong>mechanical</strong> objects. <br>Only objects without any kind of technical mechanism should be classified as <strong>non-mechanical</strong>. <br><br>Press 'SPACE' to continue. </div>","32","","","","","","","","","","","","","","","","","","","",""
"html-keyboard-response","8","321338","0.0-2.0-0.0","uraug36g6yddvu6","instructions","5f4faaa78d88ed0955209226","5f60e3c0a3b16e07647b2ff9","5f61dbf590e12618dc2e9753","false","38009.309999999416","<div align=justify>You will classify the objects using the <strong>'S'</strong> and the <strong>'L'</strong> keys on your keyboard.<br>For doing so, please place your <strong>left index finger</strong> on the <strong>'S'</strong> key and place your <strong>right index finger</strong> on the <strong>'L'</strong> key. <br><br> Each trial starts with an instruction, indicating which key ('S'/'L') you need to press to classify <br>the object as mechanical (letter M) or non-mechanical (letter N).<br>The instruction <strong>M + N</strong> indicates that, in the current trial, by pressing the left key ('S') you classify the displayed object as mechanical (M) <br> and by pressing the right key ('L') you classify the object as non-mechanical (N). <br>The instruction <strong>N + M</strong> on the other hand indicates that by pressing the left key ('S') you classify the displayed object as non-mechanical (N) <br> and by pressing the right key ('L') you classify the object as mechanical (M). <br><br>Please press the key corresponding to the correct classification as fast as possible as soon as the object is displayed and try to avoid making mistakes.<br>If you do not respond within a 2 second window, a corresponding feedback will be displayed and the next trial will start.<br> The experiment is divided into multiple blocks to give you the opportunity to take a break after each block. <br>First, you can now practice this task. <br><br>Please place your <strong>LEFT INDEX FINGER</strong> on the 'S' key and your <strong>RIGHT INDEX FINGER</strong> on the 'L' key now. <br><br>Press SPACE to continue.</div>","32","","","","","","","","","","","","","","","","","","","",""
"html-keyboard-response","9","333024","0.0-2.0-1.0","uraug36g6yddvu6","instructions","5f4faaa78d88ed0955209226","5f60e3c0a3b16e07647b2ff9","5f61dbf590e12618dc2e9753","false","11684.704999999667","<div align=left> You will now have time to practice this task.<br><br>Remember: <br> <br><li>Please place your index fingers on the <strong>'S'</strong> and <strong>'L'</strong> keys <br>to respond as fast and accurately as possible.</li><li>Every picture can be classified as either mechanical or non-mechanical.</li><li>If you do not respond in time or commit an error, you will receive a corresponding feedback. </li><li> Please try to respond as <strong> fast </strong> and as <strong> accurately as possible </strong> .<br><li>To ensure optimal results, please minimize distractions and stay focused. </li><br><br>Press SPACE to continue.</div>","32","","","","","","","","","","","","","","","","","","","",""
"html-keyboard-response","10","333725","0.0-2.0-2.0-0.0","uraug36g6yddvu6","practice_no_cue","5f4faaa78d88ed0955209226","5f60e3c0a3b16e07647b2ff9","5f61dbf590e12618dc2e9753","false","null","<span style=""color: black; font-size: 48px"">M + N</span>","null","","","","resp_prompt","","","","","","","","","","","","","","","",""
"categorize-image","11","335997","0.0-2.0-2.0-1.0","uraug36g6yddvu6","practice_no_cue","5f4faaa78d88ed0955209226","5f60e3c0a3b16e07647b2ff9","5f61dbf590e12618dc2e9753","true","1770.1799999995274","./Stimuli/ImagesPractice/LN2.jpg","83","","","","test","false","M + N","76","","LN","LN2.jpg","remember","old","1","1","start","left","","","",""
"html-keyboard-response","12","336699","0.0-2.0-2.0-0.1","uraug36g6yddvu6","practice_no_cue","5f4faaa78d88ed0955209226","5f60e3c0a3b16e07647b2ff9","5f61dbf590e12618dc2e9753","false","null","<span style=""color: black; font-size: 48px"">N + M</span>","null","","","","resp_prompt","","","","","","","","","","","","","","","",""
"categorize-image","13","339203","0.0-2.0-2.0-1.1","uraug36g6yddvu6","practice_no_cue","5f4faaa78d88ed0955209226","5f60e3c0a3b16e07647b2ff9","5f61dbf590e12618dc2e9753","true","null","./Stimuli/ImagesPractice/LM239.jpg","null","","","","test","false","N + M","76","","LM","LM239.jpg","forget","old","2","1","start","too_slow","","","",""
"html-keyboard-response","14","339905","0.0-2.0-2.0-0.2","uraug36g6yddvu6","practice_no_cue","5f4faaa78d88ed0955209226","5f60e3c0a3b16e07647b2ff9","5f61dbf590e12618dc2e9753","false","null","<span style=""color: black; font-size: 48px"">N + M</span>","null","","","","resp_prompt","","","","","","","","","","","","","","","",""
"categorize-image","15","341296","0.0-2.0-2.0-1.2","uraug36g6yddvu6","practice_no_cue","5f4faaa78d88ed0955209226","5f60e3c0a3b16e07647b2ff9","5f61dbf590e12618dc2e9753","true","889.1199999998207","./Stimuli/ImagesPractice/LN15.jpg","76","","","","test","false","N + M","83","","LN","LN15.jpg","remember","old","3","1","start","right","","","",""
"html-keyboard-response","16","341997","0.0-2.0-2.0-0.3","uraug36g6yddvu6","practice_no_cue","5f4faaa78d88ed0955209226","5f60e3c0a3b16e07647b2ff9","5f61dbf590e12618dc2e9753","false","null","<span style=""color: black; font-size: 48px"">M + N</span>","null","","","","resp_prompt","","","","","","","","","","","","","","","",""
"categorize-image","17","343319","0.0-2.0-2.0-1.3","uraug36g6yddvu6","practice_no_cue","5f4faaa78d88ed0955209226","5f60e3c0a3b16e07647b2ff9","5f61dbf590e12618dc2e9753","true","819.7600000003004","./Stimuli/ImagesPractice/LN109.jpg","83","","","","test","false","M + N","76","","LN","LN109.jpg","remember","old","4","1","start","left","","","",""
"html-keyboard-response","18","344020","0.0-2.0-2.0-0.4","uraug36g6yddvu6","practice_no_cue","5f4faaa78d88ed0955209226","5f60e3c0a3b16e07647b2ff9","5f61dbf590e12618dc2e9753","false","null","<span style=""color: black; font-size: 48px"">M + N</span>","null","","","","resp_prompt","","","","","","","","","","","","","","","",""
"categorize-image","19","346351","0.0-2.0-2.0-1.4","uraug36g6yddvu6","practice_no_cue","5f4faaa78d88ed0955209226","5f60e3c0a3b16e07647b2ff9","5f61dbf590e12618dc2e9753","true","1829.134999999951","./Stimuli/ImagesPractice/SN205.jpg","83","","","","test","false","M + N","76","","SN","SN205.jpg","forget","old","5","1","start","left","","","",""
"html-keyboard-response","20","347053","0.0-2.0-2.0-0.5","uraug36g6yddvu6","practice_no_cue","5f4faaa78d88ed0955209226","5f60e3c0a3b16e07647b2ff9","5f61dbf590e12618dc2e9753","false","null","<span style=""color: black; font-size: 48px"">N + M</span>","null","","","","resp_prompt","","","","","","","","","","","","","","","",""
"categorize-image","21","349556","0.0-2.0-2.0-1.5","uraug36g6yddvu6","practice_no_cue","5f4faaa78d88ed0955209226","5f60e3c0a3b16e07647b2ff9","5f61dbf590e12618dc2e9753","true","null","./Stimuli/ImagesPractice/SM61.jpg","null","","","","test","false","N + M","76","","SM","SM61.jpg","remember","old","6","1","start","too_slow","","","",""
"html-keyboard-response","22","350257","0.0-2.0-2.0-0.6","uraug36g6yddvu6","practice_no_cue","5f4faaa78d88ed0955209226","5f60e3c0a3b16e07647b2ff9","5f61dbf590e12618dc2e9753","false","null","<span style=""color: black; font-size: 48px"">M + N</span>","null","","","","resp_prompt","","","","","","","","","","","","","","","",""
"categorize-image","23","351612","0.0-2.0-2.0-1.6","uraug36g6yddvu6","practice_no_cue","5f4faaa78d88ed0955209226","5f60e3c0a3b16e07647b2ff9","5f61dbf590e12618dc2e9753","true","853.1450000000186","./Stimuli/ImagesPractice/SN220.jpg","76","","","","test","true","M + N","76","","SN","SN220.jpg","forget","old","7","1","start","right","","","",""
"html-keyboard-response","24","352314","0.0-2.0-2.0-0.7","uraug36g6yddvu6","practice_no_cue","5f4faaa78d88ed0955209226","5f60e3c0a3b16e07647b2ff9","5f61dbf590e12618dc2e9753","false","null","<span style=""color: black; font-size: 48px"">M + N</span>","null","","","","resp_prompt","","","","","","","","","","","","","","","",""
"categorize-image","25","354276","0.0-2.0-2.0-1.7","uraug36g6yddvu6","practice_no_cue","5f4faaa78d88ed0955209226","5f60e3c0a3b16e07647b2ff9","5f61dbf590e12618dc2e9753","true","1460.1700000002747","./Stimuli/ImagesPractice/SM37.jpg","83","","","","test","true","M + N","83","","SM","SM37.jpg","remember","old","8","1","start","left","","","",""
"html-keyboard-response","26","354977","0.0-2.0-2.0-0.8","uraug36g6yddvu6","practice_no_cue","5f4faaa78d88ed0955209226","5f60e3c0a3b16e07647b2ff9","5f61dbf590e12618dc2e9753","false","null","<span style=""color: black; font-size: 48px"">M + N</span>","null","","","","resp_prompt","","","","","","","","","","","","","","","",""
"categorize-image","27","356332","0.0-2.0-2.0-1.8","uraug36g6yddvu6","practice_no_cue","5f4faaa78d88ed0955209226","5f60e3c0a3b16e07647b2ff9","5f61dbf590e12618dc2e9753","true","854.1249999998254","./Stimuli/ImagesPractice/SM35.jpg","83","","","","test","true","M + N","83","","SM","SM35.jpg","forget","old","9","1","start","left","","","",""
"html-keyboard-response","28","357033","0.0-2.0-2.0-0.9","uraug36g6yddvu6","practice_no_cue","5f4faaa78d88ed0955209226","5f60e3c0a3b16e07647b2ff9","5f61dbf590e12618dc2e9753","false","null","<span style=""color: black; font-size: 48px"">N + M</span>","null","","","","resp_prompt","","","","","","","","","","","","","","","",""
"categorize-image","29","358358","0.0-2.0-2.0-1.9","uraug36g6yddvu6","practice_no_cue","5f4faaa78d88ed0955209226","5f60e3c0a3b16e07647b2ff9","5f61dbf590e12618dc2e9753","true","822.8600000002189","./Stimuli/ImagesPractice/LM147.jpg","76","","","","test","true","N + M","76","","LM","LM147.jpg","remember","old","10","1","start","right","","","",""
"html-keyboard-response","30","359060","0.0-2.0-2.0-0.10","uraug36g6yddvu6","practice_no_cue","5f4faaa78d88ed0955209226","5f60e3c0a3b16e07647b2ff9","5f61dbf590e12618dc2e9753","false","null","<span style=""color: black; font-size: 48px"">N + M</span>","null","","","","resp_prompt","","","","","","","","","","","","","","","",""
"categorize-image","31","360797","0.0-2.0-2.0-1.10","uraug36g6yddvu6","practice_no_cue","5f4faaa78d88ed0955209226","5f60e3c0a3b16e07647b2ff9","5f61dbf590e12618dc2e9753","true","1235.0550000001094","./Stimuli/ImagesPractice/LN72.jpg","76","","","","test","false","N + M","83","","LN","LN72.jpg","forget","old","11","1","start","right","","","",""
"html-keyboard-response","32","361498","0.0-2.0-2.0-0.11","uraug36g6yddvu6","practice_no_cue","5f4faaa78d88ed0955209226","5f60e3c0a3b16e07647b2ff9","5f61dbf590e12618dc2e9753","false","null","<span style=""color: black; font-size: 48px"">M + N</span>","null","","","","resp_prompt","","","","","","","","","","","","","","","",""
"categorize-image","33","362834","0.0-2.0-2.0-1.11","uraug36g6yddvu6","practice_no_cue","5f4faaa78d88ed0955209226","5f60e3c0a3b16e07647b2ff9","5f61dbf590e12618dc2e9753","true","834.0500000003958","./Stimuli/ImagesPractice/LM55.jpg","83","","","","test","true","M + N","83","","LM","LM55.jpg","remember","old","12","1","start","left","","","",""
"html-keyboard-response","34","363535","0.0-2.0-2.0-0.12","uraug36g6yddvu6","practice_no_cue","5f4faaa78d88ed0955209226","5f60e3c0a3b16e07647b2ff9","5f61dbf590e12618dc2e9753","false","null","<span style=""color: black; font-size: 48px"">N + M</span>","null","","","","resp_prompt","","","","","","","","","","","","","","","",""
"categorize-image","35","364910","0.0-2.0-2.0-1.12","uraug36g6yddvu6","practice_no_cue","5f4faaa78d88ed0955209226","5f60e3c0a3b16e07647b2ff9","5f61dbf590e12618dc2e9753","true","873.8199999997742","./Stimuli/ImagesPractice/SN76.jpg","76","","","","test","false","N + M","83","","SN","SN76.jpg","forget","old","13","1","start","right","","","",""
"html-keyboard-response","36","365611","0.0-2.0-2.0-0.13","uraug36g6yddvu6","practice_no_cue","5f4faaa78d88ed0955209226","5f60e3c0a3b16e07647b2ff9","5f61dbf590e12618dc2e9753","false","null","<span style=""color: black; font-size: 48px"">N + M</span>","null","","","","resp_prompt","","","","","","","","","","","","","","","",""
"categorize-image","37","367036","0.0-2.0-2.0-1.13","uraug36g6yddvu6","practice_no_cue","5f4faaa78d88ed0955209226","5f60e3c0a3b16e07647b2ff9","5f61dbf590e12618dc2e9753","true","922.7900000005029","./Stimuli/ImagesPractice/SM98.jpg","76","","","","test","true","N + M","76","","SM","SM98.jpg","remember","old","14","1","start","right","","","",""
"html-keyboard-response","38","367738","0.0-2.0-2.0-0.14","uraug36g6yddvu6","practice_no_cue","5f4faaa78d88ed0955209226","5f60e3c0a3b16e07647b2ff9","5f61dbf590e12618dc2e9753","false","null","<span style=""color: black; font-size: 48px"">N + M</span>","null","","","","resp_prompt","","","","","","","","","","","","","","","",""
"categorize-image","39","370037","0.0-2.0-2.0-1.14","uraug36g6yddvu6","practice_no_cue","5f4faaa78d88ed0955209226","5f60e3c0a3b16e07647b2ff9","5f61dbf590e12618dc2e9753","true","1797.2950000002747","./Stimuli/ImagesPractice/LN4.jpg","76","","","","test","false","N + M","83","","LN","LN4.jpg","forget","old","15","1","start","right","","","",""
"html-keyboard-response","40","370738","0.0-2.0-2.0-0.15","uraug36g6yddvu6","practice_no_cue","5f4faaa78d88ed0955209226","5f60e3c0a3b16e07647b2ff9","5f61dbf590e12618dc2e9753","false","null","<span style=""color: black; font-size: 48px"">M + N</span>","null","","","","resp_prompt","","","","","","","","","","","","","","","",""
"categorize-image","41","371856","0.0-2.0-2.0-1.15","uraug36g6yddvu6","practice_no_cue","5f4faaa78d88ed0955209226","5f60e3c0a3b16e07647b2ff9","5f61dbf590e12618dc2e9753","true","616.4799999996903","./Stimuli/ImagesPractice/SM62.jpg","83","","","","test","true","M + N","83","","SM","SM62.jpg","forget","old","16","1","start","left","","","",""
"html-keyboard-response","42","376919","0.0-2.0-3.0","uraug36g6yddvu6","break","5f4faaa78d88ed0955209226","5f60e3c0a3b16e07647b2ff9","5f61dbf590e12618dc2e9753","false","5061.604999999865","<p style='font-size: 32px;'>Break</><br><br><br><br><br><p style='font-size: 24px;'>In the last block, you committed 7 errors and did not respond in time on 2 trials.
</p><p style='font-size: 24px;'>Try to respond as fast and accurately as possible in the next block as well! </p><p style='font-size: 24px;'>Press SPACE to continue.</p>","32","","","","","","","","","","","","","","","","","","","",""
"html-keyboard-response","43","380270","0.0-2.0-4.0","uraug36g6yddvu6","instructions","5f4faaa78d88ed0955209226","5f60e3c0a3b16e07647b2ff9","5f61dbf590e12618dc2e9753","false","3349.5350000002654","<div align=left> Great!<br><br>Are you ready to continue?<br><br>If you want to reread the instructions and redo the practice trials, <br>please press „Z“. <br><br>Press SPACE to CONTINUE with the experiment when you are ready. </div>","32","","","","","","","","","","","","","","","","","","","",""
"html-keyboard-response","44","401225","0.0-3.0-0.0","uraug36g6yddvu6","instructions","5f4faaa78d88ed0955209226","5f60e3c0a3b16e07647b2ff9","5f61dbf590e12618dc2e9753","false","20954.72499999957","<div align=left>Great!<br> <strong>Attention</strong>! You will now receive a second, additional task! <br><br>To this point it was you <strong>first task</strong> to correctly <strong>classify objects</strong>. <br><br>As mentioned in the beginning, we aim to examine how well humans can remember previously learned information.<br>We would like to find out whether our memory improves if we only remember information that is relevant to us. <br><br>Therefore, your <strong>second task</strong> will be to <strong>remember</strong> the pictures you are to categorize. <br> After the learning phase, there will be a memory test phase, in which you will be asked to indicate whether you have seen a picture before or not. <br>Some, but not all pictures shown in the learning phase will appear in the memory test phase.<br>After classifying a picture, you will be told whether you should remember it for the memory test phase or not. <br>Thus, some pictures can be forgotten, whereas others have to be remembered. <br><br>Note: From now on, feedback will only be displayed if you responded incorrectly or not in time.<br><br>Press SPACE to continue.</div>","32","","","","","","","","","","","","","","","","","","","",""
"html-keyboard-response","45","416114","0.0-3.0-1.0","uraug36g6yddvu6","instructions","5f4faaa78d88ed0955209226","5f60e3c0a3b16e07647b2ff9","5f61dbf590e12618dc2e9753","false","14887.684999999707","<div align=left>In the following part, you will thus have to remember only some pictures. <br>Immediately after seeing and classifying the picture, a symbol will be displayed, indicating whether you should remember or forget the previous picture. <br><br>A <span style='color: dodgerblue; font-size: 28px'>O</span> indicates REMEMBER. That means, you have to remember this picture, because it will be tested later. <br><br>A <span style='color: darkorange; font-size:28px'>Ø</span> indicates FORGET. You do not have to remember this picture. <br><br> As you will have to remember a lot of pictures, it will be hard for you to remember all of them. <br>It will put you at an advantage if you instantly forget the pictures you are not asked to remember. <br> This will make it easier for you to remember the pictures that will be tested afterwards. <br><br>Press SPACE to continue.</div>","32","","","","","","","","","","","","","","","","","","","",""
"html-keyboard-response","46","420413","0.0-3.0-2.0","uraug36g6yddvu6","instructions","5f4faaa78d88ed0955209226","5f60e3c0a3b16e07647b2ff9","5f61dbf590e12618dc2e9753","false","4298.850000000093","<div align=left> Now you have the chance to practice both tasks together.<br><br>Remember: <br> <br><li>Please place your index fingers on the <strong>'S'</strong> and <strong>'L'</strong> keys <br>to respond as fast and accurately as possible.</li><li>Every picture can be classified as either mechanical or non-mechanical.</li><li>If you do not respond in time or commit an error, you will receive a corresponding feedback. <br>Please try to respond as <strong> fast </strong> and as <strong> accurately as possible </strong>.</li><li> Please remember only the to-be-remembered <span style='color: dodgerblue; font-size: 28px'>O</span> pictures. <br></li><li> Please minimize distractions and stay focused. </li><br><br>Press SPACE to START</div>","32","","","","","","","","","","","","","","","","","","","",""
"html-keyboard-response","47","421114","0.0-3.0-3.0-0.0","uraug36g6yddvu6","practice_cue","5f4faaa78d88ed0955209226","5f60e3c0a3b16e07647b2ff9","5f61dbf590e12618dc2e9753","false","null","<span style=""color: black; font-size: 48px"">N + M</span>","null","","","","resp_prompt","","","","","","","","","","","","","","","",""
"categorize-image","48","422540","0.0-3.0-3.0-1.0","uraug36g6yddvu6","practice_cue","5f4faaa78d88ed0955209226","5f60e3c0a3b16e07647b2ff9","5f61dbf590e12618dc2e9753","true","1422.230000000156","./Stimuli/ImagesPractice/LN4.jpg","76","","","","test","false","N + M","83","","LN","LN4.jpg","forget","old","17","2","practice_forget","right","","","",""
"html-keyboard-response","49","423041","0.0-3.0-3.0-2.0-0.0","uraug36g6yddvu6","practice_cue","5f4faaa78d88ed0955209226","5f60e3c0a3b16e07647b2ff9","5f61dbf590e12618dc2e9753","false","null","<span style=""color: red; font-size: 48px"">Error!</span>","null","","","","feedback","","","","","","","","","","","","","","","",""
"html-keyboard-response","50","425043","0.0-3.0-3.0-3.0","uraug36g6yddvu6","practice_cue","5f4faaa78d88ed0955209226","5f60e3c0a3b16e07647b2ff9","5f61dbf590e12618dc2e9753","false","null","<div style=""align-items: center; display: flex; color: darkorange; font-size: 90px""><b>ø</b></div>","null","","","","forget_cue","","","","","","","","","","","","","","","",""
"html-keyboard-response","51","425744","0.0-3.0-3.0-0.1","uraug36g6yddvu6","practice_cue","5f4faaa78d88ed0955209226","5f60e3c0a3b16e07647b2ff9","5f61dbf590e12618dc2e9753","false","null","<span style=""color: black; font-size: 48px"">N + M</span>","null","","","","resp_prompt","","","","","","","","","","","","","","","",""
"categorize-image","52","426490","0.0-3.0-3.0-1.1","uraug36g6yddvu6","practice_cue","5f4faaa78d88ed0955209226","5f60e3c0a3b16e07647b2ff9","5f61dbf590e12618dc2e9753","true","743.5400000003865","./Stimuli/ImagesPractice/SN76.jpg","83","","","","test","true","N + M","83","","SN","SN76.jpg","forget","old","18","2","practice_forget","left","","","",""
"html-keyboard-response","53","428493","0.0-3.0-3.0-3.1","uraug36g6yddvu6","practice_cue","5f4faaa78d88ed0955209226","5f60e3c0a3b16e07647b2ff9","5f61dbf590e12618dc2e9753","false","null","<div style=""align-items: center; display: flex; color: darkorange; font-size: 90px""><b>ø</b></div>","null","","","","forget_cue","","","","","","","","","","","","","","","",""
"html-keyboard-response","54","429194","0.0-3.0-3.0-0.2","uraug36g6yddvu6","practice_cue","5f4faaa78d88ed0955209226","5f60e3c0a3b16e07647b2ff9","5f61dbf590e12618dc2e9753","false","null","<span style=""color: black; font-size: 48px"">N + M</span>","null","","","","resp_prompt","","","","","","","","","","","","","","","",""
"categorize-image","55","430411","0.0-3.0-3.0-1.2","uraug36g6yddvu6","practice_cue","5f4faaa78d88ed0955209226","5f60e3c0a3b16e07647b2ff9","5f61dbf590e12618dc2e9753","true","1215.059999999532","./Stimuli/ImagesPractice/LN15.jpg","76","","","","test","false","N + M","83","","LN","LN15.jpg","remember","old","19","2","practice_forget","right","","","",""
"html-keyboard-response","56","430913","0.0-3.0-3.0-2.2-0.2","uraug36g6yddvu6","practice_cue","5f4faaa78d88ed0955209226","5f60e3c0a3b16e07647b2ff9","5f61dbf590e12618dc2e9753","false","null","<span style=""color: red; font-size: 48px"">Error!</span>","null","","","","feedback","","","","","","","","","","","","","","","",""
"html-keyboard-response","57","432915","0.0-3.0-3.0-3.2","uraug36g6yddvu6","practice_cue","5f4faaa78d88ed0955209226","5f60e3c0a3b16e07647b2ff9","5f61dbf590e12618dc2e9753","false","null","<div style=""align-items: center; display: flex; color: dodgerblue; font-size: 90px""><b>o</b></div>","null","","","","forget_cue","","","","","","","","","","","","","","","",""
"html-keyboard-response","58","433616","0.0-3.0-3.0-0.3","uraug36g6yddvu6","practice_cue","5f4faaa78d88ed0955209226","5f60e3c0a3b16e07647b2ff9","5f61dbf590e12618dc2e9753","false","null","<span style=""color: black; font-size: 48px"">M + N</span>","null","","","","resp_prompt","","","","","","","","","","","","","","","",""
"categorize-image","59","434525","0.0-3.0-3.0-1.3","uraug36g6yddvu6","practice_cue","5f4faaa78d88ed0955209226","5f60e3c0a3b16e07647b2ff9","5f61dbf590e12618dc2e9753","true","906.6800000000512","./Stimuli/ImagesPractice/LM55.jpg","83","","","","test","true","M + N","83","","LM","LM55.jpg","remember","old","20","2","practice_forget","left","","","",""
"html-keyboard-response","60","436527","0.0-3.0-3.0-3.3","uraug36g6yddvu6","practice_cue","5f4faaa78d88ed0955209226","5f60e3c0a3b16e07647b2ff9","5f61dbf590e12618dc2e9753","false","null","<div style=""align-items: center; display: flex; color: dodgerblue; font-size: 90px""><b>o</b></div>","null","","","","forget_cue","","","","","","","","","","","","","","","",""
"html-keyboard-response","61","437228","0.0-3.0-3.0-0.4","uraug36g6yddvu6","practice_cue","5f4faaa78d88ed0955209226","5f60e3c0a3b16e07647b2ff9","5f61dbf590e12618dc2e9753","false","null","<span style=""color: black; font-size: 48px"">N + M</span>","null","","","","resp_prompt","","","","","","","","","","","","","","","",""
"categorize-image","62","438403","0.0-3.0-3.0-1.4","uraug36g6yddvu6","practice_cue","5f4faaa78d88ed0955209226","5f60e3c0a3b16e07647b2ff9","5f61dbf590e12618dc2e9753","true","1171.1449999993201","./Stimuli/ImagesPractice/LM147.jpg","76","","","","test","true","N + M","76","","LM","LM147.jpg","remember","old","21","2","practice_forget","right","","","",""
"html-keyboard-response","63","440404","0.0-3.0-3.0-3.4","uraug36g6yddvu6","practice_cue","5f4faaa78d88ed0955209226","5f60e3c0a3b16e07647b2ff9","5f61dbf590e12618dc2e9753","false","null","<div style=""align-items: center; display: flex; color: dodgerblue; font-size: 90px""><b>o</b></div>","null","","","","forget_cue","","","","","","","","","","","","","","","",""
"html-keyboard-response","64","441105","0.0-3.0-3.0-0.5","uraug36g6yddvu6","practice_cue","5f4faaa78d88ed0955209226","5f60e3c0a3b16e07647b2ff9","5f61dbf590e12618dc2e9753","false","null","<span style=""color: black; font-size: 48px"">M + N</span>","null","","","","resp_prompt","","","","","","","","","","","","","","","",""
"categorize-image","65","441680","0.0-3.0-3.0-1.5","uraug36g6yddvu6","practice_cue","5f4faaa78d88ed0955209226","5f60e3c0a3b16e07647b2ff9","5f61dbf590e12618dc2e9753","true","572.7349999997532","./Stimuli/ImagesPractice/SN220.jpg","76","","","","test","true","M + N","76","","SN","SN220.jpg","forget","old","22","2","practice_forget","right","","","",""
"html-keyboard-response","66","443681","0.0-3.0-3.0-3.5","uraug36g6yddvu6","practice_cue","5f4faaa78d88ed0955209226","5f60e3c0a3b16e07647b2ff9","5f61dbf590e12618dc2e9753","false","null","<div style=""align-items: center; display: flex; color: darkorange; font-size: 90px""><b>ø</b></div>","null","","","","forget_cue","","","","","","","","","","","","","","","",""
"html-keyboard-response","67","444382","0.0-3.0-3.0-0.6","uraug36g6yddvu6","practice_cue","5f4faaa78d88ed0955209226","5f60e3c0a3b16e07647b2ff9","5f61dbf590e12618dc2e9753","false","null","<span style=""color: black; font-size: 48px"">M + N</span>","null","","","","resp_prompt","","","","","","","","","","","","","","","",""
"categorize-image","68","445150","0.0-3.0-3.0-1.6","uraug36g6yddvu6","practice_cue","5f4faaa78d88ed0955209226","5f60e3c0a3b16e07647b2ff9","5f61dbf590e12618dc2e9753","true","764.0400000000373","./Stimuli/ImagesPractice/SM35.jpg","83","","","","test","true","M + N","83","","SM","SM35.jpg","forget","old","23","2","practice_forget","left","","","",""
"html-keyboard-response","69","447152","0.0-3.0-3.0-3.6","uraug36g6yddvu6","practice_cue","5f4faaa78d88ed0955209226","5f60e3c0a3b16e07647b2ff9","5f61dbf590e12618dc2e9753","false","null","<div style=""align-items: center; display: flex; color: darkorange; font-size: 90px""><b>ø</b></div>","null","","","","forget_cue","","","","","","","","","","","","","","","",""
"html-keyboard-response","70","447853","0.0-3.0-3.0-0.7","uraug36g6yddvu6","practice_cue","5f4faaa78d88ed0955209226","5f60e3c0a3b16e07647b2ff9","5f61dbf590e12618dc2e9753","false","null","<span style=""color: black; font-size: 48px"">N + M</span>","null","","","","resp_prompt","","","","","","","","","","","","","","","",""
"categorize-image","71","448981","0.0-3.0-3.0-1.7","uraug36g6yddvu6","practice_cue","5f4faaa78d88ed0955209226","5f60e3c0a3b16e07647b2ff9","5f61dbf590e12618dc2e9753","true","1125.3699999997625","./Stimuli/ImagesPractice/SM98.jpg","76","","","","test","true","N + M","76","","SM","SM98.jpg","remember","old","24","2","practice_forget","right","","","",""
"html-keyboard-response","72","450983","0.0-3.0-3.0-3.7","uraug36g6yddvu6","practice_cue","5f4faaa78d88ed0955209226","5f60e3c0a3b16e07647b2ff9","5f61dbf590e12618dc2e9753","false","null","<div style=""align-items: center; display: flex; color: dodgerblue; font-size: 90px""><b>o</b></div>","null","","","","forget_cue","","","","","","","","","","","","","","","",""
"html-keyboard-response","73","451685","0.0-3.0-3.0-0.8","uraug36g6yddvu6","practice_cue","5f4faaa78d88ed0955209226","5f60e3c0a3b16e07647b2ff9","5f61dbf590e12618dc2e9753","false","null","<span style=""color: black; font-size: 48px"">M + N</span>","null","","","","resp_prompt","","","","","","","","","","","","","","","",""
"categorize-image","74","452241","0.0-3.0-3.0-1.8","uraug36g6yddvu6","practice_cue","5f4faaa78d88ed0955209226","5f60e3c0a3b16e07647b2ff9","5f61dbf590e12618dc2e9753","true","552.4149999991641","./Stimuli/ImagesPractice/SM62.jpg","83","","","","test","true","M + N","83","","SM","SM62.jpg","forget","old","25","2","practice_forget","left","","","",""
"html-keyboard-response","75","454243","0.0-3.0-3.0-3.8","uraug36g6yddvu6","practice_cue","5f4faaa78d88ed0955209226","5f60e3c0a3b16e07647b2ff9","5f61dbf590e12618dc2e9753","false","null","<div style=""align-items: center; display: flex; color: darkorange; font-size: 90px""><b>ø</b></div>","null","","","","forget_cue","","","","","","","","","","","","","","","",""
"html-keyboard-response","76","454944","0.0-3.0-3.0-0.9","uraug36g6yddvu6","practice_cue","5f4faaa78d88ed0955209226","5f60e3c0a3b16e07647b2ff9","5f61dbf590e12618dc2e9753","false","null","<span style=""color: black; font-size: 48px"">M + N</span>","null","","","","resp_prompt","","","","","","","","","","","","","","","",""
"categorize-image","77","456414","0.0-3.0-3.0-1.9","uraug36g6yddvu6","practice_cue","5f4faaa78d88ed0955209226","5f60e3c0a3b16e07647b2ff9","5f61dbf590e12618dc2e9753","true","1467.1399999997811","./Stimuli/ImagesPractice/LN2.jpg","83","","","","test","false","M + N","76","","LN","LN2.jpg","remember","old","26","2","practice_forget","left","","","",""
"html-keyboard-response","78","456916","0.0-3.0-3.0-2.9-0.9","uraug36g6yddvu6","practice_cue","5f4faaa78d88ed0955209226","5f60e3c0a3b16e07647b2ff9","5f61dbf590e12618dc2e9753","false","null","<span style=""color: red; font-size: 48px"">Error!</span>","null","","","","feedback","","","","","","","","","","","","","","","",""
"html-keyboard-response","79","458917","0.0-3.0-3.0-3.9","uraug36g6yddvu6","practice_cue","5f4faaa78d88ed0955209226","5f60e3c0a3b16e07647b2ff9","5f61dbf590e12618dc2e9753","false","null","<div style=""align-items: center; display: flex; color: dodgerblue; font-size: 90px""><b>o</b></div>","null","","","","forget_cue","","","","","","","","","","","","","","","",""
"html-keyboard-response","80","459619","0.0-3.0-3.0-0.10","uraug36g6yddvu6","practice_cue","5f4faaa78d88ed0955209226","5f60e3c0a3b16e07647b2ff9","5f61dbf590e12618dc2e9753","false","null","<span style=""color: black; font-size: 48px"">N + M</span>","null","","","","resp_prompt","","","","","","","","","","","","","","","",""
"categorize-image","81","460888","0.0-3.0-3.0-1.10","uraug36g6yddvu6","practice_cue","5f4faaa78d88ed0955209226","5f60e3c0a3b16e07647b2ff9","5f61dbf590e12618dc2e9753","true","1266.9249999999302","./Stimuli/ImagesPractice/LN72.jpg","76","","","","test","false","N + M","83","","LN","LN72.jpg","forget","old","27","2","practice_forget","right","","","",""
"html-keyboard-response","82","461390","0.0-3.0-3.0-2.10-0.10","uraug36g6yddvu6","practice_cue","5f4faaa78d88ed0955209226","5f60e3c0a3b16e07647b2ff9","5f61dbf590e12618dc2e9753","false","null","<span style=""color: red; font-size: 48px"">Error!</span>","null","","","","feedback","","","","","","","","","","","","","","","",""
"html-keyboard-response","83","463392","0.0-3.0-3.0-3.10","uraug36g6yddvu6","practice_cue","5f4faaa78d88ed0955209226","5f60e3c0a3b16e07647b2ff9","5f61dbf590e12618dc2e9753","false","null","<div style=""align-items: center; display: flex; color: darkorange; font-size: 90px""><b>ø</b></div>","null","","","","forget_cue","","","","","","","","","","","","","","","",""
"html-keyboard-response","84","464093","0.0-3.0-3.0-0.11","uraug36g6yddvu6","practice_cue","5f4faaa78d88ed0955209226","5f60e3c0a3b16e07647b2ff9","5f61dbf590e12618dc2e9753","false","null","<span style=""color: black; font-size: 48px"">M + N</span>","null","","","","resp_prompt","","","","","","","","","","","","","","","",""
"categorize-image","85","465092","0.0-3.0-3.0-1.11","uraug36g6yddvu6","practice_cue","5f4faaa78d88ed0955209226","5f60e3c0a3b16e07647b2ff9","5f61dbf590e12618dc2e9753","true","996.6849999991246","./Stimuli/ImagesPractice/SM37.jpg","83","","","","test","true","M + N","83","","SM","SM37.jpg","remember","old","28","2","practice_forget","left","","","",""
"html-keyboard-response","86","467093","0.0-3.0-3.0-3.11","uraug36g6yddvu6","practice_cue","5f4faaa78d88ed0955209226","5f60e3c0a3b16e07647b2ff9","5f61dbf590e12618dc2e9753","false","null","<div style=""align-items: center; display: flex; color: dodgerblue; font-size: 90px""><b>o</b></div>","null","","","","forget_cue","","","","","","","","","","","","","","","",""
"html-keyboard-response","87","467795","0.0-3.0-3.0-0.12","uraug36g6yddvu6","practice_cue","5f4faaa78d88ed0955209226","5f60e3c0a3b16e07647b2ff9","5f61dbf590e12618dc2e9753","false","null","<span style=""color: black; font-size: 48px"">M + N</span>","null","","","","resp_prompt","","","","","","","","","","","","","","","",""
"categorize-image","88","469192","0.0-3.0-3.0-1.12","uraug36g6yddvu6","practice_cue","5f4faaa78d88ed0955209226","5f60e3c0a3b16e07647b2ff9","5f61dbf590e12618dc2e9753","true","1394.6150000001653","./Stimuli/ImagesPractice/LN109.jpg","76","","","","test","true","M + N","76","","LN","LN109.jpg","remember","old","29","2","practice_forget","right","","","",""
"html-keyboard-response","89","471194","0.0-3.0-3.0-3.12","uraug36g6yddvu6","practice_cue","5f4faaa78d88ed0955209226","5f60e3c0a3b16e07647b2ff9","5f61dbf590e12618dc2e9753","false","null","<div style=""align-items: center; display: flex; color: dodgerblue; font-size: 90px""><b>o</b></div>","null","","","","forget_cue","","","","","","","","","","","","","","","",""
"html-keyboard-response","90","471896","0.0-3.0-3.0-0.13","uraug36g6yddvu6","practice_cue","5f4faaa78d88ed0955209226","5f60e3c0a3b16e07647b2ff9","5f61dbf590e12618dc2e9753","false","null","<span style=""color: black; font-size: 48px"">N + M</span>","null","","","","resp_prompt","","","","","","","","","","","","","","","",""
"categorize-image","91","473262","0.0-3.0-3.0-1.13","uraug36g6yddvu6","practice_cue","5f4faaa78d88ed0955209226","5f60e3c0a3b16e07647b2ff9","5f61dbf590e12618dc2e9753","true","1363.564999999653","./Stimuli/ImagesPractice/SM61.jpg","83","","","","test","false","N + M","76","","SM","SM61.jpg","remember","old","30","2","practice_forget","left","","","",""
"html-keyboard-response","92","473764","0.0-3.0-3.0-2.13-0.13","uraug36g6yddvu6","practice_cue","5f4faaa78d88ed0955209226","5f60e3c0a3b16e07647b2ff9","5f61dbf590e12618dc2e9753","false","null","<span style=""color: red; font-size: 48px"">Error!</span>","null","","","","feedback","","","","","","","","","","","","","","","",""
"html-keyboard-response","93","475766","0.0-3.0-3.0-3.13","uraug36g6yddvu6","practice_cue","5f4faaa78d88ed0955209226","5f60e3c0a3b16e07647b2ff9","5f61dbf590e12618dc2e9753","false","null","<div style=""align-items: center; display: flex; color: dodgerblue; font-size: 90px""><b>o</b></div>","null","","","","forget_cue","","","","","","","","","","","","","","","",""
"html-keyboard-response","94","476467","0.0-3.0-3.0-0.14","uraug36g6yddvu6","practice_cue","5f4faaa78d88ed0955209226","5f60e3c0a3b16e07647b2ff9","5f61dbf590e12618dc2e9753","false","null","<span style=""color: black; font-size: 48px"">M + N</span>","null","","","","resp_prompt","","","","","","","","","","","","","","","",""
"categorize-image","95","477298","0.0-3.0-3.0-1.14","uraug36g6yddvu6","practice_cue","5f4faaa78d88ed0955209226","5f60e3c0a3b16e07647b2ff9","5f61dbf590e12618dc2e9753","true","826.8250000001281","./Stimuli/ImagesPractice/SN205.jpg","76","","","","test","true","M + N","76","","SN","SN205.jpg","forget","old","31","2","practice_forget","right","","","",""
"html-keyboard-response","96","479299","0.0-3.0-3.0-3.14","uraug36g6yddvu6","practice_cue","5f4faaa78d88ed0955209226","5f60e3c0a3b16e07647b2ff9","5f61dbf590e12618dc2e9753","false","null","<div style=""align-items: center; display: flex; color: darkorange; font-size: 90px""><b>ø</b></div>","null","","","","forget_cue","","","","","","","","","","","","","","","",""
"html-keyboard-response","97","480002","0.0-3.0-3.0-0.15","uraug36g6yddvu6","practice_cue","5f4faaa78d88ed0955209226","5f60e3c0a3b16e07647b2ff9","5f61dbf590e12618dc2e9753","false","null","<span style=""color: black; font-size: 48px"">N + M</span>","null","","","","resp_prompt","","","","","","","","","","","","","","","",""
"categorize-image","98","481444","0.0-3.0-3.0-1.15","uraug36g6yddvu6","practice_cue","5f4faaa78d88ed0955209226","5f60e3c0a3b16e07647b2ff9","5f61dbf590e12618dc2e9753","true","1438.6450000001932","./Stimuli/ImagesPractice/LM239.jpg","76","","","","test","true","N + M","76","","LM","LM239.jpg","forget","old","32","2","practice_forget","right","","","",""
"html-keyboard-response","99","483445","0.0-3.0-3.0-3.15","uraug36g6yddvu6","practice_cue","5f4faaa78d88ed0955209226","5f60e3c0a3b16e07647b2ff9","5f61dbf590e12618dc2e9753","false","null","<div style=""align-items: center; display: flex; color: darkorange; font-size: 90px""><b>ø</b></div>","null","","","","forget_cue","","","","","","","","","","","","","","","",""
"html-keyboard-response","100","486921","0.0-3.0-4.0","uraug36g6yddvu6","break","5f4faaa78d88ed0955209226","5f60e3c0a3b16e07647b2ff9","5f61dbf590e12618dc2e9753","false","3474.905000000028","<p style='font-size: 32px;'>Break</><br><br><br><br><br><p style='font-size: 24px;'>In the last block, you committed 5 errors and did not respond in time on 0 trials.
</p><p style='font-size: 24px;'>Try to respond as fast and accurately as possible in the next block as well! </p><p style='font-size: 24px;'>Press SPACE to continue.</p>","32","","","","","","","","","","","","","","","","","","","",""
"html-keyboard-response","101","490095","0.0-3.0-5.0","uraug36g6yddvu6","instructions","5f4faaa78d88ed0955209226","5f60e3c0a3b16e07647b2ff9","5f61dbf590e12618dc2e9753","false","3172.859999999695","<div align=left> Now, to practice, we kindly ask you to remember as many of the to-be-remembered pictures<br>of the previous learning phase as possible.<br><br>The pictures you were instructed to remember were the pictures followed by a <span style='color: dodgerblue; font-size: 28px'>O</span>.<br><br>In this memory test phase, you will also see some new pictures.<br>It is your task to remember whether you were presented with this specific picture in this study so far or not.<br>If you recognize an object (you have already seen it in this study), it is an OLD object. <br>If you do not recognize an object (you have NOT seen it in this study), it is a NEW object. <br><strong> Attention</strong>: As already mentioned, <span style='color: darkorange; font-size:28px'>Ø</span>-pictures will <strong>never</strong> appear in this memory test (neither as new objects). <br><br>Press SPACE to continue. </div>","32","","","","","","","","","","","","","","","","","","","",""
"html-keyboard-response","102","511827","0.0-3.0-6.0","uraug36g6yddvu6","instructions","5f4faaa78d88ed0955209226","5f60e3c0a3b16e07647b2ff9","5f61dbf590e12618dc2e9753","false","21731.619999999588","<div align=left> M and N no longer will appear on the left/right of the fixation cross. <br>Instead there will be a note at the bottom of the left or right side  <br>indicating which key you should press for an old or new object:  <br> <br>Press the <strong>right</strong> key to classify an object as <strong>old</strong> and press the <strong>left</strong>, to classify an object as <strong>new</strong>.<br>Please classify the objects as new/old by again placing your index finger on the 'S' and 'L' keys <br>and press them accordingly.<br><br><strong>Old:</strong> This object has been presented before. <br><strong>New:</strong> This object has <strong>not</strong> been presented.<br><br>Now please put your right and left index fingers on the 'S' and 'L' keys of your keyboard. <br>Please respond as fast and as accurately as possible!<br><br>Press SPACE to continue. </div>","32","","","","","","","","","","","","","","","","","","","",""
"categorize-image","103","518049","0.0-3.0-7.0-0.0","uraug36g6yddvu6","practice_recog","5f4faaa78d88ed0955209226","5f60e3c0a3b16e07647b2ff9","5f61dbf590e12618dc2e9753","true","5719.019999999553","./Stimuli/ImagesPractice/LM143.jpg","76","","","","test","true","","76","","LM","LM143.jpg","","new","33","3","practice_recog","right","","","",""
"categorize-image","104","519819","0.0-3.0-7.0-0.1","uraug36g6yddvu6","practice_recog","5f4faaa78d88ed0955209226","5f60e3c0a3b16e07647b2ff9","5f61dbf590e12618dc2e9753","true","1266.7200000005541","./Stimuli/ImagesPractice/SM37.jpg","83","","","","test","true","","83","","SM","SM37.jpg","","old","34","3","practice_recog","left","","","",""
"categorize-image","105","521135","0.0-3.0-7.0-0.2","uraug36g6yddvu6","practice_recog","5f4faaa78d88ed0955209226","5f60e3c0a3b16e07647b2ff9","5f61dbf590e12618dc2e9753","true","812.2149999999092","./Stimuli/ImagesPractice/LN109.jpg","83","","","","test","true","","83","","LN","LN109.jpg","","old","35","3","practice_recog","left","","","",""
"categorize-image","106","522381","0.0-3.0-7.0-0.3","uraug36g6yddvu6","practice_recog","5f4faaa78d88ed0955209226","5f60e3c0a3b16e07647b2ff9","5f61dbf590e12618dc2e9753","true","744.4550000000163","./Stimuli/ImagesPractice/LN2.jpg","83","","","","test","true","","83","","LN","LN2.jpg","","old","36","3","practice_recog","left","","","",""
"categorize-image","107","524083","0.0-3.0-7.0-0.4","uraug36g6yddvu6","practice_recog","5f4faaa78d88ed0955209226","5f60e3c0a3b16e07647b2ff9","5f61dbf590e12618dc2e9753","true","1200.5249999992666","./Stimuli/ImagesPractice/LM230.jpg","76","","","","test","true","","76","","LM","LM230.jpg","","new","37","3","practice_recog","right","","","",""
"categorize-image","108","525583","0.0-3.0-7.0-0.5","uraug36g6yddvu6","practice_recog","5f4faaa78d88ed0955209226","5f60e3c0a3b16e07647b2ff9","5f61dbf590e12618dc2e9753","true","997.7900000003865","./Stimuli/ImagesPractice/SM61.jpg","83","","","","test","true","","83","","SM","SM61.jpg","","old","38","3","practice_recog","left","","","",""
"categorize-image","109","528076","0.0-3.0-7.0-0.6","uraug36g6yddvu6","practice_recog","5f4faaa78d88ed0955209226","5f60e3c0a3b16e07647b2ff9","5f61dbf590e12618dc2e9753","true","1991.3550000000978","./Stimuli/ImagesPractice/SM98.jpg","83","","","","test","true","","83","","SM","SM98.jpg","","old","39","3","practice_recog","left","","","",""
"categorize-image","110","529287","0.0-3.0-7.0-0.7","uraug36g6yddvu6","practice_recog","5f4faaa78d88ed0955209226","5f60e3c0a3b16e07647b2ff9","5f61dbf590e12618dc2e9753","true","708.6250000002328","./Stimuli/ImagesPractice/LN15.jpg","83","","","","test","true","","83","","LN","LN15.jpg","","old","40","3","practice_recog","left","","","",""
"categorize-image","111","530568","0.0-3.0-7.0-0.8","uraug36g6yddvu6","practice_recog","5f4faaa78d88ed0955209226","5f60e3c0a3b16e07647b2ff9","5f61dbf590e12618dc2e9753","true","778.9350000002887","./Stimuli/ImagesPractice/SN75.jpg","76","","","","test","true","","76","","SN","SN75.jpg","","new","41","3","practice_recog","right","","","",""
"categorize-image","112","531809","0.0-3.0-7.0-0.9","uraug36g6yddvu6","practice_recog","5f4faaa78d88ed0955209226","5f60e3c0a3b16e07647b2ff9","5f61dbf590e12618dc2e9753","true","739.9449999993667","./Stimuli/ImagesPractice/SN221.jpg","83","","","","test","false","","76","","SN","SN221.jpg","","new","42","3","practice_recog","left","","","",""
"categorize-image","113","533574","0.0-3.0-7.0-0.10","uraug36g6yddvu6","practice_recog","5f4faaa78d88ed0955209226","5f60e3c0a3b16e07647b2ff9","5f61dbf590e12618dc2e9753","true","1262.0049999996554","./Stimuli/ImagesPractice/LN17.jpg","76","","","","test","true","","76","","LN","LN17.jpg","","new","43","3","practice_recog","right","","","",""
"categorize-image","114","534893","0.0-3.0-7.0-0.11","uraug36g6yddvu6","practice_recog","5f4faaa78d88ed0955209226","5f60e3c0a3b16e07647b2ff9","5f61dbf590e12618dc2e9753","true","818.274999999674","./Stimuli/ImagesPractice/SM97.jpg","76","","","","test","true","","76","","SM","SM97.jpg","","new","44","3","practice_recog","right","","","",""
"categorize-image","115","535991","0.0-3.0-7.0-0.12","uraug36g6yddvu6","practice_recog","5f4faaa78d88ed0955209226","5f60e3c0a3b16e07647b2ff9","5f61dbf590e12618dc2e9753","true","596.4850000001024","./Stimuli/ImagesPractice/SN222.jpg","76","","","","test","true","","76","","SN","SN222.jpg","","new","45","3","practice_recog","right","","","",""
"categorize-image","116","537117","0.0-3.0-7.0-0.13","uraug36g6yddvu6","practice_recog","5f4faaa78d88ed0955209226","5f60e3c0a3b16e07647b2ff9","5f61dbf590e12618dc2e9753","true","623.8800000001211","./Stimuli/ImagesPractice/LM224.jpg","76","","","","test","true","","76","","LM","LM224.jpg","","new","46","3","practice_recog","right","","","",""
"categorize-image","117","538340","0.0-3.0-7.0-0.14","uraug36g6yddvu6","practice_recog","5f4faaa78d88ed0955209226","5f60e3c0a3b16e07647b2ff9","5f61dbf590e12618dc2e9753","true","720.0199999997858","./Stimuli/ImagesPractice/LM147.jpg","83","","","","test","true","","83","","LM","LM147.jpg","","old","47","3","practice_recog","left","","","",""
"categorize-image","118","539568","0.0-3.0-7.0-0.15","uraug36g6yddvu6","practice_recog","5f4faaa78d88ed0955209226","5f60e3c0a3b16e07647b2ff9","5f61dbf590e12618dc2e9753","true","725.3650000003399","./Stimuli/ImagesPractice/LM55.jpg","76","","","","test","false","","83","","LM","LM55.jpg","","old","48","3","practice_recog","right","","","",""
"html-keyboard-response","119","544169","0.0-3.0-8.0","uraug36g6yddvu6","instructions","5f4faaa78d88ed0955209226","5f60e3c0a3b16e07647b2ff9","5f61dbf590e12618dc2e9753","false","4600.8099999999395","<div align=left> Great!<br><br>Are you ready to continue?<br>If you want to reread the instructions and redo the practice trials, please <br>press „Z“.<br><br>You can proceed when you are ready.<br><br>After the presentation of each object, you will receive an instruction whether to <br>remember or to forget the object.<br>We will test your memory of the following pictures only at the very end of <br>the experiment after all learning blocks are completed. <br><br>Press SPACE to CONTINUE when you are ready. </div>","32","","","","","","","","","","","","","","","","","","","",""
"html-keyboard-response","120","555635","0.0-4.0-0.0","uraug36g6yddvu6","instructions","5f4faaa78d88ed0955209226","5f60e3c0a3b16e07647b2ff9","5f61dbf590e12618dc2e9753","false","11464.49000000034","<div align=left> The actual experiment is about to start.<br>The practice trials are over!<br><br>Please always respond both fast and accurately!<br><br>Remember: <br> <br><li> Please place your index fingers on the <strong>'S'</strong> and <strong>'L'</strong> keys <br>to respond as fast and accurately as possible.</li><li> Every picture can be classified as either mechanical or non-mechanical.</li><li> If you do not respond in time or commit an error, you will receive a corresponding feedback.<br> Please try to respond as <strong> fast </strong> and as <strong> accurately as possible </strong>.</li><li> Remember the <span style='color: dodgerblue; font-size: 28px'>O</span> pictures. <br></li><li> Please minimize distractions and stay focused. </li><br><br>Press SPACE to START.</div>","32","","","","","","","","","","","","","","","","","","","",""
"html-keyboard-response","121","556336","0.0-4.0-1.0-0.0","uraug36g6yddvu6","prime","5f4faaa78d88ed0955209226","5f60e3c0a3b16e07647b2ff9","5f61dbf590e12618dc2e9753","false","null","<span style=""color: black; font-size: 48px"">N + M</span>","null","","","","resp_prompt","","","","","","","","","","","","","","","",""
"categorize-image","122","557639","0.0-4.0-1.0-1.0","uraug36g6yddvu6","prime","5f4faaa78d88ed0955209226","5f60e3c0a3b16e07647b2ff9","5f61dbf590e12618dc2e9753","true","1300.1549999999115","./Stimuli/SelectedImages/LM/LM129.bmp","76","","","","test","true","N + M","76","repetition","LM","LM129.bmp","forget","","49","3","prime1","right","","","",""
"html-keyboard-response","123","559641","0.0-4.0-1.0-3.0","uraug36g6yddvu6","prime","5f4faaa78d88ed0955209226","5f60e3c0a3b16e07647b2ff9","5f61dbf590e12618dc2e9753","false","null","<div style=""align-items: center; display: flex; color: darkorange; font-size: 90px""><b>ø</b></div>","null","","","","forget_cue","","","","","","","","","","","","","","","",""
"html-keyboard-response","124","560342","0.0-4.0-1.0-0.1","uraug36g6yddvu6","prime","5f4faaa78d88ed0955209226","5f60e3c0a3b16e07647b2ff9","5f61dbf590e12618dc2e9753","false","null","<span style=""color: black; font-size: 48px"">M + N</span>","null","","","","resp_prompt","","","","","","","","","","","","","","","",""
"categorize-image","125","561112","0.0-4.0-1.0-1.1","uraug36g6yddvu6","prime","5f4faaa78d88ed0955209226","5f60e3c0a3b16e07647b2ff9","5f61dbf590e12618dc2e9753","true","765.9700000003213","./Stimuli/SelectedImages/LN/LN13.bmp","76","","","","test","true","M + N","76","repetition","LN","LN13.bmp","remember","","50","3","prime1","right","","","",""
"html-keyboard-response","126","563114","0.0-4.0-1.0-3.1","uraug36g6yddvu6","prime","5f4faaa78d88ed0955209226","5f60e3c0a3b16e07647b2ff9","5f61dbf590e12618dc2e9753","false","null","<div style=""align-items: center; display: flex; color: dodgerblue; font-size: 90px""><b>o</b></div>","null","","","","forget_cue","","","","","","","","","","","","","","","",""
"html-keyboard-response","127","563815","0.0-4.0-1.0-0.2","uraug36g6yddvu6","prime","5f4faaa78d88ed0955209226","5f60e3c0a3b16e07647b2ff9","5f61dbf590e12618dc2e9753","false","null","<span style=""color: black; font-size: 48px"">M + N</span>","null","","","","resp_prompt","","","","","","","","","","","","","","","",""
"categorize-image","128","564624","0.0-4.0-1.0-1.2","uraug36g6yddvu6","prime","5f4faaa78d88ed0955209226","5f60e3c0a3b16e07647b2ff9","5f61dbf590e12618dc2e9753","true","805.274999999674","./Stimuli/SelectedImages/LN/LN149.bmp","76","","","","test","true","M + N","76","switch","LN","LN149.bmp","remember","","51","3","prime1","right","","","",""
"html-keyboard-response","129","566625","0.0-4.0-1.0-3.2","uraug36g6yddvu6","prime","5f4faaa78d88ed0955209226","5f60e3c0a3b16e07647b2ff9","5f61dbf590e12618dc2e9753","false","null","<div style=""align-items: center; display: flex; color: dodgerblue; font-size: 90px""><b>o</b></div>","null","","","","forget_cue","","","","","","","","","","","","","","","",""
"html-keyboard-response","130","567327","0.0-4.0-1.0-0.3","uraug36g6yddvu6","prime","5f4faaa78d88ed0955209226","5f60e3c0a3b16e07647b2ff9","5f61dbf590e12618dc2e9753","false","null","<span style=""color: black; font-size: 48px"">N + M</span>","null","","","","resp_prompt","","","","","","","","","","","","","","","",""
"categorize-image","131","568539","0.0-4.0-1.0-1.3","uraug36g6yddvu6","prime","5f4faaa78d88ed0955209226","5f60e3c0a3b16e07647b2ff9","5f61dbf590e12618dc2e9753","true","1208.3000000002794","./Stimuli/SelectedImages/SM/SM184.bmp","76","","","","test","true","N + M","76","switch","SM","SM184.bmp","remember","","52","3","prime1","right","","","",""
"html-keyboard-response","132","570541","0.0-4.0-1.0-3.3","uraug36g6yddvu6","prime","5f4faaa78d88ed0955209226","5f60e3c0a3b16e07647b2ff9","5f61dbf590e12618dc2e9753","false","null","<div style=""align-items: center; display: flex; color: dodgerblue; font-size: 90px""><b>o</b></div>","null","","","","forget_cue","","","","","","","","","","","","","","","",""
"html-keyboard-response","133","571242","0.0-4.0-1.0-0.4","uraug36g6yddvu6","prime","5f4faaa78d88ed0955209226","5f60e3c0a3b16e07647b2ff9","5f61dbf590e12618dc2e9753","false","null","<span style=""color: black; font-size: 48px"">N + M</span>","null","","","","resp_prompt","","","","","","","","","","","","","","","",""
"categorize-image","134","572272","0.0-4.0-1.0-1.4","uraug36g6yddvu6","prime","5f4faaa78d88ed0955209226","5f60e3c0a3b16e07647b2ff9","5f61dbf590e12618dc2e9753","true","1027.1950000006473","./Stimuli/SelectedImages/LN/LN28.bmp","83","","","","test","true","N + M","83","repetition","LN","LN28.bmp","remember","","53","3","prime1","left","","","",""
"html-keyboard-response","135","574273","0.0-4.0-1.0-3.4","uraug36g6yddvu6","prime","5f4faaa78d88ed0955209226","5f60e3c0a3b16e07647b2ff9","5f61dbf590e12618dc2e9753","false","null","<div style=""align-items: center; display: flex; color: dodgerblue; font-size: 90px""><b>o</b></div>","null","","","","forget_cue","","","","","","","","","","","","","","","",""
"html-keyboard-response","136","574974","0.0-4.0-1.0-0.5","uraug36g6yddvu6","prime","5f4faaa78d88ed0955209226","5f60e3c0a3b16e07647b2ff9","5f61dbf590e12618dc2e9753","false","null","<span style=""color: black; font-size: 48px"">N + M</span>","null","","","","resp_prompt","","","","","","","","","","","","","","","",""
"categorize-image","137","576007","0.0-4.0-1.0-1.5","uraug36g6yddvu6","prime","5f4faaa78d88ed0955209226","5f60e3c0a3b16e07647b2ff9","5f61dbf590e12618dc2e9753","true","1028.8449999998556","./Stimuli/SelectedImages/LM/LM216.bmp","76","","","","test","true","N + M","76","switch","LM","LM216.bmp","forget","","54","3","prime1","right","","","",""
"html-keyboard-response","138","578008","0.0-4.0-1.0-3.5","uraug36g6yddvu6","prime","5f4faaa78d88ed0955209226","5f60e3c0a3b16e07647b2ff9","5f61dbf590e12618dc2e9753","false","null","<div style=""align-items: center; display: flex; color: darkorange; font-size: 90px""><b>ø</b></div>","null","","","","forget_cue","","","","","","","","","","","","","","","",""
"html-keyboard-response","139","578709","0.0-4.0-1.0-0.6","uraug36g6yddvu6","prime","5f4faaa78d88ed0955209226","5f60e3c0a3b16e07647b2ff9","5f61dbf590e12618dc2e9753","false","null","<span style=""color: black; font-size: 48px"">M + N</span>","null","","","","resp_prompt","","","","","","","","","","","","","","","",""
"categorize-image","140","579470","0.0-4.0-1.0-1.6","uraug36g6yddvu6","prime","5f4faaa78d88ed0955209226","5f60e3c0a3b16e07647b2ff9","5f61dbf590e12618dc2e9753","true","756.6849999994738","./Stimuli/SelectedImages/SN/SN60.bmp","76","","","","test","true","M + N","76","switch","SN","SN60.bmp","forget","","55","3","prime1","right","","","",""
"html-keyboard-response","141","581472","0.0-4.0-1.0-3.6","uraug36g6yddvu6","prime","5f4faaa78d88ed0955209226","5f60e3c0a3b16e07647b2ff9","5f61dbf590e12618dc2e9753","false","null","<div style=""align-items: center; display: flex; color: darkorange; font-size: 90px""><b>ø</b></div>","null","","","","forget_cue","","","","","","","","","","","","","","","",""
"html-keyboard-response","142","582174","0.0-4.0-1.0-0.7","uraug36g6yddvu6","prime","5f4faaa78d88ed0955209226","5f60e3c0a3b16e07647b2ff9","5f61dbf590e12618dc2e9753","false","null","<span style=""color: black; font-size: 48px"">M + N</span>","null","","","","resp_prompt","","","","","","","","","","","","","","","",""
"categorize-image","143","583195","0.0-4.0-1.0-1.7","uraug36g6yddvu6","prime","5f4faaa78d88ed0955209226","5f60e3c0a3b16e07647b2ff9","5f61dbf590e12618dc2e9753","true","1018.5750000000698","./Stimuli/SelectedImages/SN/SN111.bmp","76","","","","test","true","M + N","76","switch","SN","SN111.bmp","forget","","56","3","prime1","right","","","",""
"html-keyboard-response","144","585196","0.0-4.0-1.0-3.7","uraug36g6yddvu6","prime","5f4faaa78d88ed0955209226","5f60e3c0a3b16e07647b2ff9","5f61dbf590e12618dc2e9753","false","null","<div style=""align-items: center; display: flex; color: darkorange; font-size: 90px""><b>ø</b></div>","null","","","","forget_cue","","","","","","","","","","","","","","","",""
"html-keyboard-response","145","585897","0.0-4.0-1.0-0.8","uraug36g6yddvu6","prime","5f4faaa78d88ed0955209226","5f60e3c0a3b16e07647b2ff9","5f61dbf590e12618dc2e9753","false","null","<span style=""color: black; font-size: 48px"">M + N</span>","null","","","","resp_prompt","","","","","","","","","","","","","","","",""
"categorize-image","146","586689","0.0-4.0-1.0-1.8","uraug36g6yddvu6","prime","5f4faaa78d88ed0955209226","5f60e3c0a3b16e07647b2ff9","5f61dbf590e12618dc2e9753","true","787.6049999995157","./Stimuli/SelectedImages/LM/LM235.bmp","83","","","","test","true","M + N","83","repetition","LM","LM235.bmp","remember","","57","3","prime1","left","","","",""
"html-keyboard-response","147","588691","0.0-4.0-1.0-3.8","uraug36g6yddvu6","prime","5f4faaa78d88ed0955209226","5f60e3c0a3b16e07647b2ff9","5f61dbf590e12618dc2e9753","false","null","<div style=""align-items: center; display: flex; color: dodgerblue; font-size: 90px""><b>o</b></div>","null","","","","forget_cue","","","","","","","","","","","","","","","",""
"html-keyboard-response","148","589392","0.0-4.0-1.0-0.9","uraug36g6yddvu6","prime","5f4faaa78d88ed0955209226","5f60e3c0a3b16e07647b2ff9","5f61dbf590e12618dc2e9753","false","null","<span style=""color: black; font-size: 48px"">N + M</span>","null","","","","resp_prompt","","","","","","","","","","","","","","","",""
"categorize-image","149","591276","0.0-4.0-1.0-1.9","uraug36g6yddvu6","prime","5f4faaa78d88ed0955209226","5f60e3c0a3b16e07647b2ff9","5f61dbf590e12618dc2e9753","true","1881.3899999995483","./Stimuli/SelectedImages/LN/LN111.bmp","83","","","","test","true","N + M","83","switch","LN","LN111.bmp","forget","","58","3","prime1","left","","","",""
"html-keyboard-response","150","593277","0.0-4.0-1.0-3.9","uraug36g6yddvu6","prime","5f4faaa78d88ed0955209226","5f60e3c0a3b16e07647b2ff9","5f61dbf590e12618dc2e9753","false","null","<div style=""align-items: center; display: flex; color: darkorange; font-size: 90px""><b>ø</b></div>","null","","","","forget_cue","","","","","","","","","","","","","","","",""
"html-keyboard-response","151","593979","0.0-4.0-1.0-0.10","uraug36g6yddvu6","prime","5f4faaa78d88ed0955209226","5f60e3c0a3b16e07647b2ff9","5f61dbf590e12618dc2e9753","false","null","<span style=""color: black; font-size: 48px"">N + M</span>","null","","","","resp_prompt","","","","","","","","","","","","","","","",""
"categorize-image","152","594606","0.0-4.0-1.0-1.10","uraug36g6yddvu6","prime","5f4faaa78d88ed0955209226","5f60e3c0a3b16e07647b2ff9","5f61dbf590e12618dc2e9753","true","623.7399999999907","./Stimuli/SelectedImages/SN/SN64.bmp","83","","","","test","true","N + M","83","switch","SN","SN64.bmp","forget","","59","3","prime1","left","","","",""
"html-keyboard-response","153","596607","0.0-4.0-1.0-3.10","uraug36g6yddvu6","prime","5f4faaa78d88ed0955209226","5f60e3c0a3b16e07647b2ff9","5f61dbf590e12618dc2e9753","false","null","<div style=""align-items: center; display: flex; color: darkorange; font-size: 90px""><b>ø</b></div>","null","","","","forget_cue","","","","","","","","","","","","","","","",""
"html-keyboard-response","154","597308","0.0-4.0-1.0-0.11","uraug36g6yddvu6","prime","5f4faaa78d88ed0955209226","5f60e3c0a3b16e07647b2ff9","5f61dbf590e12618dc2e9753","false","null","<span style=""color: black; font-size: 48px"">N + M</span>","null","","","","resp_prompt","","","","","","","","","","","","","","","",""
"categorize-image","155","597867","0.0-4.0-1.0-1.11","uraug36g6yddvu6","prime","5f4faaa78d88ed0955209226","5f60e3c0a3b16e07647b2ff9","5f61dbf590e12618dc2e9753","true","555.9149999999208","./Stimuli/SelectedImages/SN/SN18.bmp","83","","","","test","true","N + M","83","repetition","SN","SN18.bmp","remember","","60","3","prime1","left","","","",""
"html-keyboard-response","156","599869","0.0-4.0-1.0-3.11","uraug36g6yddvu6","prime","5f4faaa78d88ed0955209226","5f60e3c0a3b16e07647b2ff9","5f61dbf590e12618dc2e9753","false","null","<div style=""align-items: center; display: flex; color: dodgerblue; font-size: 90px""><b>o</b></div>","null","","","","forget_cue","","","","","","","","","","","","","","","",""
"html-keyboard-response","157","600571","0.0-4.0-1.0-0.12","uraug36g6yddvu6","prime","5f4faaa78d88ed0955209226","5f60e3c0a3b16e07647b2ff9","5f61dbf590e12618dc2e9753","false","null","<span style=""color: black; font-size: 48px"">N + M</span>","null","","","","resp_prompt","","","","","","","","","","","","","","","",""
"categorize-image","158","601633","0.0-4.0-1.0-1.12","uraug36g6yddvu6","prime","5f4faaa78d88ed0955209226","5f60e3c0a3b16e07647b2ff9","5f61dbf590e12618dc2e9753","true","1059.8150000005262","./Stimuli/SelectedImages/SM/SM24.bmp","76","","","","test","true","N + M","76","switch","SM","SM24.bmp","forget","","61","3","prime1","right","","","",""
"html-keyboard-response","159","603635","0.0-4.0-1.0-3.12","uraug36g6yddvu6","prime","5f4faaa78d88ed0955209226","5f60e3c0a3b16e07647b2ff9","5f61dbf590e12618dc2e9753","false","null","<div style=""align-items: center; display: flex; color: darkorange; font-size: 90px""><b>ø</b></div>","null","","","","forget_cue","","","","","","","","","","","","","","","",""
"html-keyboard-response","160","604336","0.0-4.0-1.0-0.13","uraug36g6yddvu6","prime","5f4faaa78d88ed0955209226","5f60e3c0a3b16e07647b2ff9","5f61dbf590e12618dc2e9753","false","null","<span style=""color: black; font-size: 48px"">N + M</span>","null","","","","resp_prompt","","","","","","","","","","","","","","","",""
"categorize-image","161","605609","0.0-4.0-1.0-1.13","uraug36g6yddvu6","prime","5f4faaa78d88ed0955209226","5f60e3c0a3b16e07647b2ff9","5f61dbf590e12618dc2e9753","true","1269.6150000002235","./Stimuli/SelectedImages/SM/SM213.bmp","76","","","","test","true","N + M","76","switch","SM","SM213.bmp","remember","","62","3","prime1","right","","","",""
"html-keyboard-response","162","607611","0.0-4.0-1.0-3.13","uraug36g6yddvu6","prime","5f4faaa78d88ed0955209226","5f60e3c0a3b16e07647b2ff9","5f61dbf590e12618dc2e9753","false","null","<div style=""align-items: center; display: flex; color: dodgerblue; font-size: 90px""><b>o</b></div>","null","","","","forget_cue","","","","","","","","","","","","","","","",""
"html-keyboard-response","163","608312","0.0-4.0-1.0-0.14","uraug36g6yddvu6","prime","5f4faaa78d88ed0955209226","5f60e3c0a3b16e07647b2ff9","5f61dbf590e12618dc2e9753","false","null","<span style=""color: black; font-size: 48px"">M + N</span>","null","","","","resp_prompt","","","","","","","","","","","","","","","",""
"categorize-image","164","609353","0.0-4.0-1.0-1.14","uraug36g6yddvu6","prime","5f4faaa78d88ed0955209226","5f60e3c0a3b16e07647b2ff9","5f61dbf590e12618dc2e9753","true","1038.079999999376","./Stimuli/SelectedImages/SN/SN93.bmp","76","","","","test","true","M + N","76","repetition","SN","SN93.bmp","remember","","63","3","prime1","right","","","",""
"html-keyboard-response","165","611354","0.0-4.0-1.0-3.14","uraug36g6yddvu6","prime","5f4faaa78d88ed0955209226","5f60e3c0a3b16e07647b2ff9","5f61dbf590e12618dc2e9753","false","null","<div style=""align-items: center; display: flex; color: dodgerblue; font-size: 90px""><b>o</b></div>","null","","","","forget_cue","","","","","","","","","","","","","","","",""
"html-keyboard-response","166","612056","0.0-4.0-1.0-0.15","uraug36g6yddvu6","prime","5f4faaa78d88ed0955209226","5f60e3c0a3b16e07647b2ff9","5f61dbf590e12618dc2e9753","false","null","<span style=""color: black; font-size: 48px"">N + M</span>","null","","","","resp_prompt","","","","","","","","","","","","","","","",""
"categorize-image","167","613361","0.0-4.0-1.0-1.15","uraug36g6yddvu6","prime","5f4faaa78d88ed0955209226","5f60e3c0a3b16e07647b2ff9","5f61dbf590e12618dc2e9753","true","1302.6200000003446","./Stimuli/SelectedImages/LN/LN101.bmp","83","","","","test","true","N + M","83","repetition","LN","LN101.bmp","forget","","64","3","prime1","left","","","",""
"html-keyboard-response","168","615363","0.0-4.0-1.0-3.15","uraug36g6yddvu6","prime","5f4faaa78d88ed0955209226","5f60e3c0a3b16e07647b2ff9","5f61dbf590e12618dc2e9753","false","null","<div style=""align-items: center; display: flex; color: darkorange; font-size: 90px""><b>ø</b></div>","null","","","","forget_cue","","","","","","","","","","","","","","","",""
"html-keyboard-response","169","616065","0.0-4.0-1.0-0.16","uraug36g6yddvu6","prime","5f4faaa78d88ed0955209226","5f60e3c0a3b16e07647b2ff9","5f61dbf590e12618dc2e9753","false","null","<span style=""color: black; font-size: 48px"">M + N</span>","null","","","","resp_prompt","","","","","","","","","","","","","","","",""
"categorize-image","170","617185","0.0-4.0-1.0-1.16","uraug36g6yddvu6","prime","5f4faaa78d88ed0955209226","5f60e3c0a3b16e07647b2ff9","5f61dbf590e12618dc2e9753","true","1116.8950000000186","./Stimuli/SelectedImages/LN/LN128.bmp","76","","","","test","true","M + N","76","repetition","LN","LN128.bmp","forget","","65","3","prime1","right","","","",""
"html-keyboard-response","171","619187","0.0-4.0-1.0-3.16","uraug36g6yddvu6","prime","5f4faaa78d88ed0955209226","5f60e3c0a3b16e07647b2ff9","5f61dbf590e12618dc2e9753","false","null","<div style=""align-items: center; display: flex; color: darkorange; font-size: 90px""><b>ø</b></div>","null","","","","forget_cue","","","","","","","","","","","","","","","",""
"html-keyboard-response","172","619888","0.0-4.0-1.0-0.17","uraug36g6yddvu6","prime","5f4faaa78d88ed0955209226","5f60e3c0a3b16e07647b2ff9","5f61dbf590e12618dc2e9753","false","null","<span style=""color: black; font-size: 48px"">N + M</span>","null","","","","resp_prompt","","","","","","","","","","","","","","","",""
"categorize-image","173","620918","0.0-4.0-1.0-1.17","uraug36g6yddvu6","prime","5f4faaa78d88ed0955209226","5f60e3c0a3b16e07647b2ff9","5f61dbf590e12618dc2e9753","true","1026.3349999996135","./Stimuli/SelectedImages/SM/SM200.bmp","83","","","","test","false","N + M","76","repetition","SM","SM200.bmp","forget","","66","3","prime1","left","","","",""
"html-keyboard-response","174","621420","0.0-4.0-1.0-2.17-0.17","uraug36g6yddvu6","prime","5f4faaa78d88ed0955209226","5f60e3c0a3b16e07647b2ff9","5f61dbf590e12618dc2e9753","false","null","<span style=""color: red; font-size: 48px"">Error!</span>","null","","","","feedback","","","","","","","","","","","","","","","",""
"html-keyboard-response","175","623421","0.0-4.0-1.0-3.17","uraug36g6yddvu6","prime","5f4faaa78d88ed0955209226","5f60e3c0a3b16e07647b2ff9","5f61dbf590e12618dc2e9753","false","null","<div style=""align-items: center; display: flex; color: darkorange; font-size: 90px""><b>ø</b></div>","null","","","","forget_cue","","","","","","","","","","","","","","","",""
"html-keyboard-response","176","624123","0.0-4.0-1.0-0.18","uraug36g6yddvu6","prime","5f4faaa78d88ed0955209226","5f60e3c0a3b16e07647b2ff9","5f61dbf590e12618dc2e9753","false","null","<span style=""color: black; font-size: 48px"">M + N</span>","null","","","","resp_prompt","","","","","","","","","","","","","","","",""
"categorize-image","177","624763","0.0-4.0-1.0-1.18","uraug36g6yddvu6","prime","5f4faaa78d88ed0955209226","5f60e3c0a3b16e07647b2ff9","5f61dbf590e12618dc2e9753","true","636.7149999997346","./Stimuli/SelectedImages/LN/LN59.bmp","76","","","","test","true","M + N","76","repetition","LN","LN59.bmp","forget","","67","3","prime1","right","","","",""
"html-keyboard-response","178","626764","0.0-4.0-1.0-3.18","uraug36g6yddvu6","prime","5f4faaa78d88ed0955209226","5f60e3c0a3b16e07647b2ff9","5f61dbf590e12618dc2e9753","false","null","<div style=""align-items: center; display: flex; color: darkorange; font-size: 90px""><b>ø</b></div>","null","","","","forget_cue","","","","","","","","","","","","","","","",""
"html-keyboard-response","179","627465","0.0-4.0-1.0-0.19","uraug36g6yddvu6","prime","5f4faaa78d88ed0955209226","5f60e3c0a3b16e07647b2ff9","5f61dbf590e12618dc2e9753","false","null","<span style=""color: black; font-size: 48px"">N + M</span>","null","","","","resp_prompt","","","","","","","","","","","","","","","",""
"categorize-image","180","628941","0.0-4.0-1.0-1.19","uraug36g6yddvu6","prime","5f4faaa78d88ed0955209226","5f60e3c0a3b16e07647b2ff9","5f61dbf590e12618dc2e9753","true","1473.5550000005169","./Stimuli/SelectedImages/LN/LN82.bmp","83","","","","test","true","N + M","83","switch","LN","LN82.bmp","forget","","68","3","prime1","left","","","",""
"html-keyboard-response","181","630942","0.0-4.0-1.0-3.19","uraug36g6yddvu6","prime","5f4faaa78d88ed0955209226","5f60e3c0a3b16e07647b2ff9","5f61dbf590e12618dc2e9753","false","null","<div style=""align-items: center; display: flex; color: darkorange; font-size: 90px""><b>ø</b></div>","null","","","","forget_cue","","","","","","","","","","","","","","","",""
"html-keyboard-response","182","631643","0.0-4.0-1.0-0.20","uraug36g6yddvu6","prime","5f4faaa78d88ed0955209226","5f60e3c0a3b16e07647b2ff9","5f61dbf590e12618dc2e9753","false","null","<span style=""color: black; font-size: 48px"">M + N</span>","null","","","","resp_prompt","","","","","","","","","","","","","","","",""
"categorize-image","183","632710","0.0-4.0-1.0-1.20","uraug36g6yddvu6","prime","5f4faaa78d88ed0955209226","5f60e3c0a3b16e07647b2ff9","5f61dbf590e12618dc2e9753","true","1062.619999999646","./Stimuli/SelectedImages/LN/LN12.bmp","76","","","","test","true","M + N","76","repetition","LN","LN12.bmp","remember","","69","3","prime1","right","","","",""
"html-keyboard-response","184","634712","0.0-4.0-1.0-3.20","uraug36g6yddvu6","prime","5f4faaa78d88ed0955209226","5f60e3c0a3b16e07647b2ff9","5f61dbf590e12618dc2e9753","false","null","<div style=""align-items: center; display: flex; color: dodgerblue; font-size: 90px""><b>o</b></div>","null","","","","forget_cue","","","","","","","","","","","","","","","",""
"html-keyboard-response","185","635413","0.0-4.0-1.0-0.21","uraug36g6yddvu6","prime","5f4faaa78d88ed0955209226","5f60e3c0a3b16e07647b2ff9","5f61dbf590e12618dc2e9753","false","null","<span style=""color: black; font-size: 48px"">M + N</span>","null","","","","resp_prompt","","","","","","","","","","","","","","","",""
"categorize-image","186","636320","0.0-4.0-1.0-1.21","uraug36g6yddvu6","prime","5f4faaa78d88ed0955209226","5f60e3c0a3b16e07647b2ff9","5f61dbf590e12618dc2e9753","true","903.479999999865","./Stimuli/SelectedImages/LM/LM157.bmp","83","","","","test","true","M + N","83","switch","LM","LM157.bmp","remember","","70","3","prime1","left","","","",""
"html-keyboard-response","187","638321","0.0-4.0-1.0-3.21","uraug36g6yddvu6","prime","5f4faaa78d88ed0955209226","5f60e3c0a3b16e07647b2ff9","5f61dbf590e12618dc2e9753","false","null","<div style=""align-items: center; display: flex; color: dodgerblue; font-size: 90px""><b>o</b></div>","null","","","","forget_cue","","","","","","","","","","","","","","","",""
"html-keyboard-response","188","639022","0.0-4.0-1.0-0.22","uraug36g6yddvu6","prime","5f4faaa78d88ed0955209226","5f60e3c0a3b16e07647b2ff9","5f61dbf590e12618dc2e9753","false","null","<span style=""color: black; font-size: 48px"">M + N</span>","null","","","","resp_prompt","","","","","","","","","","","","","","","",""
"categorize-image","189","639737","0.0-4.0-1.0-1.22","uraug36g6yddvu6","prime","5f4faaa78d88ed0955209226","5f60e3c0a3b16e07647b2ff9","5f61dbf590e12618dc2e9753","true","711.339999999851","./Stimuli/SelectedImages/SM/SM76.bmp","83","","","","test","true","M + N","83","repetition","SM","SM76.bmp","remember","","71","3","prime1","left","","","",""
"html-keyboard-response","190","641739","0.0-4.0-1.0-3.22","uraug36g6yddvu6","prime","5f4faaa78d88ed0955209226","5f60e3c0a3b16e07647b2ff9","5f61dbf590e12618dc2e9753","false","null","<div style=""align-items: center; display: flex; color: dodgerblue; font-size: 90px""><b>o</b></div>","null","","","","forget_cue","","","","","","","","","","","","","","","",""
"html-keyboard-response","191","642441","0.0-4.0-1.0-0.23","uraug36g6yddvu6","prime","5f4faaa78d88ed0955209226","5f60e3c0a3b16e07647b2ff9","5f61dbf590e12618dc2e9753","false","null","<span style=""color: black; font-size: 48px"">M + N</span>","null","","","","resp_prompt","","","","","","","","","","","","","","","",""
"categorize-image","192","643058","0.0-4.0-1.0-1.23","uraug36g6yddvu6","prime","5f4faaa78d88ed0955209226","5f60e3c0a3b16e07647b2ff9","5f61dbf590e12618dc2e9753","true","613.2850000003818","./Stimuli/SelectedImages/SM/SM108.bmp","83","","","","test","true","M + N","83","repetition","SM","SM108.bmp","remember","","72","3","prime1","left","","","",""
"html-keyboard-response","193","645059","0.0-4.0-1.0-3.23","uraug36g6yddvu6","prime","5f4faaa78d88ed0955209226","5f60e3c0a3b16e07647b2ff9","5f61dbf590e12618dc2e9753","false","null","<div style=""align-items: center; display: flex; color: dodgerblue; font-size: 90px""><b>o</b></div>","null","","","","forget_cue","","","","","","","","","","","","","","","",""
"html-keyboard-response","194","645761","0.0-4.0-1.0-0.24","uraug36g6yddvu6","prime","5f4faaa78d88ed0955209226","5f60e3c0a3b16e07647b2ff9","5f61dbf590e12618dc2e9753","false","null","<span style=""color: black; font-size: 48px"">M + N</span>","null","","","","resp_prompt","","","","","","","","","","","","","","","",""
"categorize-image","195","646565","0.0-4.0-1.0-1.24","uraug36g6yddvu6","prime","5f4faaa78d88ed0955209226","5f60e3c0a3b16e07647b2ff9","5f61dbf590e12618dc2e9753","true","799.7249999998603","./Stimuli/SelectedImages/LN/LN42.bmp","76","","","","test","true","M + N","76","switch","LN","LN42.bmp","forget","","73","3","prime1","right","","","",""
"html-keyboard-response","196","648567","0.0-4.0-1.0-3.24","uraug36g6yddvu6","prime","5f4faaa78d88ed0955209226","5f60e3c0a3b16e07647b2ff9","5f61dbf590e12618dc2e9753","false","null","<div style=""align-items: center; display: flex; color: darkorange; font-size: 90px""><b>ø</b></div>","null","","","","forget_cue","","","","","","","","","","","","","","","",""
"html-keyboard-response","197","649268","0.0-4.0-1.0-0.25","uraug36g6yddvu6","prime","5f4faaa78d88ed0955209226","5f60e3c0a3b16e07647b2ff9","5f61dbf590e12618dc2e9753","false","null","<span style=""color: black; font-size: 48px"">M + N</span>","null","","","","resp_prompt","","","","","","","","","","","","","","","",""
"categorize-image","198","650419","0.0-4.0-1.0-1.25","uraug36g6yddvu6","prime","5f4faaa78d88ed0955209226","5f60e3c0a3b16e07647b2ff9","5f61dbf590e12618dc2e9753","true","1146.890000000014","./Stimuli/SelectedImages/SN/SN52.bmp","76","","","","test","true","M + N","76","repetition","SN","SN52.bmp","forget","","74","3","prime1","right","","","",""
"html-keyboard-response","199","652419","0.0-4.0-1.0-3.25","uraug36g6yddvu6","prime","5f4faaa78d88ed0955209226","5f60e3c0a3b16e07647b2ff9","5f61dbf590e12618dc2e9753","false","null","<div style=""align-items: center; display: flex; color: darkorange; font-size: 90px""><b>ø</b></div>","null","","","","forget_cue","","","","","","","","","","","","","","","",""
"html-keyboard-response","200","653120","0.0-4.0-1.0-0.26","uraug36g6yddvu6","prime","5f4faaa78d88ed0955209226","5f60e3c0a3b16e07647b2ff9","5f61dbf590e12618dc2e9753","false","null","<span style=""color: black; font-size: 48px"">M + N</span>","null","","","","resp_prompt","","","","","","","","","","","","","","","",""
"categorize-image","201","653850","0.0-4.0-1.0-1.26","uraug36g6yddvu6","prime","5f4faaa78d88ed0955209226","5f60e3c0a3b16e07647b2ff9","5f61dbf590e12618dc2e9753","true","727.0649999999441","./Stimuli/SelectedImages/LN/LN177.bmp","76","","","","test","true","M + N","76","switch","LN","LN177.bmp","remember","","75","3","prime1","right","","","",""
"html-keyboard-response","202","655851","0.0-4.0-1.0-3.26","uraug36g6yddvu6","prime","5f4faaa78d88ed0955209226","5f60e3c0a3b16e07647b2ff9","5f61dbf590e12618dc2e9753","false","null","<div style=""align-items: center; display: flex; color: dodgerblue; font-size: 90px""><b>o</b></div>","null","","","","forget_cue","","","","","","","","","","","","","","","",""
"html-keyboard-response","203","656552","0.0-4.0-1.0-0.27","uraug36g6yddvu6","prime","5f4faaa78d88ed0955209226","5f60e3c0a3b16e07647b2ff9","5f61dbf590e12618dc2e9753","false","null","<span style=""color: black; font-size: 48px"">N + M</span>","null","","","","resp_prompt","","","","","","","","","","","","","","","",""
"categorize-image","204","658559","0.0-4.0-1.0-1.27","uraug36g6yddvu6","prime","5f4faaa78d88ed0955209226","5f60e3c0a3b16e07647b2ff9","5f61dbf590e12618dc2e9753","true","null","./Stimuli/SelectedImages/SM/SM148.bmp","null","","","","test","false","N + M","76","repetition","SM","SM148.bmp","remember","","76","3","prime1","too_slow","","","",""
"html-keyboard-response","205","659059","0.0-4.0-1.0-2.27-0.27","uraug36g6yddvu6","prime","5f4faaa78d88ed0955209226","5f60e3c0a3b16e07647b2ff9","5f61dbf590e12618dc2e9753","false","null","<span style=""color: red; font-size: 48px"">Too slow!</span>","null","","","","feedback","","","","","","","","","","","","","","","",""
"html-keyboard-response","206","661061","0.0-4.0-1.0-3.27","uraug36g6yddvu6","prime","5f4faaa78d88ed0955209226","5f60e3c0a3b16e07647b2ff9","5f61dbf590e12618dc2e9753","false","null","<div style=""align-items: center; display: flex; color: dodgerblue; font-size: 90px""><b>o</b></div>","null","","","","forget_cue","","","","","","","","","","","","","","","",""
"html-keyboard-response","207","661763","0.0-4.0-1.0-0.28","uraug36g6yddvu6","prime","5f4faaa78d88ed0955209226","5f60e3c0a3b16e07647b2ff9","5f61dbf590e12618dc2e9753","false","null","<span style=""color: black; font-size: 48px"">N + M</span>","null","","","","resp_prompt","","","","","","","","","","","","","","","",""
"categorize-image","208","662903","0.0-4.0-1.0-1.28","uraug36g6yddvu6","prime","5f4faaa78d88ed0955209226","5f60e3c0a3b16e07647b2ff9","5f61dbf590e12618dc2e9753","true","1136.034999999567","./Stimuli/SelectedImages/SN/SN140.bmp","83","","","","test","true","N + M","83","repetition","SN","SN140.bmp","forget","","77","3","prime1","left","","","",""
"html-keyboard-response","209","664905","0.0-4.0-1.0-3.28","uraug36g6yddvu6","prime","5f4faaa78d88ed0955209226","5f60e3c0a3b16e07647b2ff9","5f61dbf590e12618dc2e9753","false","null","<div style=""align-items: center; display: flex; color: darkorange; font-size: 90px""><b>ø</b></div>","null","","","","forget_cue","","","","","","","","","","","","","","","",""
"html-keyboard-response","210","665606","0.0-4.0-1.0-0.29","uraug36g6yddvu6","prime","5f4faaa78d88ed0955209226","5f60e3c0a3b16e07647b2ff9","5f61dbf590e12618dc2e9753","false","null","<span style=""color: black; font-size: 48px"">N + M</span>","null","","","","resp_prompt","","","","","","","","","","","","","","","",""
"categorize-image","211","666396","0.0-4.0-1.0-1.29","uraug36g6yddvu6","prime","5f4faaa78d88ed0955209226","5f60e3c0a3b16e07647b2ff9","5f61dbf590e12618dc2e9753","true","786.0600000004051","./Stimuli/SelectedImages/LM/LM75.bmp","76","","","","test","true","N + M","76","repetition","LM","LM75.bmp","remember","","78","3","prime1","right","","","",""
"html-keyboard-response","212","668398","0.0-4.0-1.0-3.29","uraug36g6yddvu6","prime","5f4faaa78d88ed0955209226","5f60e3c0a3b16e07647b2ff9","5f61dbf590e12618dc2e9753","false","null","<div style=""align-items: center; display: flex; color: dodgerblue; font-size: 90px""><b>o</b></div>","null","","","","forget_cue","","","","","","","","","","","","","","","",""
"html-keyboard-response","213","669099","0.0-4.0-1.0-0.30","uraug36g6yddvu6","prime","5f4faaa78d88ed0955209226","5f60e3c0a3b16e07647b2ff9","5f61dbf590e12618dc2e9753","false","null","<span style=""color: black; font-size: 48px"">M + N</span>","null","","","","resp_prompt","","","","","","","","","","","","","","","",""
"categorize-image","214","669752","0.0-4.0-1.0-1.30","uraug36g6yddvu6","prime","5f4faaa78d88ed0955209226","5f60e3c0a3b16e07647b2ff9","5f61dbf590e12618dc2e9753","true","649.4650000003166","./Stimuli/SelectedImages/LN/LN150.bmp","76","","","","test","true","M + N","76","switch","LN","LN150.bmp","forget","","79","3","prime1","right","","","",""
"html-keyboard-response","215","671753","0.0-4.0-1.0-3.30","uraug36g6yddvu6","prime","5f4faaa78d88ed0955209226","5f60e3c0a3b16e07647b2ff9","5f61dbf590e12618dc2e9753","false","null","<div style=""align-items: center; display: flex; color: darkorange; font-size: 90px""><b>ø</b></div>","null","","","","forget_cue","","","","","","","","","","","","","","","",""
"html-keyboard-response","216","672456","0.0-4.0-1.0-0.31","uraug36g6yddvu6","prime","5f4faaa78d88ed0955209226","5f60e3c0a3b16e07647b2ff9","5f61dbf590e12618dc2e9753","false","null","<span style=""color: black; font-size: 48px"">N + M</span>","null","","","","resp_prompt","","","","","","","","","","","","","","","",""
"categorize-image","217","673545","0.0-4.0-1.0-1.31","uraug36g6yddvu6","prime","5f4faaa78d88ed0955209226","5f60e3c0a3b16e07647b2ff9","5f61dbf590e12618dc2e9753","true","1086.8399999999674","./Stimuli/SelectedImages/LM/LM58.bmp","76","","","","test","true","N + M","76","switch","LM","LM58.bmp","forget","","80","3","prime1","right","","","",""
"html-keyboard-response","218","675546","0.0-4.0-1.0-3.31","uraug36g6yddvu6","prime","5f4faaa78d88ed0955209226","5f60e3c0a3b16e07647b2ff9","5f61dbf590e12618dc2e9753","false","null","<div style=""align-items: center; display: flex; color: darkorange; font-size: 90px""><b>ø</b></div>","null","","","","forget_cue","","","","","","","","","","","","","","","",""
"html-keyboard-response","219","676248","0.0-4.0-1.0-0.32","uraug36g6yddvu6","prime","5f4faaa78d88ed0955209226","5f60e3c0a3b16e07647b2ff9","5f61dbf590e12618dc2e9753","false","null","<span style=""color: black; font-size: 48px"">M + N</span>","null","","","","resp_prompt","","","","","","","","","","","","","","","",""
"categorize-image","220","677256","0.0-4.0-1.0-1.32","uraug36g6yddvu6","prime","5f4faaa78d88ed0955209226","5f60e3c0a3b16e07647b2ff9","5f61dbf590e12618dc2e9753","true","1005.239999999525","./Stimuli/SelectedImages/LM/LM51.bmp","76","","","","test","false","M + N","83","switch","LM","LM51.bmp","forget","","81","3","prime1","right","","","",""
"html-keyboard-response","221","677757","0.0-4.0-1.0-2.32-0.32","uraug36g6yddvu6","prime","5f4faaa78d88ed0955209226","5f60e3c0a3b16e07647b2ff9","5f61dbf590e12618dc2e9753","false","null","<span style=""color: red; font-size: 48px"">Error!</span>","null","","","","feedback","","","","","","","","","","","","","","","",""
"html-keyboard-response","222","679759","0.0-4.0-1.0-3.32","uraug36g6yddvu6","prime","5f4faaa78d88ed0955209226","5f60e3c0a3b16e07647b2ff9","5f61dbf590e12618dc2e9753","false","null","<div style=""align-items: center; display: flex; color: darkorange; font-size: 90px""><b>ø</b></div>","null","","","","forget_cue","","","","","","","","","","","","","","","",""
"html-keyboard-response","223","680460","0.0-4.0-1.0-0.33","uraug36g6yddvu6","prime","5f4faaa78d88ed0955209226","5f60e3c0a3b16e07647b2ff9","5f61dbf590e12618dc2e9753","false","null","<span style=""color: black; font-size: 48px"">M + N</span>","null","","","","resp_prompt","","","","","","","","","","","","","","","",""
"categorize-image","224","681017","0.0-4.0-1.0-1.33","uraug36g6yddvu6","prime","5f4faaa78d88ed0955209226","5f60e3c0a3b16e07647b2ff9","5f61dbf590e12618dc2e9753","true","554.3250000000698","./Stimuli/SelectedImages/LM/LM150.bmp","83","","","","test","true","M + N","83","repetition","LM","LM150.bmp","forget","","82","3","prime1","left","","","",""
"html-keyboard-response","225","683018","0.0-4.0-1.0-3.33","uraug36g6yddvu6","prime","5f4faaa78d88ed0955209226","5f60e3c0a3b16e07647b2ff9","5f61dbf590e12618dc2e9753","false","null","<div style=""align-items: center; display: flex; color: darkorange; font-size: 90px""><b>ø</b></div>","null","","","","forget_cue","","","","","","","","","","","","","","","",""
"html-keyboard-response","226","683720","0.0-4.0-1.0-0.34","uraug36g6yddvu6","prime","5f4faaa78d88ed0955209226","5f60e3c0a3b16e07647b2ff9","5f61dbf590e12618dc2e9753","false","null","<span style=""color: black; font-size: 48px"">M + N</span>","null","","","","resp_prompt","","","","","","","","","","","","","","","",""
"categorize-image","227","684544","0.0-4.0-1.0-1.34","uraug36g6yddvu6","prime","5f4faaa78d88ed0955209226","5f60e3c0a3b16e07647b2ff9","5f61dbf590e12618dc2e9753","true","820.0600000000559","./Stimuli/SelectedImages/SM/SM207.bmp","83","","","","test","true","M + N","83","switch","SM","SM207.bmp","remember","","83","3","prime1","left","","","",""
"html-keyboard-response","228","686546","0.0-4.0-1.0-3.34","uraug36g6yddvu6","prime","5f4faaa78d88ed0955209226","5f60e3c0a3b16e07647b2ff9","5f61dbf590e12618dc2e9753","false","null","<div style=""align-items: center; display: flex; color: dodgerblue; font-size: 90px""><b>o</b></div>","null","","","","forget_cue","","","","","","","","","","","","","","","",""
"html-keyboard-response","229","687247","0.0-4.0-1.0-0.35","uraug36g6yddvu6","prime","5f4faaa78d88ed0955209226","5f60e3c0a3b16e07647b2ff9","5f61dbf590e12618dc2e9753","false","null","<span style=""color: black; font-size: 48px"">M + N</span>","null","","","","resp_prompt","","","","","","","","","","","","","","","",""
"categorize-image","230","687900","0.0-4.0-1.0-1.35","uraug36g6yddvu6","prime","5f4faaa78d88ed0955209226","5f60e3c0a3b16e07647b2ff9","5f61dbf590e12618dc2e9753","true","650.5600000000559","./Stimuli/SelectedImages/SN/SN155.bmp","76","","","","test","true","M + N","76","repetition","SN","SN155.bmp","remember","","84","3","prime1","right","","","",""
"html-keyboard-response","231","689902","0.0-4.0-1.0-3.35","uraug36g6yddvu6","prime","5f4faaa78d88ed0955209226","5f60e3c0a3b16e07647b2ff9","5f61dbf590e12618dc2e9753","false","null","<div style=""align-items: center; display: flex; color: dodgerblue; font-size: 90px""><b>o</b></div>","null","","","","forget_cue","","","","","","","","","","","","","","","",""
"html-keyboard-response","232","690604","0.0-4.0-1.0-0.36","uraug36g6yddvu6","prime","5f4faaa78d88ed0955209226","5f60e3c0a3b16e07647b2ff9","5f61dbf590e12618dc2e9753","false","null","<span style=""color: black; font-size: 48px"">M + N</span>","null","","","","resp_prompt","","","","","","","","","","","","","","","",""
"categorize-image","233","691153","0.0-4.0-1.0-1.36","uraug36g6yddvu6","prime","5f4faaa78d88ed0955209226","5f60e3c0a3b16e07647b2ff9","5f61dbf590e12618dc2e9753","true","544.5399999999208","./Stimuli/SelectedImages/LM/LM59.bmp","83","","","","test","true","M + N","83","repetition","LM","LM59.bmp","remember","","85","3","prime1","left","","","",""
"html-keyboard-response","234","693153","0.0-4.0-1.0-3.36","uraug36g6yddvu6","prime","5f4faaa78d88ed0955209226","5f60e3c0a3b16e07647b2ff9","5f61dbf590e12618dc2e9753","false","null","<div style=""align-items: center; display: flex; color: dodgerblue; font-size: 90px""><b>o</b></div>","null","","","","forget_cue","","","","","","","","","","","","","","","",""
"html-keyboard-response","235","693855","0.0-4.0-1.0-0.37","uraug36g6yddvu6","prime","5f4faaa78d88ed0955209226","5f60e3c0a3b16e07647b2ff9","5f61dbf590e12618dc2e9753","false","null","<span style=""color: black; font-size: 48px"">M + N</span>","null","","","","resp_prompt","","","","","","","","","","","","","","","",""
"categorize-image","236","694575","0.0-4.0-1.0-1.37","uraug36g6yddvu6","prime","5f4faaa78d88ed0955209226","5f60e3c0a3b16e07647b2ff9","5f61dbf590e12618dc2e9753","true","716.5199999999022","./Stimuli/SelectedImages/LM/LM57.bmp","83","","","","test","true","M + N","83","switch","LM","LM57.bmp","remember","","86","3","prime1","left","","","",""
"html-keyboard-response","237","696576","0.0-4.0-1.0-3.37","uraug36g6yddvu6","prime","5f4faaa78d88ed0955209226","5f60e3c0a3b16e07647b2ff9","5f61dbf590e12618dc2e9753","false","null","<div style=""align-items: center; display: flex; color: dodgerblue; font-size: 90px""><b>o</b></div>","null","","","","forget_cue","","","","","","","","","","","","","","","",""
"html-keyboard-response","238","697277","0.0-4.0-1.0-0.38","uraug36g6yddvu6","prime","5f4faaa78d88ed0955209226","5f60e3c0a3b16e07647b2ff9","5f61dbf590e12618dc2e9753","false","null","<span style=""color: black; font-size: 48px"">N + M</span>","null","","","","resp_prompt","","","","","","","","","","","","","","","",""
"categorize-image","239","698137","0.0-4.0-1.0-1.38","uraug36g6yddvu6","prime","5f4faaa78d88ed0955209226","5f60e3c0a3b16e07647b2ff9","5f61dbf590e12618dc2e9753","true","857.4200000002747","./Stimuli/SelectedImages/SN/SN181.bmp","83","","","","test","true","N + M","83","switch","SN","SN181.bmp","forget","","87","3","prime1","left","","","",""
"html-keyboard-response","240","700139","0.0-4.0-1.0-3.38","uraug36g6yddvu6","prime","5f4faaa78d88ed0955209226","5f60e3c0a3b16e07647b2ff9","5f61dbf590e12618dc2e9753","false","null","<div style=""align-items: center; display: flex; color: darkorange; font-size: 90px""><b>ø</b></div>","null","","","","forget_cue","","","","","","","","","","","","","","","",""
"html-keyboard-response","241","700841","0.0-4.0-1.0-0.39","uraug36g6yddvu6","prime","5f4faaa78d88ed0955209226","5f60e3c0a3b16e07647b2ff9","5f61dbf590e12618dc2e9753","false","null","<span style=""color: black; font-size: 48px"">N + M</span>","null","","","","resp_prompt","","","","","","","","","","","","","","","",""
"categorize-image","242","701548","0.0-4.0-1.0-1.39","uraug36g6yddvu6","prime","5f4faaa78d88ed0955209226","5f60e3c0a3b16e07647b2ff9","5f61dbf590e12618dc2e9753","true","704.8699999996461","./Stimuli/SelectedImages/SN/SN187.bmp","83","","","","test","true","N + M","83","repetition","SN","SN187.bmp","remember","","88","3","prime1","left","","","",""
"html-keyboard-response","243","703551","0.0-4.0-1.0-3.39","uraug36g6yddvu6","prime","5f4faaa78d88ed0955209226","5f60e3c0a3b16e07647b2ff9","5f61dbf590e12618dc2e9753","false","null","<div style=""align-items: center; display: flex; color: dodgerblue; font-size: 90px""><b>o</b></div>","null","","","","forget_cue","","","","","","","","","","","","","","","",""
"html-keyboard-response","244","704253","0.0-4.0-1.0-0.40","uraug36g6yddvu6","prime","5f4faaa78d88ed0955209226","5f60e3c0a3b16e07647b2ff9","5f61dbf590e12618dc2e9753","false","null","<span style=""color: black; font-size: 48px"">M + N</span>","null","","","","resp_prompt","","","","","","","","","","","","","","","",""
"categorize-image","245","704927","0.0-4.0-1.0-1.40","uraug36g6yddvu6","prime","5f4faaa78d88ed0955209226","5f60e3c0a3b16e07647b2ff9","5f61dbf590e12618dc2e9753","true","671.4549999997253","./Stimuli/SelectedImages/SM/SM17.bmp","83","","","","test","true","M + N","83","repetition","SM","SM17.bmp","forget","","89","3","prime1","left","","","",""
"html-keyboard-response","246","706927","0.0-4.0-1.0-3.40","uraug36g6yddvu6","prime","5f4faaa78d88ed0955209226","5f60e3c0a3b16e07647b2ff9","5f61dbf590e12618dc2e9753","false","null","<div style=""align-items: center; display: flex; color: darkorange; font-size: 90px""><b>ø</b></div>","null","","","","forget_cue","","","","","","","","","","","","","","","",""
"html-keyboard-response","247","707629","0.0-4.0-1.0-0.41","uraug36g6yddvu6","prime","5f4faaa78d88ed0955209226","5f60e3c0a3b16e07647b2ff9","5f61dbf590e12618dc2e9753","false","null","<span style=""color: black; font-size: 48px"">N + M</span>","null","","","","resp_prompt","","","","","","","","","","","","","","","",""
"categorize-image","248","708578","0.0-4.0-1.0-1.41","uraug36g6yddvu6","prime","5f4faaa78d88ed0955209226","5f60e3c0a3b16e07647b2ff9","5f61dbf590e12618dc2e9753","true","945.1750000007451","./Stimuli/SelectedImages/SM/SM73.bmp","76","","","","test","true","N + M","76","repetition","SM","SM73.bmp","forget","","90","3","prime1","right","","","",""
"html-keyboard-response","249","710579","0.0-4.0-1.0-3.41","uraug36g6yddvu6","prime","5f4faaa78d88ed0955209226","5f60e3c0a3b16e07647b2ff9","5f61dbf590e12618dc2e9753","false","null","<div style=""align-items: center; display: flex; color: darkorange; font-size: 90px""><b>ø</b></div>","null","","","","forget_cue","","","","","","","","","","","","","","","",""
"html-keyboard-response","250","711280","0.0-4.0-1.0-0.42","uraug36g6yddvu6","prime","5f4faaa78d88ed0955209226","5f60e3c0a3b16e07647b2ff9","5f61dbf590e12618dc2e9753","false","null","<span style=""color: black; font-size: 48px"">N + M</span>","null","","","","resp_prompt","","","","","","","","","","","","","","","",""
"categorize-image","251","712432","0.0-4.0-1.0-1.42","uraug36g6yddvu6","prime","5f4faaa78d88ed0955209226","5f60e3c0a3b16e07647b2ff9","5f61dbf590e12618dc2e9753","true","1147.8299999998417","./Stimuli/SelectedImages/LN/LN131.bmp","83","","","","test","true","N + M","83","switch","LN","LN131.bmp","remember","","91","3","prime1","left","","","",""
"html-keyboard-response","252","714432","0.0-4.0-1.0-3.42","uraug36g6yddvu6","prime","5f4faaa78d88ed0955209226","5f60e3c0a3b16e07647b2ff9","5f61dbf590e12618dc2e9753","false","null","<div style=""align-items: center; display: flex; color: dodgerblue; font-size: 90px""><b>o</b></div>","null","","","","forget_cue","","","","","","","","","","","","","","","",""
"html-keyboard-response","253","715134","0.0-4.0-1.0-0.43","uraug36g6yddvu6","prime","5f4faaa78d88ed0955209226","5f60e3c0a3b16e07647b2ff9","5f61dbf590e12618dc2e9753","false","null","<span style=""color: black; font-size: 48px"">N + M</span>","null","","","","resp_prompt","","","","","","","","","","","","","","","",""
