"trial_type","trial_index","time_elapsed","internal_node_id","subject","exp_part","prolific_PID","study_ID","session_ID","use","rt","stimulus","key_press","button_pressed","responses","question_order","trial_part","correct","resp_map","correct_resp","probe_condition","category","image","forget_condition","list","trial_num","block_num","block","response","test_part","n_span","sequence","num_spaces"
"pavlovia","0","3","0.0-0.0","xqlaokmoxe9hhdm","","5f4f9ec28ba701071f985ba3","5f60e3c0a3b16e07647b2ff9","5f638023f46b71066172e548","false","","","","","","","","","","","","","","","","","","","","","","",""
"html-keyboard-response","1","16179","0.0-1.0-0.0-0.0","xqlaokmoxe9hhdm","welcome","5f4f9ec28ba701071f985ba3","5f60e3c0a3b16e07647b2ff9","5f638023f46b71066172e548","false","16174.800000007963","<div align=left>Dear participant, <br> thank you for participating in an online study of the Cognition, Action, and Sustainability Unit of the University of Freiburg! <br> <br>The aim of this study is to examine our ability to remember previously learned information. <br>Our goal is to find out, whether our memory improves, when we only remember information that is relevant to us. <br>The experiment will take about 35 minutes to complete. <br> <br>Please, note that you can only participate in this study if you are using a device with a keyboard (PC, Laptop etc.) <br>and not if you are using a mobile device such as a tablet or smartphone.<br> <br>Press 'SPACE' to proceed to the experiment. </div>","32","","","","","","","","","","","","","","","","","","","",""
"html-keyboard-response","2","35656","0.0-1.0-0.0-1.0","xqlaokmoxe9hhdm","welcome","5f4f9ec28ba701071f985ba3","5f60e3c0a3b16e07647b2ff9","5f638023f46b71066172e548","false","19475.820000021486","<div align=left><strong> Time Course of this experiment: </strong> <br><br> <strong> 1.</strong>  First, please fill in some information regarding your demographic data. <br><br> <strong> 2.</strong>  Next, your task will be to classify everyday objects. <br>In addition, you will be asked to remember certain objects and recall them later. <br>Working on these tasks requires your undivided attention and concentration.<br>It is therefore essential that you eliminate any sources of distraction in your  <br>environment and ensure that you will not be disturbed. <br><br><strong> 3.</strong>  At the end of the experiment, you will be asked to answer a few additional questions. <br> <br><strong> Important:</strong> After finishing the experiment, only close the browser window <br> by clicking on the 'end the experiment'-button when you are asked to do so. <br>Closing the browser window prematurely will make the allocation of your participation credit impossible. <br><br> Press 'SPACE' to start the experiment. </div>","32","","","","","","","","","","","","","","","","","","","",""
"html-button-response","3","56026","0.0-1.0-0.0-2.0","xqlaokmoxe9hhdm","welcome","5f4f9ec28ba701071f985ba3","5f60e3c0a3b16e07647b2ff9","5f638023f46b71066172e548","true","20367.50999998185","<div align=left><strong> Informed consent </strong>  <br>The aim of our research is to better understand human behavior and mental processes. <br>In the following study your behavior (e.g. choices, reaction times) will be studied. <br> <br><strong> Voluntariness and Anonymity </strong> <br>Your participation in this study is  <strong> voluntary</strong>.<br>You may withdraw your consent to participate at any time without providing a reason for doing so and without fear of prejudice. <br><br>As no personal data will be collected, <strong>your data and your person cannot be connected after data collection</strong> – the data-set is anonymous. <br>Respectively, deletion of your data will not be possible after data collection has been completed, as we cannot retrace your data-set.<br>The results and anonymized data collected in this study will be published as a scientific publication. <br>This will happen in an <strong>anonymized format</strong>, so that no data can be traced back to a specific person. <br> <br>The anonymized data of this study will be made available to other researchers and/or in a data archive on the Internet as a means of transparency and to enable subsequent re-use. By doing so, this study follows the recommendations of the Deutsche Forschungsgemeinschaft (DFG, German Research Foundation) and Deutsche Gesellschaft für Psychologie (DGPS, German Psychological Society) regarding quality assurance in research.<br>If you have any questions now or after the experiment, please contact our team (experiments@cs.uni-freiburg.de).<br><br><br>I hereby declare, that I understand the above described conditions of participation and I agree to participate under these conditions. <br><br> </div>","","0","","","","","","","","","","","","","","","","","","",""
"html-keyboard-response","4","83458","0.0-1.0-0.0-3.0","xqlaokmoxe9hhdm","welcome","5f4f9ec28ba701071f985ba3","5f60e3c0a3b16e07647b2ff9","5f638023f46b71066172e548","false","27429.9099999771","<div align=left><strong> General information concerning the experiment </strong>  <br> <br>Please follow the instructions:<ol> <li><strong> Do not leave this tab (your browser window) during the experiment and do not reload this tab! </strong>  <br>If you do switch tabs/windows during the experiment (to check your mail or visit another website, for example), <br>the experiment will end automatically and you will <strong>not receive credit</strong> for your participation. <br>Repeated participation or resumption of the experiment is impossible.</li> <br><li>Please close all other programs for the duration of your participation. </li> <br><li>Please mute or turn off your phone and put it out of your reach. </li> <br><li>Please also take off any disturbing accessories (such as wristwatches, bracelets, etc.). </li> <br><li>If you have music playing in the background, please turn it off now. </li> <br></ol>Thank you! <br>Press 'SPACE' to continue. </div>","32","","","","","","","","","","","","","","","","","","","",""
"survey-text","5","88414","0.0-1.0-1.0-0.0","xqlaokmoxe9hhdm","demographics","5f4f9ec28ba701071f985ba3","5f60e3c0a3b16e07647b2ff9","5f638023f46b71066172e548","true","4953.509999992093","","","","{""age"":""27""}","","","","","","","","","","","","","","","","","",""
"survey-multi-choice","6","126086","0.0-1.0-1.0-1.0","xqlaokmoxe9hhdm","demographics","5f4f9ec28ba701071f985ba3","5f60e3c0a3b16e07647b2ff9","5f638023f46b71066172e548","true","37669.82000001008","","","","{""gender"":""female"",""school"":""high school"",""education"":""Completed university degree or equivalent""}","[0,1,2]","","","","","","","","","","","","","","","","",""
"html-keyboard-response","7","143729","0.0-1.0-2.0","xqlaokmoxe9hhdm","instructions","5f4f9ec28ba701071f985ba3","5f60e3c0a3b16e07647b2ff9","5f638023f46b71066172e548","false","17639.44500000798","<div align=left> The experiment is now about to start: <br> <br>In the following part, you will be presented pictures of everyday objects. <br>Your first task is to <strong>classify these objects. </strong> <br> <br> You will classify them either as mechanical or non-mechanical objects. <br> <br>Objects that include any kind of technical mechanism (for example, wheels, switches, levers, <br> electronic components) fall under the category of <strong>mechanical</strong> objects. <br>Only objects without any kind of technical mechanism should be classified as <strong>non-mechanical</strong>. <br><br>Press 'SPACE' to continue. </div>","32","","","","","","","","","","","","","","","","","","","",""
"html-keyboard-response","8","212627","0.0-2.0-0.0","xqlaokmoxe9hhdm","instructions","5f4f9ec28ba701071f985ba3","5f60e3c0a3b16e07647b2ff9","5f638023f46b71066172e548","false","68897.3550000228","<div align=justify>You will classify the objects using the <strong>'S'</strong> and the <strong>'L'</strong> keys on your keyboard.<br>For doing so, please place your <strong>left index finger</strong> on the <strong>'S'</strong> key and place your <strong>right index finger</strong> on the <strong>'L'</strong> key. <br><br> Each trial starts with an instruction, indicating which key ('S'/'L') you need to press to classify <br>the object as mechanical (letter M) or non-mechanical (letter N).<br>The instruction <strong>M + N</strong> indicates that, in the current trial, by pressing the left key ('S') you classify the displayed object as mechanical (M) <br> and by pressing the right key ('L') you classify the object as non-mechanical (N). <br>The instruction <strong>N + M</strong> on the other hand indicates that by pressing the left key ('S') you classify the displayed object as non-mechanical (N) <br> and by pressing the right key ('L') you classify the object as mechanical (M). <br><br>Please press the key corresponding to the correct classification as fast as possible as soon as the object is displayed and try to avoid making mistakes.<br>If you do not respond within a 2 second window, a corresponding feedback will be displayed and the next trial will start.<br> The experiment is divided into multiple blocks to give you the opportunity to take a break after each block. <br>First, you can now practice this task. <br><br>Please place your <strong>LEFT INDEX FINGER</strong> on the 'S' key and your <strong>RIGHT INDEX FINGER</strong> on the 'L' key now. <br><br>Press SPACE to continue.</div>","32","","","","","","","","","","","","","","","","","","","",""
"html-keyboard-response","9","230862","0.0-2.0-1.0","xqlaokmoxe9hhdm","instructions","5f4f9ec28ba701071f985ba3","5f60e3c0a3b16e07647b2ff9","5f638023f46b71066172e548","false","18233.85000001872","<div align=left> You will now have time to practice this task.<br><br>Remember: <br> <br><li>Please place your index fingers on the <strong>'S'</strong> and <strong>'L'</strong> keys <br>to respond as fast and accurately as possible.</li><li>Every picture can be classified as either mechanical or non-mechanical.</li><li>If you do not respond in time or commit an error, you will receive a corresponding feedback. </li><li> Please try to respond as <strong> fast </strong> and as <strong> accurately as possible </strong> .<br><li>To ensure optimal results, please minimize distractions and stay focused. </li><br><br>Press SPACE to continue.</div>","32","","","","","","","","","","","","","","","","","","","",""
"html-keyboard-response","10","231568","0.0-2.0-2.0-0.0","xqlaokmoxe9hhdm","practice_no_cue","5f4f9ec28ba701071f985ba3","5f60e3c0a3b16e07647b2ff9","5f638023f46b71066172e548","false","null","<span style=""color: black; font-size: 48px"">N + M</span>","null","","","","resp_prompt","","","","","","","","","","","","","","","",""
"categorize-image","11","233014","0.0-2.0-2.0-1.0","xqlaokmoxe9hhdm","practice_no_cue","5f4f9ec28ba701071f985ba3","5f60e3c0a3b16e07647b2ff9","5f638023f46b71066172e548","true","940.1950000028592","./Stimuli/ImagesPractice/SN220.jpg","76","","","","test","false","N + M","83","","SN","SN220.jpg","forget","old","1","1","start","right","","","",""
"html-keyboard-response","12","233717","0.0-2.0-2.0-0.1","xqlaokmoxe9hhdm","practice_no_cue","5f4f9ec28ba701071f985ba3","5f60e3c0a3b16e07647b2ff9","5f638023f46b71066172e548","false","null","<span style=""color: black; font-size: 48px"">M + N</span>","null","","","","resp_prompt","","","","","","","","","","","","","","","",""
"categorize-image","13","235801","0.0-2.0-2.0-1.1","xqlaokmoxe9hhdm","practice_no_cue","5f4f9ec28ba701071f985ba3","5f60e3c0a3b16e07647b2ff9","5f638023f46b71066172e548","true","1577.2700000088662","./Stimuli/ImagesPractice/LM55.jpg","83","","","","test","true","M + N","83","","LM","LM55.jpg","remember","old","2","1","start","left","","","",""
"html-keyboard-response","14","236503","0.0-2.0-2.0-0.2","xqlaokmoxe9hhdm","practice_no_cue","5f4f9ec28ba701071f985ba3","5f60e3c0a3b16e07647b2ff9","5f638023f46b71066172e548","false","null","<span style=""color: black; font-size: 48px"">M + N</span>","null","","","","resp_prompt","","","","","","","","","","","","","","","",""
"categorize-image","15","238164","0.0-2.0-2.0-1.2","xqlaokmoxe9hhdm","practice_no_cue","5f4f9ec28ba701071f985ba3","5f60e3c0a3b16e07647b2ff9","5f638023f46b71066172e548","true","1158.1550000119023","./Stimuli/ImagesPractice/LN109.jpg","76","","","","test","true","M + N","76","","LN","LN109.jpg","forget","old","3","1","start","right","","","",""
"html-keyboard-response","16","238866","0.0-2.0-2.0-0.3","xqlaokmoxe9hhdm","practice_no_cue","5f4f9ec28ba701071f985ba3","5f60e3c0a3b16e07647b2ff9","5f638023f46b71066172e548","false","null","<span style=""color: black; font-size: 48px"">N + M</span>","null","","","","resp_prompt","","","","","","","","","","","","","","","",""
"categorize-image","17","240398","0.0-2.0-2.0-1.3","xqlaokmoxe9hhdm","practice_no_cue","5f4f9ec28ba701071f985ba3","5f60e3c0a3b16e07647b2ff9","5f638023f46b71066172e548","true","1025.629999989178","./Stimuli/ImagesPractice/LM147.jpg","76","","","","test","true","N + M","76","","LM","LM147.jpg","forget","old","4","1","start","right","","","",""
"html-keyboard-response","18","241103","0.0-2.0-2.0-0.4","xqlaokmoxe9hhdm","practice_no_cue","5f4f9ec28ba701071f985ba3","5f60e3c0a3b16e07647b2ff9","5f638023f46b71066172e548","false","null","<span style=""color: black; font-size: 48px"">N + M</span>","null","","","","resp_prompt","","","","","","","","","","","","","","","",""
"categorize-image","19","242958","0.0-2.0-2.0-1.4","xqlaokmoxe9hhdm","practice_no_cue","5f4f9ec28ba701071f985ba3","5f60e3c0a3b16e07647b2ff9","5f638023f46b71066172e548","true","1351.8500000063796","./Stimuli/ImagesPractice/SN76.jpg","83","","","","test","true","N + M","83","","SN","SN76.jpg","forget","old","5","1","start","left","","","",""
"html-keyboard-response","20","243660","0.0-2.0-2.0-0.5","xqlaokmoxe9hhdm","practice_no_cue","5f4f9ec28ba701071f985ba3","5f60e3c0a3b16e07647b2ff9","5f638023f46b71066172e548","false","null","<span style=""color: black; font-size: 48px"">M + N</span>","null","","","","resp_prompt","","","","","","","","","","","","","","","",""
"categorize-image","21","245425","0.0-2.0-2.0-1.5","xqlaokmoxe9hhdm","practice_no_cue","5f4f9ec28ba701071f985ba3","5f60e3c0a3b16e07647b2ff9","5f638023f46b71066172e548","true","1263.249999989057","./Stimuli/ImagesPractice/LN15.jpg","76","","","","test","true","M + N","76","","LN","LN15.jpg","remember","old","6","1","start","right","","","",""
"html-keyboard-response","22","246128","0.0-2.0-2.0-0.6","xqlaokmoxe9hhdm","practice_no_cue","5f4f9ec28ba701071f985ba3","5f60e3c0a3b16e07647b2ff9","5f638023f46b71066172e548","false","null","<span style=""color: black; font-size: 48px"">M + N</span>","null","","","","resp_prompt","","","","","","","","","","","","","","","",""
"categorize-image","23","247585","0.0-2.0-2.0-1.6","xqlaokmoxe9hhdm","practice_no_cue","5f4f9ec28ba701071f985ba3","5f60e3c0a3b16e07647b2ff9","5f638023f46b71066172e548","true","954.0449999913108","./Stimuli/ImagesPractice/SN205.jpg","76","","","","test","true","M + N","76","","SN","SN205.jpg","remember","old","7","1","start","right","","","",""
"html-keyboard-response","24","248287","0.0-2.0-2.0-0.7","xqlaokmoxe9hhdm","practice_no_cue","5f4f9ec28ba701071f985ba3","5f60e3c0a3b16e07647b2ff9","5f638023f46b71066172e548","false","null","<span style=""color: black; font-size: 48px"">N + M</span>","null","","","","resp_prompt","","","","","","","","","","","","","","","",""
"categorize-image","25","249778","0.0-2.0-2.0-1.7","xqlaokmoxe9hhdm","practice_no_cue","5f4f9ec28ba701071f985ba3","5f60e3c0a3b16e07647b2ff9","5f638023f46b71066172e548","true","987.1899999852758","./Stimuli/ImagesPractice/LN4.jpg","83","","","","test","true","N + M","83","","LN","LN4.jpg","remember","old","8","1","start","left","","","",""
"html-keyboard-response","26","250482","0.0-2.0-2.0-0.8","xqlaokmoxe9hhdm","practice_no_cue","5f4f9ec28ba701071f985ba3","5f60e3c0a3b16e07647b2ff9","5f638023f46b71066172e548","false","null","<span style=""color: black; font-size: 48px"">N + M</span>","null","","","","resp_prompt","","","","","","","","","","","","","","","",""
"categorize-image","27","252357","0.0-2.0-2.0-1.8","xqlaokmoxe9hhdm","practice_no_cue","5f4f9ec28ba701071f985ba3","5f60e3c0a3b16e07647b2ff9","5f638023f46b71066172e548","true","1369.1650000109803","./Stimuli/ImagesPractice/SM61.jpg","76","","","","test","true","N + M","76","","SM","SM61.jpg","forget","old","9","1","start","right","","","",""
"html-keyboard-response","28","253059","0.0-2.0-2.0-0.9","xqlaokmoxe9hhdm","practice_no_cue","5f4f9ec28ba701071f985ba3","5f60e3c0a3b16e07647b2ff9","5f638023f46b71066172e548","false","null","<span style=""color: black; font-size: 48px"">N + M</span>","null","","","","resp_prompt","","","","","","","","","","","","","","","",""
"categorize-image","29","254406","0.0-2.0-2.0-1.9","xqlaokmoxe9hhdm","practice_no_cue","5f4f9ec28ba701071f985ba3","5f60e3c0a3b16e07647b2ff9","5f638023f46b71066172e548","true","840.9350000147242","./Stimuli/ImagesPractice/SM98.jpg","76","","","","test","true","N + M","76","","SM","SM98.jpg","remember","old","10","1","start","right","","","",""
"html-keyboard-response","30","255113","0.0-2.0-2.0-0.10","xqlaokmoxe9hhdm","practice_no_cue","5f4f9ec28ba701071f985ba3","5f60e3c0a3b16e07647b2ff9","5f638023f46b71066172e548","false","null","<span style=""color: black; font-size: 48px"">M + N</span>","null","","","","resp_prompt","","","","","","","","","","","","","","","",""
"categorize-image","31","257055","0.0-2.0-2.0-1.10","xqlaokmoxe9hhdm","practice_no_cue","5f4f9ec28ba701071f985ba3","5f60e3c0a3b16e07647b2ff9","5f638023f46b71066172e548","true","1438.9499999815598","./Stimuli/ImagesPractice/LM224.jpg","83","","","","test","true","M + N","83","","LM","LM224.jpg","forget","old","11","1","start","left","","","",""
"html-keyboard-response","32","257758","0.0-2.0-2.0-0.11","xqlaokmoxe9hhdm","practice_no_cue","5f4f9ec28ba701071f985ba3","5f60e3c0a3b16e07647b2ff9","5f638023f46b71066172e548","false","null","<span style=""color: black; font-size: 48px"">N + M</span>","null","","","","resp_prompt","","","","","","","","","","","","","","","",""
"categorize-image","33","259218","0.0-2.0-2.0-1.11","xqlaokmoxe9hhdm","practice_no_cue","5f4f9ec28ba701071f985ba3","5f60e3c0a3b16e07647b2ff9","5f638023f46b71066172e548","true","956.5300000249408","./Stimuli/ImagesPractice/LM230.jpg","76","","","","test","true","N + M","76","","LM","LM230.jpg","remember","old","12","1","start","right","","","",""
"html-keyboard-response","34","259920","0.0-2.0-2.0-0.12","xqlaokmoxe9hhdm","practice_no_cue","5f4f9ec28ba701071f985ba3","5f60e3c0a3b16e07647b2ff9","5f638023f46b71066172e548","false","null","<span style=""color: black; font-size: 48px"">M + N</span>","null","","","","resp_prompt","","","","","","","","","","","","","","","",""
"categorize-image","35","261200","0.0-2.0-2.0-1.12","xqlaokmoxe9hhdm","practice_no_cue","5f4f9ec28ba701071f985ba3","5f60e3c0a3b16e07647b2ff9","5f638023f46b71066172e548","true","778.5799999837764","./Stimuli/ImagesPractice/SN222.jpg","76","","","","test","true","M + N","76","","SN","SN222.jpg","remember","old","13","1","start","right","","","",""
"html-keyboard-response","36","261905","0.0-2.0-2.0-0.13","xqlaokmoxe9hhdm","practice_no_cue","5f4f9ec28ba701071f985ba3","5f60e3c0a3b16e07647b2ff9","5f638023f46b71066172e548","false","null","<span style=""color: black; font-size: 48px"">M + N</span>","null","","","","resp_prompt","","","","","","","","","","","","","","","",""
"categorize-image","37","263252","0.0-2.0-2.0-1.13","xqlaokmoxe9hhdm","practice_no_cue","5f4f9ec28ba701071f985ba3","5f60e3c0a3b16e07647b2ff9","5f638023f46b71066172e548","true","843.0649999936577","./Stimuli/ImagesPractice/SN75.jpg","76","","","","test","true","M + N","76","","SN","SN75.jpg","forget","old","14","1","start","right","","","",""
"html-keyboard-response","38","263955","0.0-2.0-2.0-0.14","xqlaokmoxe9hhdm","practice_no_cue","5f4f9ec28ba701071f985ba3","5f60e3c0a3b16e07647b2ff9","5f638023f46b71066172e548","false","null","<span style=""color: black; font-size: 48px"">M + N</span>","null","","","","resp_prompt","","","","","","","","","","","","","","","",""
"categorize-image","39","265307","0.0-2.0-2.0-1.14","xqlaokmoxe9hhdm","practice_no_cue","5f4f9ec28ba701071f985ba3","5f60e3c0a3b16e07647b2ff9","5f638023f46b71066172e548","true","848.5949999885634","./Stimuli/ImagesPractice/SN221.jpg","76","","","","test","true","M + N","76","","SN","SN221.jpg","forget","old","15","1","start","right","","","",""
"html-keyboard-response","40","266013","0.0-2.0-2.0-0.15","xqlaokmoxe9hhdm","practice_no_cue","5f4f9ec28ba701071f985ba3","5f60e3c0a3b16e07647b2ff9","5f638023f46b71066172e548","false","null","<span style=""color: black; font-size: 48px"">N + M</span>","null","","","","resp_prompt","","","","","","","","","","","","","","","",""
"categorize-image","41","267263","0.0-2.0-2.0-1.15","xqlaokmoxe9hhdm","practice_no_cue","5f4f9ec28ba701071f985ba3","5f60e3c0a3b16e07647b2ff9","5f638023f46b71066172e548","true","744.6399999898858","./Stimuli/ImagesPractice/SM97.jpg","76","","","","test","true","N + M","76","","SM","SM97.jpg","remember","old","16","1","start","right","","","",""
"html-keyboard-response","42","279328","0.0-2.0-3.0","xqlaokmoxe9hhdm","break","5f4f9ec28ba701071f985ba3","5f60e3c0a3b16e07647b2ff9","5f638023f46b71066172e548","false","12063.180000026478","<p style='font-size: 32px;'>Break</><br><br><br><br><br><p style='font-size: 24px;'>In the last block, you committed 1 errors and did not respond in time on 0 trials.
</p><p style='font-size: 24px;'>Try to respond as fast and accurately as possible in the next block as well! </p><p style='font-size: 24px;'>Press SPACE to continue.</p>","32","","","","","","","","","","","","","","","","","","","",""
"html-keyboard-response","43","284354","0.0-2.0-4.0","xqlaokmoxe9hhdm","instructions","5f4f9ec28ba701071f985ba3","5f60e3c0a3b16e07647b2ff9","5f638023f46b71066172e548","false","5024.760000000242","<div align=left> Great!<br><br>Are you ready to continue?<br><br>If you want to reread the instructions and redo the practice trials, <br>please press „Z“. <br><br>Press SPACE to CONTINUE with the experiment when you are ready. </div>","32","","","","","","","","","","","","","","","","","","","",""
"html-keyboard-response","44","319740","0.0-3.0-0.0","xqlaokmoxe9hhdm","instructions","5f4f9ec28ba701071f985ba3","5f60e3c0a3b16e07647b2ff9","5f638023f46b71066172e548","false","35384.2949999962","<div align=left>Great!<br> <strong>Attention</strong>! You will now receive a second, additional task! <br><br>To this point it was you <strong>first task</strong> to correctly <strong>classify objects</strong>. <br><br>As mentioned in the beginning, we aim to examine how well humans can remember previously learned information.<br>We would like to find out whether our memory improves if we only remember information that is relevant to us. <br><br>Therefore, your <strong>second task</strong> will be to <strong>remember</strong> the pictures you are to categorize. <br> After the learning phase, there will be a memory test phase, in which you will be asked to indicate whether you have seen a picture before or not. <br>Some, but not all pictures shown in the learning phase will appear in the memory test phase.<br>After classifying a picture, you will be told whether you should remember it for the memory test phase or not. <br>Thus, some pictures can be forgotten, whereas others have to be remembered. <br><br>Note: From now on, feedback will only be displayed if you responded incorrectly or not in time.<br><br>Press SPACE to continue.</div>","32","","","","","","","","","","","","","","","","","","","",""
"html-keyboard-response","45","342617","0.0-3.0-1.0","xqlaokmoxe9hhdm","instructions","5f4f9ec28ba701071f985ba3","5f60e3c0a3b16e07647b2ff9","5f638023f46b71066172e548","false","22876.324999990175","<div align=left>In the following part, you will thus have to remember only some pictures. <br>Immediately after seeing and classifying the picture, a symbol will be displayed, indicating whether you should remember or forget the previous picture. <br><br>A <span style='color: dodgerblue; font-size: 28px'>O</span> indicates REMEMBER. That means, you have to remember this picture, because it will be tested later. <br><br>A <span style='color: darkorange; font-size:28px'>Ø</span> indicates FORGET. You do not have to remember this picture. <br><br> As you will have to remember a lot of pictures, it will be hard for you to remember all of them. <br>It will put you at an advantage if you instantly forget the pictures you are not asked to remember. <br> This will make it easier for you to remember the pictures that will be tested afterwards. <br><br>Press SPACE to continue.</div>","32","","","","","","","","","","","","","","","","","","","",""
"html-keyboard-response","46","351558","0.0-3.0-2.0","xqlaokmoxe9hhdm","instructions","5f4f9ec28ba701071f985ba3","5f60e3c0a3b16e07647b2ff9","5f638023f46b71066172e548","false","8939.855000004172","<div align=left> Now you have the chance to practice both tasks together.<br><br>Remember: <br> <br><li>Please place your index fingers on the <strong>'S'</strong> and <strong>'L'</strong> keys <br>to respond as fast and accurately as possible.</li><li>Every picture can be classified as either mechanical or non-mechanical.</li><li>If you do not respond in time or commit an error, you will receive a corresponding feedback. <br>Please try to respond as <strong> fast </strong> and as <strong> accurately as possible </strong>.</li><li> Please remember only the to-be-remembered <span style='color: dodgerblue; font-size: 28px'>O</span> pictures. <br></li><li> Please minimize distractions and stay focused. </li><br><br>Press SPACE to START</div>","32","","","","","","","","","","","","","","","","","","","",""
"html-keyboard-response","47","352261","0.0-3.0-3.0-0.0","xqlaokmoxe9hhdm","practice_cue","5f4f9ec28ba701071f985ba3","5f60e3c0a3b16e07647b2ff9","5f638023f46b71066172e548","false","null","<span style=""color: black; font-size: 48px"">N + M</span>","null","","","","resp_prompt","","","","","","","","","","","","","","","",""
"categorize-image","48","353263","0.0-3.0-3.0-1.0","xqlaokmoxe9hhdm","practice_cue","5f4f9ec28ba701071f985ba3","5f60e3c0a3b16e07647b2ff9","5f638023f46b71066172e548","true","998.3350000111386","./Stimuli/ImagesPractice/SM61.jpg","83","","","","test","false","N + M","76","","SM","SM61.jpg","forget","old","17","2","practice_forget","left","","","",""
"html-keyboard-response","49","353765","0.0-3.0-3.0-2.0-0.0","xqlaokmoxe9hhdm","practice_cue","5f4f9ec28ba701071f985ba3","5f60e3c0a3b16e07647b2ff9","5f638023f46b71066172e548","false","null","<span style=""color: red; font-size: 48px"">Error!</span>","null","","","","feedback","","","","","","","","","","","","","","","",""
"html-keyboard-response","50","355767","0.0-3.0-3.0-3.0","xqlaokmoxe9hhdm","practice_cue","5f4f9ec28ba701071f985ba3","5f60e3c0a3b16e07647b2ff9","5f638023f46b71066172e548","false","null","<div style=""align-items: center; display: flex; color: darkorange; font-size: 90px""><b>ø</b></div>","null","","","","forget_cue","","","","","","","","","","","","","","","",""
"html-keyboard-response","51","356469","0.0-3.0-3.0-0.1","xqlaokmoxe9hhdm","practice_cue","5f4f9ec28ba701071f985ba3","5f60e3c0a3b16e07647b2ff9","5f638023f46b71066172e548","false","null","<span style=""color: black; font-size: 48px"">N + M</span>","null","","","","resp_prompt","","","","","","","","","","","","","","","",""
"categorize-image","52","357511","0.0-3.0-3.0-1.1","xqlaokmoxe9hhdm","practice_cue","5f4f9ec28ba701071f985ba3","5f60e3c0a3b16e07647b2ff9","5f638023f46b71066172e548","true","1038.7749999936204","./Stimuli/ImagesPractice/SM97.jpg","76","","","","test","true","N + M","76","","SM","SM97.jpg","remember","old","18","2","practice_forget","right","","","",""
"html-keyboard-response","53","359516","0.0-3.0-3.0-3.1","xqlaokmoxe9hhdm","practice_cue","5f4f9ec28ba701071f985ba3","5f60e3c0a3b16e07647b2ff9","5f638023f46b71066172e548","false","null","<div style=""align-items: center; display: flex; color: dodgerblue; font-size: 90px""><b>o</b></div>","null","","","","forget_cue","","","","","","","","","","","","","","","",""
"html-keyboard-response","54","360219","0.0-3.0-3.0-0.2","xqlaokmoxe9hhdm","practice_cue","5f4f9ec28ba701071f985ba3","5f60e3c0a3b16e07647b2ff9","5f638023f46b71066172e548","false","null","<span style=""color: black; font-size: 48px"">M + N</span>","null","","","","resp_prompt","","","","","","","","","","","","","","","",""
"categorize-image","55","361095","0.0-3.0-3.0-1.2","xqlaokmoxe9hhdm","practice_cue","5f4f9ec28ba701071f985ba3","5f60e3c0a3b16e07647b2ff9","5f638023f46b71066172e548","true","871.0850000206847","./Stimuli/ImagesPractice/SN222.jpg","76","","","","test","true","M + N","76","","SN","SN222.jpg","remember","old","19","2","practice_forget","right","","","",""
"html-keyboard-response","56","363101","0.0-3.0-3.0-3.2","xqlaokmoxe9hhdm","practice_cue","5f4f9ec28ba701071f985ba3","5f60e3c0a3b16e07647b2ff9","5f638023f46b71066172e548","false","null","<div style=""align-items: center; display: flex; color: dodgerblue; font-size: 90px""><b>o</b></div>","null","","","","forget_cue","","","","","","","","","","","","","","","",""
"html-keyboard-response","57","363807","0.0-3.0-3.0-0.3","xqlaokmoxe9hhdm","practice_cue","5f4f9ec28ba701071f985ba3","5f60e3c0a3b16e07647b2ff9","5f638023f46b71066172e548","false","null","<span style=""color: black; font-size: 48px"">M + N</span>","null","","","","resp_prompt","","","","","","","","","","","","","","","",""
"categorize-image","58","365065","0.0-3.0-3.0-1.3","xqlaokmoxe9hhdm","practice_cue","5f4f9ec28ba701071f985ba3","5f60e3c0a3b16e07647b2ff9","5f638023f46b71066172e548","true","1254.5550000213552","./Stimuli/ImagesPractice/SN205.jpg","76","","","","test","true","M + N","76","","SN","SN205.jpg","remember","old","20","2","practice_forget","right","","","",""
"html-keyboard-response","59","367069","0.0-3.0-3.0-3.3","xqlaokmoxe9hhdm","practice_cue","5f4f9ec28ba701071f985ba3","5f60e3c0a3b16e07647b2ff9","5f638023f46b71066172e548","false","null","<div style=""align-items: center; display: flex; color: dodgerblue; font-size: 90px""><b>o</b></div>","null","","","","forget_cue","","","","","","","","","","","","","","","",""
"html-keyboard-response","60","367771","0.0-3.0-3.0-0.4","xqlaokmoxe9hhdm","practice_cue","5f4f9ec28ba701071f985ba3","5f60e3c0a3b16e07647b2ff9","5f638023f46b71066172e548","false","null","<span style=""color: black; font-size: 48px"">N + M</span>","null","","","","resp_prompt","","","","","","","","","","","","","","","",""
"categorize-image","61","368633","0.0-3.0-3.0-1.4","xqlaokmoxe9hhdm","practice_cue","5f4f9ec28ba701071f985ba3","5f60e3c0a3b16e07647b2ff9","5f638023f46b71066172e548","true","858.8100000051782","./Stimuli/ImagesPractice/SN76.jpg","83","","","","test","true","N + M","83","","SN","SN76.jpg","forget","old","21","2","practice_forget","left","","","",""
"html-keyboard-response","62","370638","0.0-3.0-3.0-3.4","xqlaokmoxe9hhdm","practice_cue","5f4f9ec28ba701071f985ba3","5f60e3c0a3b16e07647b2ff9","5f638023f46b71066172e548","false","null","<div style=""align-items: center; display: flex; color: darkorange; font-size: 90px""><b>ø</b></div>","null","","","","forget_cue","","","","","","","","","","","","","","","",""
"html-keyboard-response","63","371341","0.0-3.0-3.0-0.5","xqlaokmoxe9hhdm","practice_cue","5f4f9ec28ba701071f985ba3","5f60e3c0a3b16e07647b2ff9","5f638023f46b71066172e548","false","null","<span style=""color: black; font-size: 48px"">N + M</span>","null","","","","resp_prompt","","","","","","","","","","","","","","","",""
"categorize-image","64","372474","0.0-3.0-3.0-1.5","xqlaokmoxe9hhdm","practice_cue","5f4f9ec28ba701071f985ba3","5f60e3c0a3b16e07647b2ff9","5f638023f46b71066172e548","true","1130.0849999825004","./Stimuli/ImagesPractice/SM98.jpg","76","","","","test","true","N + M","76","","SM","SM98.jpg","remember","old","22","2","practice_forget","right","","","",""
"html-keyboard-response","65","374477","0.0-3.0-3.0-3.5","xqlaokmoxe9hhdm","practice_cue","5f4f9ec28ba701071f985ba3","5f60e3c0a3b16e07647b2ff9","5f638023f46b71066172e548","false","null","<div style=""align-items: center; display: flex; color: dodgerblue; font-size: 90px""><b>o</b></div>","null","","","","forget_cue","","","","","","","","","","","","","","","",""
"html-keyboard-response","66","375180","0.0-3.0-3.0-0.6","xqlaokmoxe9hhdm","practice_cue","5f4f9ec28ba701071f985ba3","5f60e3c0a3b16e07647b2ff9","5f638023f46b71066172e548","false","null","<span style=""color: black; font-size: 48px"">M + N</span>","null","","","","resp_prompt","","","","","","","","","","","","","","","",""
"categorize-image","67","376385","0.0-3.0-3.0-1.6","xqlaokmoxe9hhdm","practice_cue","5f4f9ec28ba701071f985ba3","5f60e3c0a3b16e07647b2ff9","5f638023f46b71066172e548","true","1199.1299999936018","./Stimuli/ImagesPractice/SN75.jpg","76","","","","test","true","M + N","76","","SN","SN75.jpg","forget","old","23","2","practice_forget","right","","","",""
"html-keyboard-response","68","378389","0.0-3.0-3.0-3.6","xqlaokmoxe9hhdm","practice_cue","5f4f9ec28ba701071f985ba3","5f60e3c0a3b16e07647b2ff9","5f638023f46b71066172e548","false","null","<div style=""align-items: center; display: flex; color: darkorange; font-size: 90px""><b>ø</b></div>","null","","","","forget_cue","","","","","","","","","","","","","","","",""
"html-keyboard-response","69","379091","0.0-3.0-3.0-0.7","xqlaokmoxe9hhdm","practice_cue","5f4f9ec28ba701071f985ba3","5f60e3c0a3b16e07647b2ff9","5f638023f46b71066172e548","false","null","<span style=""color: black; font-size: 48px"">N + M</span>","null","","","","resp_prompt","","","","","","","","","","","","","","","",""
"categorize-image","70","379978","0.0-3.0-3.0-1.7","xqlaokmoxe9hhdm","practice_cue","5f4f9ec28ba701071f985ba3","5f60e3c0a3b16e07647b2ff9","5f638023f46b71066172e548","true","883.4499999938998","./Stimuli/ImagesPractice/LM147.jpg","76","","","","test","true","N + M","76","","LM","LM147.jpg","forget","old","24","2","practice_forget","right","","","",""
"html-keyboard-response","71","381982","0.0-3.0-3.0-3.7","xqlaokmoxe9hhdm","practice_cue","5f4f9ec28ba701071f985ba3","5f60e3c0a3b16e07647b2ff9","5f638023f46b71066172e548","false","null","<div style=""align-items: center; display: flex; color: darkorange; font-size: 90px""><b>ø</b></div>","null","","","","forget_cue","","","","","","","","","","","","","","","",""
"html-keyboard-response","72","382684","0.0-3.0-3.0-0.8","xqlaokmoxe9hhdm","practice_cue","5f4f9ec28ba701071f985ba3","5f60e3c0a3b16e07647b2ff9","5f638023f46b71066172e548","false","null","<span style=""color: black; font-size: 48px"">M + N</span>","null","","","","resp_prompt","","","","","","","","","","","","","","","",""
"categorize-image","73","383739","0.0-3.0-3.0-1.8","xqlaokmoxe9hhdm","practice_cue","5f4f9ec28ba701071f985ba3","5f60e3c0a3b16e07647b2ff9","5f638023f46b71066172e548","true","1051.75500002224","./Stimuli/ImagesPractice/LM224.jpg","83","","","","test","true","M + N","83","","LM","LM224.jpg","forget","old","25","2","practice_forget","left","","","",""
"html-keyboard-response","74","385744","0.0-3.0-3.0-3.8","xqlaokmoxe9hhdm","practice_cue","5f4f9ec28ba701071f985ba3","5f60e3c0a3b16e07647b2ff9","5f638023f46b71066172e548","false","null","<div style=""align-items: center; display: flex; color: darkorange; font-size: 90px""><b>ø</b></div>","null","","","","forget_cue","","","","","","","","","","","","","","","",""
"html-keyboard-response","75","386447","0.0-3.0-3.0-0.9","xqlaokmoxe9hhdm","practice_cue","5f4f9ec28ba701071f985ba3","5f60e3c0a3b16e07647b2ff9","5f638023f46b71066172e548","false","null","<span style=""color: black; font-size: 48px"">M + N</span>","null","","","","resp_prompt","","","","","","","","","","","","","","","",""
"categorize-image","76","387456","0.0-3.0-3.0-1.9","xqlaokmoxe9hhdm","practice_cue","5f4f9ec28ba701071f985ba3","5f60e3c0a3b16e07647b2ff9","5f638023f46b71066172e548","true","1004.9550000112504","./Stimuli/ImagesPractice/LM55.jpg","83","","","","test","true","M + N","83","","LM","LM55.jpg","remember","old","26","2","practice_forget","left","","","",""
"html-keyboard-response","77","389459","0.0-3.0-3.0-3.9","xqlaokmoxe9hhdm","practice_cue","5f4f9ec28ba701071f985ba3","5f60e3c0a3b16e07647b2ff9","5f638023f46b71066172e548","false","null","<div style=""align-items: center; display: flex; color: dodgerblue; font-size: 90px""><b>o</b></div>","null","","","","forget_cue","","","","","","","","","","","","","","","",""
"html-keyboard-response","78","390165","0.0-3.0-3.0-0.10","xqlaokmoxe9hhdm","practice_cue","5f4f9ec28ba701071f985ba3","5f60e3c0a3b16e07647b2ff9","5f638023f46b71066172e548","false","null","<span style=""color: black; font-size: 48px"">M + N</span>","null","","","","resp_prompt","","","","","","","","","","","","","","","",""
"categorize-image","79","391415","0.0-3.0-3.0-1.10","xqlaokmoxe9hhdm","practice_cue","5f4f9ec28ba701071f985ba3","5f60e3c0a3b16e07647b2ff9","5f638023f46b71066172e548","true","1238.2800000195857","./Stimuli/ImagesPractice/LN15.jpg","76","","","","test","true","M + N","76","","LN","LN15.jpg","remember","old","27","2","practice_forget","right","","","",""
"html-keyboard-response","80","393418","0.0-3.0-3.0-3.10","xqlaokmoxe9hhdm","practice_cue","5f4f9ec28ba701071f985ba3","5f60e3c0a3b16e07647b2ff9","5f638023f46b71066172e548","false","null","<div style=""align-items: center; display: flex; color: dodgerblue; font-size: 90px""><b>o</b></div>","null","","","","forget_cue","","","","","","","","","","","","","","","",""
"html-keyboard-response","81","394120","0.0-3.0-3.0-0.11","xqlaokmoxe9hhdm","practice_cue","5f4f9ec28ba701071f985ba3","5f60e3c0a3b16e07647b2ff9","5f638023f46b71066172e548","false","null","<span style=""color: black; font-size: 48px"">M + N</span>","null","","","","resp_prompt","","","","","","","","","","","","","","","",""
"categorize-image","82","394961","0.0-3.0-3.0-1.11","xqlaokmoxe9hhdm","practice_cue","5f4f9ec28ba701071f985ba3","5f60e3c0a3b16e07647b2ff9","5f638023f46b71066172e548","true","837.5449999875855","./Stimuli/ImagesPractice/SN221.jpg","83","","","","test","false","M + N","76","","SN","SN221.jpg","forget","old","28","2","practice_forget","left","","","",""
"html-keyboard-response","83","395462","0.0-3.0-3.0-2.11-0.11","xqlaokmoxe9hhdm","practice_cue","5f4f9ec28ba701071f985ba3","5f60e3c0a3b16e07647b2ff9","5f638023f46b71066172e548","false","null","<span style=""color: red; font-size: 48px"">Error!</span>","null","","","","feedback","","","","","","","","","","","","","","","",""
"html-keyboard-response","84","397464","0.0-3.0-3.0-3.11","xqlaokmoxe9hhdm","practice_cue","5f4f9ec28ba701071f985ba3","5f60e3c0a3b16e07647b2ff9","5f638023f46b71066172e548","false","null","<div style=""align-items: center; display: flex; color: darkorange; font-size: 90px""><b>ø</b></div>","null","","","","forget_cue","","","","","","","","","","","","","","","",""
"html-keyboard-response","85","398167","0.0-3.0-3.0-0.12","xqlaokmoxe9hhdm","practice_cue","5f4f9ec28ba701071f985ba3","5f60e3c0a3b16e07647b2ff9","5f638023f46b71066172e548","false","null","<span style=""color: black; font-size: 48px"">M + N</span>","null","","","","resp_prompt","","","","","","","","","","","","","","","",""
"categorize-image","86","399041","0.0-3.0-3.0-1.12","xqlaokmoxe9hhdm","practice_cue","5f4f9ec28ba701071f985ba3","5f60e3c0a3b16e07647b2ff9","5f638023f46b71066172e548","true","868.9999999769498","./Stimuli/ImagesPractice/LN109.jpg","76","","","","test","true","M + N","76","","LN","LN109.jpg","forget","old","29","2","practice_forget","right","","","",""
"html-keyboard-response","87","401047","0.0-3.0-3.0-3.12","xqlaokmoxe9hhdm","practice_cue","5f4f9ec28ba701071f985ba3","5f60e3c0a3b16e07647b2ff9","5f638023f46b71066172e548","false","null","<div style=""align-items: center; display: flex; color: darkorange; font-size: 90px""><b>ø</b></div>","null","","","","forget_cue","","","","","","","","","","","","","","","",""
"html-keyboard-response","88","401749","0.0-3.0-3.0-0.13","xqlaokmoxe9hhdm","practice_cue","5f4f9ec28ba701071f985ba3","5f60e3c0a3b16e07647b2ff9","5f638023f46b71066172e548","false","null","<span style=""color: black; font-size: 48px"">N + M</span>","null","","","","resp_prompt","","","","","","","","","","","","","","","",""
"categorize-image","89","402615","0.0-3.0-3.0-1.13","xqlaokmoxe9hhdm","practice_cue","5f4f9ec28ba701071f985ba3","5f60e3c0a3b16e07647b2ff9","5f638023f46b71066172e548","true","863.1349999923259","./Stimuli/ImagesPractice/SN220.jpg","83","","","","test","true","N + M","83","","SN","SN220.jpg","forget","old","30","2","practice_forget","left","","","",""
"html-keyboard-response","90","404616","0.0-3.0-3.0-3.13","xqlaokmoxe9hhdm","practice_cue","5f4f9ec28ba701071f985ba3","5f60e3c0a3b16e07647b2ff9","5f638023f46b71066172e548","false","null","<div style=""align-items: center; display: flex; color: darkorange; font-size: 90px""><b>ø</b></div>","null","","","","forget_cue","","","","","","","","","","","","","","","",""
"html-keyboard-response","91","405319","0.0-3.0-3.0-0.14","xqlaokmoxe9hhdm","practice_cue","5f4f9ec28ba701071f985ba3","5f60e3c0a3b16e07647b2ff9","5f638023f46b71066172e548","false","null","<span style=""color: black; font-size: 48px"">N + M</span>","null","","","","resp_prompt","","","","","","","","","","","","","","","",""
"categorize-image","92","406613","0.0-3.0-3.0-1.14","xqlaokmoxe9hhdm","practice_cue","5f4f9ec28ba701071f985ba3","5f60e3c0a3b16e07647b2ff9","5f638023f46b71066172e548","true","1291.639999981271","./Stimuli/ImagesPractice/LM230.jpg","76","","","","test","true","N + M","76","","LM","LM230.jpg","remember","old","31","2","practice_forget","right","","","",""
"html-keyboard-response","93","408614","0.0-3.0-3.0-3.14","xqlaokmoxe9hhdm","practice_cue","5f4f9ec28ba701071f985ba3","5f60e3c0a3b16e07647b2ff9","5f638023f46b71066172e548","false","null","<div style=""align-items: center; display: flex; color: dodgerblue; font-size: 90px""><b>o</b></div>","null","","","","forget_cue","","","","","","","","","","","","","","","",""
"html-keyboard-response","94","409318","0.0-3.0-3.0-0.15","xqlaokmoxe9hhdm","practice_cue","5f4f9ec28ba701071f985ba3","5f60e3c0a3b16e07647b2ff9","5f638023f46b71066172e548","false","null","<span style=""color: black; font-size: 48px"">N + M</span>","null","","","","resp_prompt","","","","","","","","","","","","","","","",""
"categorize-image","95","410495","0.0-3.0-3.0-1.15","xqlaokmoxe9hhdm","practice_cue","5f4f9ec28ba701071f985ba3","5f60e3c0a3b16e07647b2ff9","5f638023f46b71066172e548","true","1173.7900000007357","./Stimuli/ImagesPractice/LN4.jpg","83","","","","test","true","N + M","83","","LN","LN4.jpg","remember","old","32","2","practice_forget","left","","","",""
"html-keyboard-response","96","412498","0.0-3.0-3.0-3.15","xqlaokmoxe9hhdm","practice_cue","5f4f9ec28ba701071f985ba3","5f60e3c0a3b16e07647b2ff9","5f638023f46b71066172e548","false","null","<div style=""align-items: center; display: flex; color: dodgerblue; font-size: 90px""><b>o</b></div>","null","","","","forget_cue","","","","","","","","","","","","","","","",""
"html-keyboard-response","97","415678","0.0-3.0-4.0","xqlaokmoxe9hhdm","break","5f4f9ec28ba701071f985ba3","5f60e3c0a3b16e07647b2ff9","5f638023f46b71066172e548","false","3178.589999995893","<p style='font-size: 32px;'>Break</><br><br><br><br><br><p style='font-size: 24px;'>In the last block, you committed 2 errors and did not respond in time on 0 trials.
</p><p style='font-size: 24px;'>Try to respond as fast and accurately as possible in the next block as well! </p><p style='font-size: 24px;'>Press SPACE to continue.</p>","32","","","","","","","","","","","","","","","","","","","",""
"html-keyboard-response","98","430008","0.0-3.0-5.0","xqlaokmoxe9hhdm","instructions","5f4f9ec28ba701071f985ba3","5f60e3c0a3b16e07647b2ff9","5f638023f46b71066172e548","false","14327.960000024177","<div align=left> Now, to practice, we kindly ask you to remember as many of the to-be-remembered pictures<br>of the previous learning phase as possible.<br><br>The pictures you were instructed to remember were the pictures followed by a <span style='color: dodgerblue; font-size: 28px'>O</span>.<br><br>In this memory test phase, you will also see some new pictures.<br>It is your task to remember whether you were presented with this specific picture in this study so far or not.<br>If you recognize an object (you have already seen it in this study), it is an OLD object. <br>If you do not recognize an object (you have NOT seen it in this study), it is a NEW object. <br><strong> Attention</strong>: As already mentioned, <span style='color: darkorange; font-size:28px'>Ø</span>-pictures will <strong>never</strong> appear in this memory test (neither as new objects). <br><br>Press SPACE to continue. </div>","32","","","","","","","","","","","","","","","","","","","",""
"html-keyboard-response","99","444450","0.0-3.0-6.0","xqlaokmoxe9hhdm","instructions","5f4f9ec28ba701071f985ba3","5f60e3c0a3b16e07647b2ff9","5f638023f46b71066172e548","false","14440.604999981588","<div align=left> M and N no longer will appear on the left/right of the fixation cross. <br>Instead there will be a note at the bottom of the left or right side  <br>indicating which key you should press for an old or new object:  <br> <br>Press the <strong>right</strong> key to classify an object as <strong>old</strong> and press the <strong>left</strong>, to classify an object as <strong>new</strong>.<br>Please classify the objects as new/old by again placing your index finger on the 'S' and 'L' keys <br>and press them accordingly.<br><br><strong>Old:</strong> This object has been presented before. <br><strong>New:</strong> This object has <strong>not</strong> been presented.<br><br>Now please put your right and left index fingers on the 'S' and 'L' keys of your keyboard. <br>Please respond as fast and as accurately as possible!<br><br>Press SPACE to continue. </div>","32","","","","","","","","","","","","","","","","","","","",""
"categorize-image","100","446900","0.0-3.0-7.0-0.0","xqlaokmoxe9hhdm","practice_recog","5f4f9ec28ba701071f985ba3","5f60e3c0a3b16e07647b2ff9","5f638023f46b71066172e548","true","1947.3799999977928","./Stimuli/ImagesPractice/LN4.jpg","76","","","","test","true","","76","","LN","LN4.jpg","","old","33","3","practice_recog","right","","","",""
"categorize-image","101","448264","0.0-3.0-7.0-0.1","xqlaokmoxe9hhdm","practice_recog","5f4f9ec28ba701071f985ba3","5f60e3c0a3b16e07647b2ff9","5f638023f46b71066172e548","true","860.2049999753945","./Stimuli/ImagesPractice/LM55.jpg","76","","","","test","true","","76","","LM","LM55.jpg","","old","34","3","practice_recog","right","","","",""
"categorize-image","102","449535","0.0-3.0-7.0-0.2","xqlaokmoxe9hhdm","practice_recog","5f4f9ec28ba701071f985ba3","5f60e3c0a3b16e07647b2ff9","5f638023f46b71066172e548","true","767.4849999893922","./Stimuli/ImagesPractice/SM35.jpg","83","","","","test","true","","83","","SM","SM35.jpg","","new","35","3","practice_recog","left","","","",""
"categorize-image","103","450920","0.0-3.0-7.0-0.3","xqlaokmoxe9hhdm","practice_recog","5f4f9ec28ba701071f985ba3","5f60e3c0a3b16e07647b2ff9","5f638023f46b71066172e548","true","877.3250000085682","./Stimuli/ImagesPractice/LN15.jpg","76","","","","test","true","","76","","LN","LN15.jpg","","old","36","3","practice_recog","right","","","",""
"categorize-image","104","452583","0.0-3.0-7.0-0.4","xqlaokmoxe9hhdm","practice_recog","5f4f9ec28ba701071f985ba3","5f60e3c0a3b16e07647b2ff9","5f638023f46b71066172e548","true","1160.5299999937415","./Stimuli/ImagesPractice/SM62.jpg","83","","","","test","true","","83","","SM","SM62.jpg","","new","37","3","practice_recog","left","","","",""
"categorize-image","105","454185","0.0-3.0-7.0-0.5","xqlaokmoxe9hhdm","practice_recog","5f4f9ec28ba701071f985ba3","5f60e3c0a3b16e07647b2ff9","5f638023f46b71066172e548","true","1098.839999991469","./Stimuli/ImagesPractice/SM98.jpg","83","","","","test","false","","76","","SM","SM98.jpg","","old","38","3","practice_recog","left","","","",""
"categorize-image","106","455836","0.0-3.0-7.0-0.6","xqlaokmoxe9hhdm","practice_recog","5f4f9ec28ba701071f985ba3","5f60e3c0a3b16e07647b2ff9","5f638023f46b71066172e548","true","1147.1000000019558","./Stimuli/ImagesPractice/LM239.jpg","83","","","","test","true","","83","","LM","LM239.jpg","","new","39","3","practice_recog","left","","","",""
"categorize-image","107","457262","0.0-3.0-7.0-0.7","xqlaokmoxe9hhdm","practice_recog","5f4f9ec28ba701071f985ba3","5f60e3c0a3b16e07647b2ff9","5f638023f46b71066172e548","true","919.6300000185147","./Stimuli/ImagesPractice/SM97.jpg","76","","","","test","true","","76","","SM","SM97.jpg","","old","40","3","practice_recog","right","","","",""
"categorize-image","108","459543","0.0-3.0-7.0-0.8","xqlaokmoxe9hhdm","practice_recog","5f4f9ec28ba701071f985ba3","5f60e3c0a3b16e07647b2ff9","5f638023f46b71066172e548","true","1777.5449999899138","./Stimuli/ImagesPractice/LN2.jpg","83","","","","test","true","","83","","LN","LN2.jpg","","new","41","3","practice_recog","left","","","",""
"categorize-image","109","461130","0.0-3.0-7.0-0.9","xqlaokmoxe9hhdm","practice_recog","5f4f9ec28ba701071f985ba3","5f60e3c0a3b16e07647b2ff9","5f638023f46b71066172e548","true","1084.0449999959674","./Stimuli/ImagesPractice/SN205.jpg","76","","","","test","true","","76","","SN","SN205.jpg","","old","42","3","practice_recog","right","","","",""
"categorize-image","110","462594","0.0-3.0-7.0-0.10","xqlaokmoxe9hhdm","practice_recog","5f4f9ec28ba701071f985ba3","5f60e3c0a3b16e07647b2ff9","5f638023f46b71066172e548","true","960.1750000147149","./Stimuli/ImagesPractice/SM37.jpg","83","","","","test","true","","83","","SM","SM37.jpg","","new","43","3","practice_recog","left","","","",""
"categorize-image","111","463967","0.0-3.0-7.0-0.11","xqlaokmoxe9hhdm","practice_recog","5f4f9ec28ba701071f985ba3","5f60e3c0a3b16e07647b2ff9","5f638023f46b71066172e548","true","866.37500001234","./Stimuli/ImagesPractice/LN17.jpg","83","","","","test","true","","83","","LN","LN17.jpg","","new","44","3","practice_recog","left","","","",""
"categorize-image","112","465540","0.0-3.0-7.0-0.12","xqlaokmoxe9hhdm","practice_recog","5f4f9ec28ba701071f985ba3","5f60e3c0a3b16e07647b2ff9","5f638023f46b71066172e548","true","1067.479999997886","./Stimuli/ImagesPractice/LN72.jpg","83","","","","test","true","","83","","LN","LN72.jpg","","new","45","3","practice_recog","left","","","",""
"categorize-image","113","467049","0.0-3.0-7.0-0.13","xqlaokmoxe9hhdm","practice_recog","5f4f9ec28ba701071f985ba3","5f60e3c0a3b16e07647b2ff9","5f638023f46b71066172e548","true","1004.5999999856576","./Stimuli/ImagesPractice/SN222.jpg","76","","","","test","true","","76","","SN","SN222.jpg","","old","46","3","practice_recog","right","","","",""
"categorize-image","114","468292","0.0-3.0-7.0-0.14","xqlaokmoxe9hhdm","practice_recog","5f4f9ec28ba701071f985ba3","5f60e3c0a3b16e07647b2ff9","5f638023f46b71066172e548","true","739.2300000065006","./Stimuli/ImagesPractice/LM230.jpg","76","","","","test","true","","76","","LM","LM230.jpg","","old","47","3","practice_recog","right","","","",""
"categorize-image","115","472953","0.0-3.0-7.0-0.15","xqlaokmoxe9hhdm","practice_recog","5f4f9ec28ba701071f985ba3","5f60e3c0a3b16e07647b2ff9","5f638023f46b71066172e548","true","4154.539999988629","./Stimuli/ImagesPractice/LM143.jpg","76","","","","test","false","","83","","LM","LM143.jpg","","new","48","3","practice_recog","right","","","",""
"html-keyboard-response","116","490612","0.0-3.0-8.0","xqlaokmoxe9hhdm","instructions","5f4f9ec28ba701071f985ba3","5f60e3c0a3b16e07647b2ff9","5f638023f46b71066172e548","false","17658.250000007683","<div align=left> Great!<br><br>Are you ready to continue?<br>If you want to reread the instructions and redo the practice trials, please <br>press „Z“.<br><br>You can proceed when you are ready.<br><br>After the presentation of each object, you will receive an instruction whether to <br>remember or to forget the object.<br>We will test your memory of the following pictures only at the very end of <br>the experiment after all learning blocks are completed. <br><br>Press SPACE to CONTINUE when you are ready. </div>","32","","","","","","","","","","","","","","","","","","","",""
"html-keyboard-response","117","494214","0.0-4.0-0.0","xqlaokmoxe9hhdm","instructions","5f4f9ec28ba701071f985ba3","5f60e3c0a3b16e07647b2ff9","5f638023f46b71066172e548","false","3600.895000010496","<div align=left> The actual experiment is about to start.<br>The practice trials are over!<br><br>Please always respond both fast and accurately!<br><br>Remember: <br> <br><li> Please place your index fingers on the <strong>'S'</strong> and <strong>'L'</strong> keys <br>to respond as fast and accurately as possible.</li><li> Every picture can be classified as either mechanical or non-mechanical.</li><li> If you do not respond in time or commit an error, you will receive a corresponding feedback.<br> Please try to respond as <strong> fast </strong> and as <strong> accurately as possible </strong>.</li><li> Remember the <span style='color: dodgerblue; font-size: 28px'>O</span> pictures. <br></li><li> Please minimize distractions and stay focused. </li><br><br>Press SPACE to START.</div>","32","","","","","","","","","","","","","","","","","","","",""
"html-keyboard-response","118","494919","0.0-4.0-1.0-0.0","xqlaokmoxe9hhdm","prime","5f4f9ec28ba701071f985ba3","5f60e3c0a3b16e07647b2ff9","5f638023f46b71066172e548","false","null","<span style=""color: black; font-size: 48px"">M + N</span>","null","","","","resp_prompt","","","","","","","","","","","","","","","",""
"categorize-image","119","495670","0.0-4.0-1.0-1.0","xqlaokmoxe9hhdm","prime","5f4f9ec28ba701071f985ba3","5f60e3c0a3b16e07647b2ff9","5f638023f46b71066172e548","true","746.4749999926426","./Stimuli/SelectedImages/SN/SN111.bmp","76","","","","test","true","M + N","76","repetition","SN","SN111.bmp","remember","","49","3","prime1","right","","","",""
"html-keyboard-response","120","497673","0.0-4.0-1.0-3.0","xqlaokmoxe9hhdm","prime","5f4f9ec28ba701071f985ba3","5f60e3c0a3b16e07647b2ff9","5f638023f46b71066172e548","false","null","<div style=""align-items: center; display: flex; color: dodgerblue; font-size: 90px""><b>o</b></div>","null","","","","forget_cue","","","","","","","","","","","","","","","",""
"html-keyboard-response","121","498379","0.0-4.0-1.0-0.1","xqlaokmoxe9hhdm","prime","5f4f9ec28ba701071f985ba3","5f60e3c0a3b16e07647b2ff9","5f638023f46b71066172e548","false","null","<span style=""color: black; font-size: 48px"">M + N</span>","null","","","","resp_prompt","","","","","","","","","","","","","","","",""
"categorize-image","122","499414","0.0-4.0-1.0-1.1","xqlaokmoxe9hhdm","prime","5f4f9ec28ba701071f985ba3","5f60e3c0a3b16e07647b2ff9","5f638023f46b71066172e548","true","1032.2999999916647","./Stimuli/SelectedImages/LM/LM51.bmp","83","","","","test","true","M + N","83","repetition","LM","LM51.bmp","remember","","50","3","prime1","left","","","",""
"html-keyboard-response","123","501415","0.0-4.0-1.0-3.1","xqlaokmoxe9hhdm","prime","5f4f9ec28ba701071f985ba3","5f60e3c0a3b16e07647b2ff9","5f638023f46b71066172e548","false","null","<div style=""align-items: center; display: flex; color: dodgerblue; font-size: 90px""><b>o</b></div>","null","","","","forget_cue","","","","","","","","","","","","","","","",""
"html-keyboard-response","124","502117","0.0-4.0-1.0-0.2","xqlaokmoxe9hhdm","prime","5f4f9ec28ba701071f985ba3","5f60e3c0a3b16e07647b2ff9","5f638023f46b71066172e548","false","null","<span style=""color: black; font-size: 48px"">M + N</span>","null","","","","resp_prompt","","","","","","","","","","","","","","","",""
"categorize-image","125","503173","0.0-4.0-1.0-1.2","xqlaokmoxe9hhdm","prime","5f4f9ec28ba701071f985ba3","5f60e3c0a3b16e07647b2ff9","5f638023f46b71066172e548","true","1051.8600000068545","./Stimuli/SelectedImages/SN/SN155.bmp","76","","","","test","true","M + N","76","switch","SN","SN155.bmp","forget","","51","3","prime1","right","","","",""
"html-keyboard-response","126","505176","0.0-4.0-1.0-3.2","xqlaokmoxe9hhdm","prime","5f4f9ec28ba701071f985ba3","5f60e3c0a3b16e07647b2ff9","5f638023f46b71066172e548","false","null","<div style=""align-items: center; display: flex; color: darkorange; font-size: 90px""><b>ø</b></div>","null","","","","forget_cue","","","","","","","","","","","","","","","",""
"html-keyboard-response","127","505879","0.0-4.0-1.0-0.3","xqlaokmoxe9hhdm","prime","5f4f9ec28ba701071f985ba3","5f60e3c0a3b16e07647b2ff9","5f638023f46b71066172e548","false","null","<span style=""color: black; font-size: 48px"">N + M</span>","null","","","","resp_prompt","","","","","","","","","","","","","","","",""
"categorize-image","128","506685","0.0-4.0-1.0-1.3","xqlaokmoxe9hhdm","prime","5f4f9ec28ba701071f985ba3","5f60e3c0a3b16e07647b2ff9","5f638023f46b71066172e548","true","802.6499999978114","./Stimuli/SelectedImages/LN/LN12.bmp","83","","","","test","true","N + M","83","switch","LN","LN12.bmp","remember","","52","3","prime1","left","","","",""
"html-keyboard-response","129","508688","0.0-4.0-1.0-3.3","xqlaokmoxe9hhdm","prime","5f4f9ec28ba701071f985ba3","5f60e3c0a3b16e07647b2ff9","5f638023f46b71066172e548","false","null","<div style=""align-items: center; display: flex; color: dodgerblue; font-size: 90px""><b>o</b></div>","null","","","","forget_cue","","","","","","","","","","","","","","","",""
"html-keyboard-response","130","509395","0.0-4.0-1.0-0.4","xqlaokmoxe9hhdm","prime","5f4f9ec28ba701071f985ba3","5f60e3c0a3b16e07647b2ff9","5f638023f46b71066172e548","false","null","<span style=""color: black; font-size: 48px"">M + N</span>","null","","","","resp_prompt","","","","","","","","","","","","","","","",""
"categorize-image","131","510424","0.0-4.0-1.0-1.4","xqlaokmoxe9hhdm","prime","5f4f9ec28ba701071f985ba3","5f60e3c0a3b16e07647b2ff9","5f638023f46b71066172e548","true","1021.2950000131968","./Stimuli/SelectedImages/SM/SM207.bmp","83","","","","test","true","M + N","83","switch","SM","SM207.bmp","forget","","53","3","prime1","left","","","",""
"html-keyboard-response","132","512427","0.0-4.0-1.0-3.4","xqlaokmoxe9hhdm","prime","5f4f9ec28ba701071f985ba3","5f60e3c0a3b16e07647b2ff9","5f638023f46b71066172e548","false","null","<div style=""align-items: center; display: flex; color: darkorange; font-size: 90px""><b>ø</b></div>","null","","","","forget_cue","","","","","","","","","","","","","","","",""
"html-keyboard-response","133","513129","0.0-4.0-1.0-0.5","xqlaokmoxe9hhdm","prime","5f4f9ec28ba701071f985ba3","5f60e3c0a3b16e07647b2ff9","5f638023f46b71066172e548","false","null","<span style=""color: black; font-size: 48px"">N + M</span>","null","","","","resp_prompt","","","","","","","","","","","","","","","",""
"categorize-image","134","513821","0.0-4.0-1.0-1.5","xqlaokmoxe9hhdm","prime","5f4f9ec28ba701071f985ba3","5f60e3c0a3b16e07647b2ff9","5f638023f46b71066172e548","true","688.4999999892898","./Stimuli/SelectedImages/LN/LN111.bmp","83","","","","test","true","N + M","83","repetition","LN","LN111.bmp","forget","","54","3","prime1","left","","","",""
"html-keyboard-response","135","515823","0.0-4.0-1.0-3.5","xqlaokmoxe9hhdm","prime","5f4f9ec28ba701071f985ba3","5f60e3c0a3b16e07647b2ff9","5f638023f46b71066172e548","false","null","<div style=""align-items: center; display: flex; color: darkorange; font-size: 90px""><b>ø</b></div>","null","","","","forget_cue","","","","","","","","","","","","","","","",""
"html-keyboard-response","136","516525","0.0-4.0-1.0-0.6","xqlaokmoxe9hhdm","prime","5f4f9ec28ba701071f985ba3","5f60e3c0a3b16e07647b2ff9","5f638023f46b71066172e548","false","null","<span style=""color: black; font-size: 48px"">M + N</span>","null","","","","resp_prompt","","","","","","","","","","","","","","","",""
"categorize-image","137","517293","0.0-4.0-1.0-1.6","xqlaokmoxe9hhdm","prime","5f4f9ec28ba701071f985ba3","5f60e3c0a3b16e07647b2ff9","5f638023f46b71066172e548","true","762.3600000224542","./Stimuli/SelectedImages/SM/SM205.bmp","83","","","","test","true","M + N","83","repetition","SM","SM205.bmp","forget","","55","3","prime1","left","","","",""
"html-keyboard-response","138","519294","0.0-4.0-1.0-3.6","xqlaokmoxe9hhdm","prime","5f4f9ec28ba701071f985ba3","5f60e3c0a3b16e07647b2ff9","5f638023f46b71066172e548","false","null","<div style=""align-items: center; display: flex; color: darkorange; font-size: 90px""><b>ø</b></div>","null","","","","forget_cue","","","","","","","","","","","","","","","",""
"html-keyboard-response","139","519997","0.0-4.0-1.0-0.7","xqlaokmoxe9hhdm","prime","5f4f9ec28ba701071f985ba3","5f60e3c0a3b16e07647b2ff9","5f638023f46b71066172e548","false","null","<span style=""color: black; font-size: 48px"">M + N</span>","null","","","","resp_prompt","","","","","","","","","","","","","","","",""
"categorize-image","140","520879","0.0-4.0-1.0-1.7","xqlaokmoxe9hhdm","prime","5f4f9ec28ba701071f985ba3","5f60e3c0a3b16e07647b2ff9","5f638023f46b71066172e548","true","878.1699999817647","./Stimuli/SelectedImages/LM/LM59.bmp","83","","","","test","true","M + N","83","repetition","LM","LM59.bmp","forget","","56","3","prime1","left","","","",""
"html-keyboard-response","141","522882","0.0-4.0-1.0-3.7","xqlaokmoxe9hhdm","prime","5f4f9ec28ba701071f985ba3","5f60e3c0a3b16e07647b2ff9","5f638023f46b71066172e548","false","null","<div style=""align-items: center; display: flex; color: darkorange; font-size: 90px""><b>ø</b></div>","null","","","","forget_cue","","","","","","","","","","","","","","","",""
"html-keyboard-response","142","523586","0.0-4.0-1.0-0.8","xqlaokmoxe9hhdm","prime","5f4f9ec28ba701071f985ba3","5f60e3c0a3b16e07647b2ff9","5f638023f46b71066172e548","false","null","<span style=""color: black; font-size: 48px"">N + M</span>","null","","","","resp_prompt","","","","","","","","","","","","","","","",""
"categorize-image","143","524392","0.0-4.0-1.0-1.8","xqlaokmoxe9hhdm","prime","5f4f9ec28ba701071f985ba3","5f60e3c0a3b16e07647b2ff9","5f638023f46b71066172e548","true","800.8200000040233","./Stimuli/SelectedImages/SM/SM106.bmp","76","","","","test","true","N + M","76","switch","SM","SM106.bmp","forget","","57","3","prime1","right","","","",""
"html-keyboard-response","144","526394","0.0-4.0-1.0-3.8","xqlaokmoxe9hhdm","prime","5f4f9ec28ba701071f985ba3","5f60e3c0a3b16e07647b2ff9","5f638023f46b71066172e548","false","null","<div style=""align-items: center; display: flex; color: darkorange; font-size: 90px""><b>ø</b></div>","null","","","","forget_cue","","","","","","","","","","","","","","","",""
"html-keyboard-response","145","527096","0.0-4.0-1.0-0.9","xqlaokmoxe9hhdm","prime","5f4f9ec28ba701071f985ba3","5f60e3c0a3b16e07647b2ff9","5f638023f46b71066172e548","false","null","<span style=""color: black; font-size: 48px"">N + M</span>","null","","","","resp_prompt","","","","","","","","","","","","","","","",""
"categorize-image","146","527984","0.0-4.0-1.0-1.9","xqlaokmoxe9hhdm","prime","5f4f9ec28ba701071f985ba3","5f60e3c0a3b16e07647b2ff9","5f638023f46b71066172e548","true","884.634999994887","./Stimuli/SelectedImages/SM/SM184.bmp","76","","","","test","true","N + M","76","repetition","SM","SM184.bmp","remember","","58","3","prime1","right","","","",""
"html-keyboard-response","147","529987","0.0-4.0-1.0-3.9","xqlaokmoxe9hhdm","prime","5f4f9ec28ba701071f985ba3","5f60e3c0a3b16e07647b2ff9","5f638023f46b71066172e548","false","null","<div style=""align-items: center; display: flex; color: dodgerblue; font-size: 90px""><b>o</b></div>","null","","","","forget_cue","","","","","","","","","","","","","","","",""
"html-keyboard-response","148","530689","0.0-4.0-1.0-0.10","xqlaokmoxe9hhdm","prime","5f4f9ec28ba701071f985ba3","5f60e3c0a3b16e07647b2ff9","5f638023f46b71066172e548","false","null","<span style=""color: black; font-size: 48px"">M + N</span>","null","","","","resp_prompt","","","","","","","","","","","","","","","",""
"categorize-image","149","531929","0.0-4.0-1.0-1.10","xqlaokmoxe9hhdm","prime","5f4f9ec28ba701071f985ba3","5f60e3c0a3b16e07647b2ff9","5f638023f46b71066172e548","true","1236.0749999934342","./Stimuli/SelectedImages/SN/SN64.bmp","76","","","","test","true","M + N","76","switch","SN","SN64.bmp","forget","","59","3","prime1","right","","","",""
"html-keyboard-response","150","533931","0.0-4.0-1.0-3.10","xqlaokmoxe9hhdm","prime","5f4f9ec28ba701071f985ba3","5f60e3c0a3b16e07647b2ff9","5f638023f46b71066172e548","false","null","<div style=""align-items: center; display: flex; color: darkorange; font-size: 90px""><b>ø</b></div>","null","","","","forget_cue","","","","","","","","","","","","","","","",""
"html-keyboard-response","151","534633","0.0-4.0-1.0-0.11","xqlaokmoxe9hhdm","prime","5f4f9ec28ba701071f985ba3","5f60e3c0a3b16e07647b2ff9","5f638023f46b71066172e548","false","null","<span style=""color: black; font-size: 48px"">N + M</span>","null","","","","resp_prompt","","","","","","","","","","","","","","","",""
"categorize-image","152","535425","0.0-4.0-1.0-1.11","xqlaokmoxe9hhdm","prime","5f4f9ec28ba701071f985ba3","5f60e3c0a3b16e07647b2ff9","5f638023f46b71066172e548","true","789.1050000034738","./Stimuli/SelectedImages/LM/LM216.bmp","76","","","","test","true","N + M","76","switch","LM","LM216.bmp","remember","","60","3","prime1","right","","","",""
"html-keyboard-response","153","537429","0.0-4.0-1.0-3.11","xqlaokmoxe9hhdm","prime","5f4f9ec28ba701071f985ba3","5f60e3c0a3b16e07647b2ff9","5f638023f46b71066172e548","false","null","<div style=""align-items: center; display: flex; color: dodgerblue; font-size: 90px""><b>o</b></div>","null","","","","forget_cue","","","","","","","","","","","","","","","",""
"html-keyboard-response","154","538134","0.0-4.0-1.0-0.12","xqlaokmoxe9hhdm","prime","5f4f9ec28ba701071f985ba3","5f60e3c0a3b16e07647b2ff9","5f638023f46b71066172e548","false","null","<span style=""color: black; font-size: 48px"">M + N</span>","null","","","","resp_prompt","","","","","","","","","","","","","","","",""
"categorize-image","155","539643","0.0-4.0-1.0-1.12","xqlaokmoxe9hhdm","prime","5f4f9ec28ba701071f985ba3","5f60e3c0a3b16e07647b2ff9","5f638023f46b71066172e548","true","1505.990000005113","./Stimuli/SelectedImages/SM/SM128.bmp","83","","","","test","true","M + N","83","switch","SM","SM128.bmp","forget","","61","3","prime1","left","","","",""
"html-keyboard-response","156","541649","0.0-4.0-1.0-3.12","xqlaokmoxe9hhdm","prime","5f4f9ec28ba701071f985ba3","5f60e3c0a3b16e07647b2ff9","5f638023f46b71066172e548","false","null","<div style=""align-items: center; display: flex; color: darkorange; font-size: 90px""><b>ø</b></div>","null","","","","forget_cue","","","","","","","","","","","","","","","",""
"html-keyboard-response","157","542352","0.0-4.0-1.0-0.13","xqlaokmoxe9hhdm","prime","5f4f9ec28ba701071f985ba3","5f60e3c0a3b16e07647b2ff9","5f638023f46b71066172e548","false","null","<span style=""color: black; font-size: 48px"">M + N</span>","null","","","","resp_prompt","","","","","","","","","","","","","","","",""
"categorize-image","158","543177","0.0-4.0-1.0-1.13","xqlaokmoxe9hhdm","prime","5f4f9ec28ba701071f985ba3","5f60e3c0a3b16e07647b2ff9","5f638023f46b71066172e548","true","820.800000015879","./Stimuli/SelectedImages/LM/LM58.bmp","83","","","","test","true","M + N","83","repetition","LM","LM58.bmp","forget","","62","3","prime1","left","","","",""
"html-keyboard-response","159","545181","0.0-4.0-1.0-3.13","xqlaokmoxe9hhdm","prime","5f4f9ec28ba701071f985ba3","5f60e3c0a3b16e07647b2ff9","5f638023f46b71066172e548","false","null","<div style=""align-items: center; display: flex; color: darkorange; font-size: 90px""><b>ø</b></div>","null","","","","forget_cue","","","","","","","","","","","","","","","",""
"html-keyboard-response","160","545887","0.0-4.0-1.0-0.14","xqlaokmoxe9hhdm","prime","5f4f9ec28ba701071f985ba3","5f60e3c0a3b16e07647b2ff9","5f638023f46b71066172e548","false","null","<span style=""color: black; font-size: 48px"">N + M</span>","null","","","","resp_prompt","","","","","","","","","","","","","","","",""
"categorize-image","161","547463","0.0-4.0-1.0-1.14","xqlaokmoxe9hhdm","prime","5f4f9ec28ba701071f985ba3","5f60e3c0a3b16e07647b2ff9","5f638023f46b71066172e548","true","1572.2299999906681","./Stimuli/SelectedImages/LM/LM48.bmp","76","","","","test","true","N + M","76","switch","LM","LM48.bmp","forget","","63","3","prime1","right","","","",""
"html-keyboard-response","162","549468","0.0-4.0-1.0-3.14","xqlaokmoxe9hhdm","prime","5f4f9ec28ba701071f985ba3","5f60e3c0a3b16e07647b2ff9","5f638023f46b71066172e548","false","null","<div style=""align-items: center; display: flex; color: darkorange; font-size: 90px""><b>ø</b></div>","null","","","","forget_cue","","","","","","","","","","","","","","","",""
"html-keyboard-response","163","550171","0.0-4.0-1.0-0.15","xqlaokmoxe9hhdm","prime","5f4f9ec28ba701071f985ba3","5f60e3c0a3b16e07647b2ff9","5f638023f46b71066172e548","false","null","<span style=""color: black; font-size: 48px"">M + N</span>","null","","","","resp_prompt","","","","","","","","","","","","","","","",""
"categorize-image","164","551026","0.0-4.0-1.0-1.15","xqlaokmoxe9hhdm","prime","5f4f9ec28ba701071f985ba3","5f60e3c0a3b16e07647b2ff9","5f638023f46b71066172e548","true","851.3150000071619","./Stimuli/SelectedImages/LM/LM179.bmp","83","","","","test","true","M + N","83","switch","LM","LM179.bmp","remember","","64","3","prime1","left","","","",""
"html-keyboard-response","165","553029","0.0-4.0-1.0-3.15","xqlaokmoxe9hhdm","prime","5f4f9ec28ba701071f985ba3","5f60e3c0a3b16e07647b2ff9","5f638023f46b71066172e548","false","null","<div style=""align-items: center; display: flex; color: dodgerblue; font-size: 90px""><b>o</b></div>","null","","","","forget_cue","","","","","","","","","","","","","","","",""
"html-keyboard-response","166","553735","0.0-4.0-1.0-0.16","xqlaokmoxe9hhdm","prime","5f4f9ec28ba701071f985ba3","5f60e3c0a3b16e07647b2ff9","5f638023f46b71066172e548","false","null","<span style=""color: black; font-size: 48px"">M + N</span>","null","","","","resp_prompt","","","","","","","","","","","","","","","",""
"categorize-image","167","554918","0.0-4.0-1.0-1.16","xqlaokmoxe9hhdm","prime","5f4f9ec28ba701071f985ba3","5f60e3c0a3b16e07647b2ff9","5f638023f46b71066172e548","true","1178.8050000031944","./Stimuli/SelectedImages/LM/LM100.bmp","83","","","","test","true","M + N","83","repetition","LM","LM100.bmp","remember","","65","3","prime1","left","","","",""
"html-keyboard-response","168","556922","0.0-4.0-1.0-3.16","xqlaokmoxe9hhdm","prime","5f4f9ec28ba701071f985ba3","5f60e3c0a3b16e07647b2ff9","5f638023f46b71066172e548","false","null","<div style=""align-items: center; display: flex; color: dodgerblue; font-size: 90px""><b>o</b></div>","null","","","","forget_cue","","","","","","","","","","","","","","","",""
"html-keyboard-response","169","557625","0.0-4.0-1.0-0.17","xqlaokmoxe9hhdm","prime","5f4f9ec28ba701071f985ba3","5f60e3c0a3b16e07647b2ff9","5f638023f46b71066172e548","false","null","<span style=""color: black; font-size: 48px"">M + N</span>","null","","","","resp_prompt","","","","","","","","","","","","","","","",""
"categorize-image","170","558576","0.0-4.0-1.0-1.17","xqlaokmoxe9hhdm","prime","5f4f9ec28ba701071f985ba3","5f60e3c0a3b16e07647b2ff9","5f638023f46b71066172e548","true","948.0449999973644","./Stimuli/SelectedImages/LM/LM57.bmp","83","","","","test","true","M + N","83","switch","LM","LM57.bmp","forget","","66","3","prime1","left","","","",""
"html-keyboard-response","171","560577","0.0-4.0-1.0-3.17","xqlaokmoxe9hhdm","prime","5f4f9ec28ba701071f985ba3","5f60e3c0a3b16e07647b2ff9","5f638023f46b71066172e548","false","null","<div style=""align-items: center; display: flex; color: darkorange; font-size: 90px""><b>ø</b></div>","null","","","","forget_cue","","","","","","","","","","","","","","","",""
"html-keyboard-response","172","561282","0.0-4.0-1.0-0.18","xqlaokmoxe9hhdm","prime","5f4f9ec28ba701071f985ba3","5f60e3c0a3b16e07647b2ff9","5f638023f46b71066172e548","false","null","<span style=""color: black; font-size: 48px"">M + N</span>","null","","","","resp_prompt","","","","","","","","","","","","","","","",""
"categorize-image","173","562548","0.0-4.0-1.0-1.18","xqlaokmoxe9hhdm","prime","5f4f9ec28ba701071f985ba3","5f60e3c0a3b16e07647b2ff9","5f638023f46b71066172e548","true","1262.4349999823608","./Stimuli/SelectedImages/SN/SN179.bmp","76","","","","test","true","M + N","76","repetition","SN","SN179.bmp","forget","","67","3","prime1","right","","","",""
"html-keyboard-response","174","564550","0.0-4.0-1.0-3.18","xqlaokmoxe9hhdm","prime","5f4f9ec28ba701071f985ba3","5f60e3c0a3b16e07647b2ff9","5f638023f46b71066172e548","false","null","<div style=""align-items: center; display: flex; color: darkorange; font-size: 90px""><b>ø</b></div>","null","","","","forget_cue","","","","","","","","","","","","","","","",""
"html-keyboard-response","175","565252","0.0-4.0-1.0-0.19","xqlaokmoxe9hhdm","prime","5f4f9ec28ba701071f985ba3","5f60e3c0a3b16e07647b2ff9","5f638023f46b71066172e548","false","null","<span style=""color: black; font-size: 48px"">N + M</span>","null","","","","resp_prompt","","","","","","","","","","","","","","","",""
"categorize-image","176","566798","0.0-4.0-1.0-1.19","xqlaokmoxe9hhdm","prime","5f4f9ec28ba701071f985ba3","5f60e3c0a3b16e07647b2ff9","5f638023f46b71066172e548","true","1542.5350000150502","./Stimuli/SelectedImages/SN/SN18.bmp","76","","","","test","false","N + M","83","repetition","SN","SN18.bmp","forget","","68","3","prime1","right","","","",""
"html-keyboard-response","177","567301","0.0-4.0-1.0-2.19-0.19","xqlaokmoxe9hhdm","prime","5f4f9ec28ba701071f985ba3","5f60e3c0a3b16e07647b2ff9","5f638023f46b71066172e548","false","null","<span style=""color: red; font-size: 48px"">Error!</span>","null","","","","feedback","","","","","","","","","","","","","","","",""
"html-keyboard-response","178","569304","0.0-4.0-1.0-3.19","xqlaokmoxe9hhdm","prime","5f4f9ec28ba701071f985ba3","5f60e3c0a3b16e07647b2ff9","5f638023f46b71066172e548","false","null","<div style=""align-items: center; display: flex; color: darkorange; font-size: 90px""><b>ø</b></div>","null","","","","forget_cue","","","","","","","","","","","","","","","",""
"html-keyboard-response","179","570007","0.0-4.0-1.0-0.20","xqlaokmoxe9hhdm","prime","5f4f9ec28ba701071f985ba3","5f60e3c0a3b16e07647b2ff9","5f638023f46b71066172e548","false","null","<span style=""color: black; font-size: 48px"">M + N</span>","null","","","","resp_prompt","","","","","","","","","","","","","","","",""
"categorize-image","180","571102","0.0-4.0-1.0-1.20","xqlaokmoxe9hhdm","prime","5f4f9ec28ba701071f985ba3","5f60e3c0a3b16e07647b2ff9","5f638023f46b71066172e548","true","1091.2950000201818","./Stimuli/SelectedImages/SM/SM74.bmp","76","","","","test","false","M + N","83","repetition","SM","SM74.bmp","remember","","69","3","prime1","right","","","",""
"html-keyboard-response","181","571603","0.0-4.0-1.0-2.20-0.20","xqlaokmoxe9hhdm","prime","5f4f9ec28ba701071f985ba3","5f60e3c0a3b16e07647b2ff9","5f638023f46b71066172e548","false","null","<span style=""color: red; font-size: 48px"">Error!</span>","null","","","","feedback","","","","","","","","","","","","","","","",""
"html-keyboard-response","182","573606","0.0-4.0-1.0-3.20","xqlaokmoxe9hhdm","prime","5f4f9ec28ba701071f985ba3","5f60e3c0a3b16e07647b2ff9","5f638023f46b71066172e548","false","null","<div style=""align-items: center; display: flex; color: dodgerblue; font-size: 90px""><b>o</b></div>","null","","","","forget_cue","","","","","","","","","","","","","","","",""
"html-keyboard-response","183","574307","0.0-4.0-1.0-0.21","xqlaokmoxe9hhdm","prime","5f4f9ec28ba701071f985ba3","5f60e3c0a3b16e07647b2ff9","5f638023f46b71066172e548","false","null","<span style=""color: black; font-size: 48px"">M + N</span>","null","","","","resp_prompt","","","","","","","","","","","","","","","",""
"categorize-image","184","575425","0.0-4.0-1.0-1.21","xqlaokmoxe9hhdm","prime","5f4f9ec28ba701071f985ba3","5f60e3c0a3b16e07647b2ff9","5f638023f46b71066172e548","true","1111.994999984745","./Stimuli/SelectedImages/SN/SN60.bmp","76","","","","test","true","M + N","76","switch","SN","SN60.bmp","remember","","70","3","prime1","right","","","",""
"html-keyboard-response","185","577426","0.0-4.0-1.0-3.21","xqlaokmoxe9hhdm","prime","5f4f9ec28ba701071f985ba3","5f60e3c0a3b16e07647b2ff9","5f638023f46b71066172e548","false","null","<div style=""align-items: center; display: flex; color: dodgerblue; font-size: 90px""><b>o</b></div>","null","","","","forget_cue","","","","","","","","","","","","","","","",""
"html-keyboard-response","186","578131","0.0-4.0-1.0-0.22","xqlaokmoxe9hhdm","prime","5f4f9ec28ba701071f985ba3","5f60e3c0a3b16e07647b2ff9","5f638023f46b71066172e548","false","null","<span style=""color: black; font-size: 48px"">N + M</span>","null","","","","resp_prompt","","","","","","","","","","","","","","","",""
"categorize-image","187","579823","0.0-4.0-1.0-1.22","xqlaokmoxe9hhdm","prime","5f4f9ec28ba701071f985ba3","5f60e3c0a3b16e07647b2ff9","5f638023f46b71066172e548","true","1687.7549999917392","./Stimuli/SelectedImages/SN/SN240.bmp","83","","","","test","true","N + M","83","switch","SN","SN240.bmp","forget","","71","3","prime1","left","","","",""
"html-keyboard-response","188","581828","0.0-4.0-1.0-3.22","xqlaokmoxe9hhdm","prime","5f4f9ec28ba701071f985ba3","5f60e3c0a3b16e07647b2ff9","5f638023f46b71066172e548","false","null","<div style=""align-items: center; display: flex; color: darkorange; font-size: 90px""><b>ø</b></div>","null","","","","forget_cue","","","","","","","","","","","","","","","",""
"html-keyboard-response","189","582534","0.0-4.0-1.0-0.23","xqlaokmoxe9hhdm","prime","5f4f9ec28ba701071f985ba3","5f60e3c0a3b16e07647b2ff9","5f638023f46b71066172e548","false","null","<span style=""color: black; font-size: 48px"">N + M</span>","null","","","","resp_prompt","","","","","","","","","","","","","","","",""
"categorize-image","190","583265","0.0-4.0-1.0-1.23","xqlaokmoxe9hhdm","prime","5f4f9ec28ba701071f985ba3","5f60e3c0a3b16e07647b2ff9","5f638023f46b71066172e548","true","727.0499999867752","./Stimuli/SelectedImages/SN/SN52.bmp","83","","","","test","true","N + M","83","repetition","SN","SN52.bmp","remember","","72","3","prime1","left","","","",""
"html-keyboard-response","191","585268","0.0-4.0-1.0-3.23","xqlaokmoxe9hhdm","prime","5f4f9ec28ba701071f985ba3","5f60e3c0a3b16e07647b2ff9","5f638023f46b71066172e548","false","null","<div style=""align-items: center; display: flex; color: dodgerblue; font-size: 90px""><b>o</b></div>","null","","","","forget_cue","","","","","","","","","","","","","","","",""
"html-keyboard-response","192","585971","0.0-4.0-1.0-0.24","xqlaokmoxe9hhdm","prime","5f4f9ec28ba701071f985ba3","5f60e3c0a3b16e07647b2ff9","5f638023f46b71066172e548","false","null","<span style=""color: black; font-size: 48px"">N + M</span>","null","","","","resp_prompt","","","","","","","","","","","","","","","",""
"categorize-image","193","587148","0.0-4.0-1.0-1.24","xqlaokmoxe9hhdm","prime","5f4f9ec28ba701071f985ba3","5f60e3c0a3b16e07647b2ff9","5f638023f46b71066172e548","true","1173.3799999929033","./Stimuli/SelectedImages/SM/SM24.bmp","76","","","","test","true","N + M","76","repetition","SM","SM24.bmp","forget","","73","3","prime1","right","","","",""
"html-keyboard-response","194","589152","0.0-4.0-1.0-3.24","xqlaokmoxe9hhdm","prime","5f4f9ec28ba701071f985ba3","5f60e3c0a3b16e07647b2ff9","5f638023f46b71066172e548","false","null","<div style=""align-items: center; display: flex; color: darkorange; font-size: 90px""><b>ø</b></div>","null","","","","forget_cue","","","","","","","","","","","","","","","",""
"html-keyboard-response","195","589854","0.0-4.0-1.0-0.25","xqlaokmoxe9hhdm","prime","5f4f9ec28ba701071f985ba3","5f60e3c0a3b16e07647b2ff9","5f638023f46b71066172e548","false","null","<span style=""color: black; font-size: 48px"">M + N</span>","null","","","","resp_prompt","","","","","","","","","","","","","","","",""
"categorize-image","196","591049","0.0-4.0-1.0-1.25","xqlaokmoxe9hhdm","prime","5f4f9ec28ba701071f985ba3","5f60e3c0a3b16e07647b2ff9","5f638023f46b71066172e548","true","1190.6699999817647","./Stimuli/SelectedImages/LN/LN42.bmp","76","","","","test","true","M + N","76","repetition","LN","LN42.bmp","forget","","74","3","prime1","right","","","",""
"html-keyboard-response","197","593053","0.0-4.0-1.0-3.25","xqlaokmoxe9hhdm","prime","5f4f9ec28ba701071f985ba3","5f60e3c0a3b16e07647b2ff9","5f638023f46b71066172e548","false","null","<div style=""align-items: center; display: flex; color: darkorange; font-size: 90px""><b>ø</b></div>","null","","","","forget_cue","","","","","","","","","","","","","","","",""
"html-keyboard-response","198","593758","0.0-4.0-1.0-0.26","xqlaokmoxe9hhdm","prime","5f4f9ec28ba701071f985ba3","5f60e3c0a3b16e07647b2ff9","5f638023f46b71066172e548","false","null","<span style=""color: black; font-size: 48px"">M + N</span>","null","","","","resp_prompt","","","","","","","","","","","","","","","",""
"categorize-image","199","594442","0.0-4.0-1.0-1.26","xqlaokmoxe9hhdm","prime","5f4f9ec28ba701071f985ba3","5f60e3c0a3b16e07647b2ff9","5f638023f46b71066172e548","true","678.9149999967776","./Stimuli/SelectedImages/LN/LN128.bmp","76","","","","test","true","M + N","76","switch","LN","LN128.bmp","remember","","75","3","prime1","right","","","",""
"html-keyboard-response","200","596448","0.0-4.0-1.0-3.26","xqlaokmoxe9hhdm","prime","5f4f9ec28ba701071f985ba3","5f60e3c0a3b16e07647b2ff9","5f638023f46b71066172e548","false","null","<div style=""align-items: center; display: flex; color: dodgerblue; font-size: 90px""><b>o</b></div>","null","","","","forget_cue","","","","","","","","","","","","","","","",""
"html-keyboard-response","201","597154","0.0-4.0-1.0-0.27","xqlaokmoxe9hhdm","prime","5f4f9ec28ba701071f985ba3","5f60e3c0a3b16e07647b2ff9","5f638023f46b71066172e548","false","null","<span style=""color: black; font-size: 48px"">N + M</span>","null","","","","resp_prompt","","","","","","","","","","","","","","","",""
"categorize-image","202","597448","0.0-4.0-1.0-1.27","xqlaokmoxe9hhdm","prime","5f4f9ec28ba701071f985ba3","5f60e3c0a3b16e07647b2ff9","5f638023f46b71066172e548","true","290.3999999980442","./Stimuli/SelectedImages/SM/SM78.bmp","83","","","","test","false","N + M","76","repetition","SM","SM78.bmp","remember","","76","3","prime1","left","","","",""
"html-keyboard-response","203","597949","0.0-4.0-1.0-2.27-0.27","xqlaokmoxe9hhdm","prime","5f4f9ec28ba701071f985ba3","5f60e3c0a3b16e07647b2ff9","5f638023f46b71066172e548","false","null","<span style=""color: red; font-size: 48px"">Error!</span>","null","","","","feedback","","","","","","","","","","","","","","","",""
"html-keyboard-response","204","599952","0.0-4.0-1.0-3.27","xqlaokmoxe9hhdm","prime","5f4f9ec28ba701071f985ba3","5f60e3c0a3b16e07647b2ff9","5f638023f46b71066172e548","false","null","<div style=""align-items: center; display: flex; color: dodgerblue; font-size: 90px""><b>o</b></div>","null","","","","forget_cue","","","","","","","","","","","","","","","",""
"html-keyboard-response","205","600654","0.0-4.0-1.0-0.28","xqlaokmoxe9hhdm","prime","5f4f9ec28ba701071f985ba3","5f60e3c0a3b16e07647b2ff9","5f638023f46b71066172e548","false","null","<span style=""color: black; font-size: 48px"">N + M</span>","null","","","","resp_prompt","","","","","","","","","","","","","","","",""
"categorize-image","206","602158","0.0-4.0-1.0-1.28","xqlaokmoxe9hhdm","prime","5f4f9ec28ba701071f985ba3","5f60e3c0a3b16e07647b2ff9","5f638023f46b71066172e548","true","1499.9250000109896","./Stimuli/SelectedImages/LN/LN9.bmp","83","","","","test","true","N + M","83","repetition","LN","LN9.bmp","remember","","77","3","prime1","left","","","",""
"html-keyboard-response","207","604161","0.0-4.0-1.0-3.28","xqlaokmoxe9hhdm","prime","5f4f9ec28ba701071f985ba3","5f60e3c0a3b16e07647b2ff9","5f638023f46b71066172e548","false","null","<div style=""align-items: center; display: flex; color: dodgerblue; font-size: 90px""><b>o</b></div>","null","","","","forget_cue","","","","","","","","","","","","","","","",""
"html-keyboard-response","208","604863","0.0-4.0-1.0-0.29","xqlaokmoxe9hhdm","prime","5f4f9ec28ba701071f985ba3","5f60e3c0a3b16e07647b2ff9","5f638023f46b71066172e548","false","null","<span style=""color: black; font-size: 48px"">M + N</span>","null","","","","resp_prompt","","","","","","","","","","","","","","","",""
"categorize-image","209","606871","0.0-4.0-1.0-1.29","xqlaokmoxe9hhdm","prime","5f4f9ec28ba701071f985ba3","5f60e3c0a3b16e07647b2ff9","5f638023f46b71066172e548","true","null","./Stimuli/SelectedImages/SM/SM148.bmp","null","","","","test","false","M + N","83","switch","SM","SM148.bmp","remember","","78","3","prime1","too_slow","","","",""
"html-keyboard-response","210","607376","0.0-4.0-1.0-2.29-0.29","xqlaokmoxe9hhdm","prime","5f4f9ec28ba701071f985ba3","5f60e3c0a3b16e07647b2ff9","5f638023f46b71066172e548","false","null","<span style=""color: red; font-size: 48px"">Too slow!</span>","null","","","","feedback","","","","","","","","","","","","","","","",""
"html-keyboard-response","211","609381","0.0-4.0-1.0-3.29","xqlaokmoxe9hhdm","prime","5f4f9ec28ba701071f985ba3","5f60e3c0a3b16e07647b2ff9","5f638023f46b71066172e548","false","null","<div style=""align-items: center; display: flex; color: dodgerblue; font-size: 90px""><b>o</b></div>","null","","","","forget_cue","","","","","","","","","","","","","","","",""
"html-keyboard-response","212","610084","0.0-4.0-1.0-0.30","xqlaokmoxe9hhdm","prime","5f4f9ec28ba701071f985ba3","5f60e3c0a3b16e07647b2ff9","5f638023f46b71066172e548","false","null","<span style=""color: black; font-size: 48px"">N + M</span>","null","","","","resp_prompt","","","","","","","","","","","","","","","",""
"categorize-image","213","611174","0.0-4.0-1.0-1.30","xqlaokmoxe9hhdm","prime","5f4f9ec28ba701071f985ba3","5f60e3c0a3b16e07647b2ff9","5f638023f46b71066172e548","true","1075.2750000101514","./Stimuli/SelectedImages/LM/LM129.bmp","76","","","","test","true","N + M","76","switch","LM","LM129.bmp","remember","","79","3","prime1","right","","","",""
"html-keyboard-response","214","613176","0.0-4.0-1.0-3.30","xqlaokmoxe9hhdm","prime","5f4f9ec28ba701071f985ba3","5f60e3c0a3b16e07647b2ff9","5f638023f46b71066172e548","false","null","<div style=""align-items: center; display: flex; color: dodgerblue; font-size: 90px""><b>o</b></div>","null","","","","forget_cue","","","","","","","","","","","","","","","",""
"html-keyboard-response","215","613878","0.0-4.0-1.0-0.31","xqlaokmoxe9hhdm","prime","5f4f9ec28ba701071f985ba3","5f60e3c0a3b16e07647b2ff9","5f638023f46b71066172e548","false","null","<span style=""color: black; font-size: 48px"">N + M</span>","null","","","","resp_prompt","","","","","","","","","","","","","","","",""
"categorize-image","216","614888","0.0-4.0-1.0-1.31","xqlaokmoxe9hhdm","prime","5f4f9ec28ba701071f985ba3","5f60e3c0a3b16e07647b2ff9","5f638023f46b71066172e548","true","1007.45000000461","./Stimuli/SelectedImages/SN/SN187.bmp","83","","","","test","true","N + M","83","repetition","SN","SN187.bmp","forget","","80","3","prime1","left","","","",""
"html-keyboard-response","217","616891","0.0-4.0-1.0-3.31","xqlaokmoxe9hhdm","prime","5f4f9ec28ba701071f985ba3","5f60e3c0a3b16e07647b2ff9","5f638023f46b71066172e548","false","null","<div style=""align-items: center; display: flex; color: darkorange; font-size: 90px""><b>ø</b></div>","null","","","","forget_cue","","","","","","","","","","","","","","","",""
"html-keyboard-response","218","617593","0.0-4.0-1.0-0.32","xqlaokmoxe9hhdm","prime","5f4f9ec28ba701071f985ba3","5f60e3c0a3b16e07647b2ff9","5f638023f46b71066172e548","false","null","<span style=""color: black; font-size: 48px"">N + M</span>","null","","","","resp_prompt","","","","","","","","","","","","","","","",""
"categorize-image","219","618558","0.0-4.0-1.0-1.32","xqlaokmoxe9hhdm","prime","5f4f9ec28ba701071f985ba3","5f60e3c0a3b16e07647b2ff9","5f638023f46b71066172e548","true","962.3250000004191","./Stimuli/SelectedImages/LM/LM167.bmp","76","","","","test","true","N + M","76","switch","LM","LM167.bmp","forget","","81","3","prime1","right","","","",""
"html-keyboard-response","220","620560","0.0-4.0-1.0-3.32","xqlaokmoxe9hhdm","prime","5f4f9ec28ba701071f985ba3","5f60e3c0a3b16e07647b2ff9","5f638023f46b71066172e548","false","null","<div style=""align-items: center; display: flex; color: darkorange; font-size: 90px""><b>ø</b></div>","null","","","","forget_cue","","","","","","","","","","","","","","","",""
"html-keyboard-response","221","621262","0.0-4.0-1.0-0.33","xqlaokmoxe9hhdm","prime","5f4f9ec28ba701071f985ba3","5f60e3c0a3b16e07647b2ff9","5f638023f46b71066172e548","false","null","<span style=""color: black; font-size: 48px"">N + M</span>","null","","","","resp_prompt","","","","","","","","","","","","","","","",""
"categorize-image","222","621912","0.0-4.0-1.0-1.33","xqlaokmoxe9hhdm","prime","5f4f9ec28ba701071f985ba3","5f60e3c0a3b16e07647b2ff9","5f638023f46b71066172e548","true","647.354999993695","./Stimuli/SelectedImages/LM/LM235.bmp","76","","","","test","true","N + M","76","repetition","LM","LM235.bmp","remember","","82","3","prime1","right","","","",""
"html-keyboard-response","223","623915","0.0-4.0-1.0-3.33","xqlaokmoxe9hhdm","prime","5f4f9ec28ba701071f985ba3","5f60e3c0a3b16e07647b2ff9","5f638023f46b71066172e548","false","null","<div style=""align-items: center; display: flex; color: dodgerblue; font-size: 90px""><b>o</b></div>","null","","","","forget_cue","","","","","","","","","","","","","","","",""
"html-keyboard-response","224","624617","0.0-4.0-1.0-0.34","xqlaokmoxe9hhdm","prime","5f4f9ec28ba701071f985ba3","5f60e3c0a3b16e07647b2ff9","5f638023f46b71066172e548","false","null","<span style=""color: black; font-size: 48px"">N + M</span>","null","","","","resp_prompt","","","","","","","","","","","","","","","",""
"categorize-image","225","625268","0.0-4.0-1.0-1.34","xqlaokmoxe9hhdm","prime","5f4f9ec28ba701071f985ba3","5f60e3c0a3b16e07647b2ff9","5f638023f46b71066172e548","true","639.435000019148","./Stimuli/SelectedImages/LN/LN92.bmp","76","","","","test","false","N + M","83","switch","LN","LN92.bmp","forget","","83","3","prime1","right","","","",""
"html-keyboard-response","226","625771","0.0-4.0-1.0-2.34-0.34","xqlaokmoxe9hhdm","prime","5f4f9ec28ba701071f985ba3","5f60e3c0a3b16e07647b2ff9","5f638023f46b71066172e548","false","null","<span style=""color: red; font-size: 48px"">Error!</span>","null","","","","feedback","","","","","","","","","","","","","","","",""
"html-keyboard-response","227","627776","0.0-4.0-1.0-3.34","xqlaokmoxe9hhdm","prime","5f4f9ec28ba701071f985ba3","5f60e3c0a3b16e07647b2ff9","5f638023f46b71066172e548","false","null","<div style=""align-items: center; display: flex; color: darkorange; font-size: 90px""><b>ø</b></div>","null","","","","forget_cue","","","","","","","","","","","","","","","",""
"html-keyboard-response","228","628479","0.0-4.0-1.0-0.35","xqlaokmoxe9hhdm","prime","5f4f9ec28ba701071f985ba3","5f60e3c0a3b16e07647b2ff9","5f638023f46b71066172e548","false","null","<span style=""color: black; font-size: 48px"">M + N</span>","null","","","","resp_prompt","","","","","","","","","","","","","","","",""
"categorize-image","229","629231","0.0-4.0-1.0-1.35","xqlaokmoxe9hhdm","prime","5f4f9ec28ba701071f985ba3","5f60e3c0a3b16e07647b2ff9","5f638023f46b71066172e548","true","746.9849999761209","./Stimuli/SelectedImages/SM/SM17.bmp","83","","","","test","true","M + N","83","repetition","SM","SM17.bmp","remember","","84","3","prime1","left","","","",""
"html-keyboard-response","230","631236","0.0-4.0-1.0-3.35","xqlaokmoxe9hhdm","prime","5f4f9ec28ba701071f985ba3","5f60e3c0a3b16e07647b2ff9","5f638023f46b71066172e548","false","null","<div style=""align-items: center; display: flex; color: dodgerblue; font-size: 90px""><b>o</b></div>","null","","","","forget_cue","","","","","","","","","","","","","","","",""
"html-keyboard-response","231","631941","0.0-4.0-1.0-0.36","xqlaokmoxe9hhdm","prime","5f4f9ec28ba701071f985ba3","5f60e3c0a3b16e07647b2ff9","5f638023f46b71066172e548","false","null","<span style=""color: black; font-size: 48px"">N + M</span>","null","","","","resp_prompt","","","","","","","","","","","","","","","",""
"categorize-image","232","633619","0.0-4.0-1.0-1.36","xqlaokmoxe9hhdm","prime","5f4f9ec28ba701071f985ba3","5f60e3c0a3b16e07647b2ff9","5f638023f46b71066172e548","true","1673.9800000214018","./Stimuli/SelectedImages/SM/SM195.bmp","76","","","","test","true","N + M","76","repetition","SM","SM195.bmp","forget","","85","3","prime1","right","","","",""
"html-keyboard-response","233","635624","0.0-4.0-1.0-3.36","xqlaokmoxe9hhdm","prime","5f4f9ec28ba701071f985ba3","5f60e3c0a3b16e07647b2ff9","5f638023f46b71066172e548","false","null","<div style=""align-items: center; display: flex; color: darkorange; font-size: 90px""><b>ø</b></div>","null","","","","forget_cue","","","","","","","","","","","","","","","",""
"html-keyboard-response","234","636327","0.0-4.0-1.0-0.37","xqlaokmoxe9hhdm","prime","5f4f9ec28ba701071f985ba3","5f60e3c0a3b16e07647b2ff9","5f638023f46b71066172e548","false","null","<span style=""color: black; font-size: 48px"">N + M</span>","null","","","","resp_prompt","","","","","","","","","","","","","","","",""
"categorize-image","235","637166","0.0-4.0-1.0-1.37","xqlaokmoxe9hhdm","prime","5f4f9ec28ba701071f985ba3","5f60e3c0a3b16e07647b2ff9","5f638023f46b71066172e548","true","834.4599999836646","./Stimuli/SelectedImages/LM/LM75.bmp","76","","","","test","true","N + M","76","repetition","LM","LM75.bmp","forget","","86","3","prime1","right","","","",""
"html-keyboard-response","236","639172","0.0-4.0-1.0-3.37","xqlaokmoxe9hhdm","prime","5f4f9ec28ba701071f985ba3","5f60e3c0a3b16e07647b2ff9","5f638023f46b71066172e548","false","null","<div style=""align-items: center; display: flex; color: darkorange; font-size: 90px""><b>ø</b></div>","null","","","","forget_cue","","","","","","","","","","","","","","","",""
"html-keyboard-response","237","639878","0.0-4.0-1.0-0.38","xqlaokmoxe9hhdm","prime","5f4f9ec28ba701071f985ba3","5f60e3c0a3b16e07647b2ff9","5f638023f46b71066172e548","false","null","<span style=""color: black; font-size: 48px"">M + N</span>","null","","","","resp_prompt","","","","","","","","","","","","","","","",""
"categorize-image","238","640591","0.0-4.0-1.0-1.38","xqlaokmoxe9hhdm","prime","5f4f9ec28ba701071f985ba3","5f60e3c0a3b16e07647b2ff9","5f638023f46b71066172e548","true","707.2249999910127","./Stimuli/SelectedImages/LN/LN28.bmp","76","","","","test","true","M + N","76","repetition","LN","LN28.bmp","remember","","87","3","prime1","right","","","",""
"html-keyboard-response","239","642596","0.0-4.0-1.0-3.38","xqlaokmoxe9hhdm","prime","5f4f9ec28ba701071f985ba3","5f60e3c0a3b16e07647b2ff9","5f638023f46b71066172e548","false","null","<div style=""align-items: center; display: flex; color: dodgerblue; font-size: 90px""><b>o</b></div>","null","","","","forget_cue","","","","","","","","","","","","","","","",""
"html-keyboard-response","240","643299","0.0-4.0-1.0-0.39","xqlaokmoxe9hhdm","prime","5f4f9ec28ba701071f985ba3","5f60e3c0a3b16e07647b2ff9","5f638023f46b71066172e548","false","null","<span style=""color: black; font-size: 48px"">M + N</span>","null","","","","resp_prompt","","","","","","","","","","","","","","","",""
"categorize-image","241","644633","0.0-4.0-1.0-1.39","xqlaokmoxe9hhdm","prime","5f4f9ec28ba701071f985ba3","5f60e3c0a3b16e07647b2ff9","5f638023f46b71066172e548","true","1331.6350000095554","./Stimuli/SelectedImages/LM/LM150.bmp","83","","","","test","true","M + N","83","switch","LM","LM150.bmp","forget","","88","3","prime1","left","","","",""
"html-keyboard-response","242","646637","0.0-4.0-1.0-3.39","xqlaokmoxe9hhdm","prime","5f4f9ec28ba701071f985ba3","5f60e3c0a3b16e07647b2ff9","5f638023f46b71066172e548","false","null","<div style=""align-items: center; display: flex; color: darkorange; font-size: 90px""><b>ø</b></div>","null","","","","forget_cue","","","","","","","","","","","","","","","",""
"html-keyboard-response","243","647339","0.0-4.0-1.0-0.40","xqlaokmoxe9hhdm","prime","5f4f9ec28ba701071f985ba3","5f60e3c0a3b16e07647b2ff9","5f638023f46b71066172e548","false","null","<span style=""color: black; font-size: 48px"">N + M</span>","null","","","","resp_prompt","","","","","","","","","","","","","","","",""
"categorize-image","244","648894","0.0-4.0-1.0-1.40","xqlaokmoxe9hhdm","prime","5f4f9ec28ba701071f985ba3","5f60e3c0a3b16e07647b2ff9","5f638023f46b71066172e548","true","1550.4649999784306","./Stimuli/SelectedImages/LN/LN150.bmp","76","","","","test","false","N + M","83","switch","LN","LN150.bmp","forget","","89","3","prime1","right","","","",""
"html-keyboard-response","245","649397","0.0-4.0-1.0-2.40-0.40","xqlaokmoxe9hhdm","prime","5f4f9ec28ba701071f985ba3","5f60e3c0a3b16e07647b2ff9","5f638023f46b71066172e548","false","null","<span style=""color: red; font-size: 48px"">Error!</span>","null","","","","feedback","","","","","","","","","","","","","","","",""
"html-keyboard-response","246","651403","0.0-4.0-1.0-3.40","xqlaokmoxe9hhdm","prime","5f4f9ec28ba701071f985ba3","5f60e3c0a3b16e07647b2ff9","5f638023f46b71066172e548","false","null","<div style=""align-items: center; display: flex; color: darkorange; font-size: 90px""><b>ø</b></div>","null","","","","forget_cue","","","","","","","","","","","","","","","",""
"html-keyboard-response","247","652107","0.0-4.0-1.0-0.41","xqlaokmoxe9hhdm","prime","5f4f9ec28ba701071f985ba3","5f60e3c0a3b16e07647b2ff9","5f638023f46b71066172e548","false","null","<span style=""color: black; font-size: 48px"">M + N</span>","null","","","","resp_prompt","","","","","","","","","","","","","","","",""
"categorize-image","248","653068","0.0-4.0-1.0-1.41","xqlaokmoxe9hhdm","prime","5f4f9ec28ba701071f985ba3","5f60e3c0a3b16e07647b2ff9","5f638023f46b71066172e548","true","957.909999997355","./Stimuli/SelectedImages/SN/SN93.bmp","76","","","","test","true","M + N","76","repetition","SN","SN93.bmp","remember","","90","3","prime1","right","","","",""
"html-keyboard-response","249","655071","0.0-4.0-1.0-3.41","xqlaokmoxe9hhdm","prime","5f4f9ec28ba701071f985ba3","5f60e3c0a3b16e07647b2ff9","5f638023f46b71066172e548","false","null","<div style=""align-items: center; display: flex; color: dodgerblue; font-size: 90px""><b>o</b></div>","null","","","","forget_cue","","","","","","","","","","","","","","","",""
"html-keyboard-response","250","655774","0.0-4.0-1.0-0.42","xqlaokmoxe9hhdm","prime","5f4f9ec28ba701071f985ba3","5f60e3c0a3b16e07647b2ff9","5f638023f46b71066172e548","false","null","<span style=""color: black; font-size: 48px"">M + N</span>","null","","","","resp_prompt","","","","","","","","","","","","","","","",""
"categorize-image","251","657781","0.0-4.0-1.0-1.42","xqlaokmoxe9hhdm","prime","5f4f9ec28ba701071f985ba3","5f60e3c0a3b16e07647b2ff9","5f638023f46b71066172e548","true","null","./Stimuli/SelectedImages/LN/LN59.bmp","null","","","","test","false","M + N","76","switch","LN","LN59.bmp","forget","","91","3","prime1","too_slow","","","",""
"html-keyboard-response","252","658287","0.0-4.0-1.0-2.42-0.42","xqlaokmoxe9hhdm","prime","5f4f9ec28ba701071f985ba3","5f60e3c0a3b16e07647b2ff9","5f638023f46b71066172e548","false","null","<span style=""color: red; font-size: 48px"">Too slow!</span>","null","","","","feedback","","","","","","","","","","","","","","","",""
