"trial_type","trial_index","time_elapsed","internal_node_id","subject","exp_part","prolific_PID","study_ID","session_ID","use","rt","stimulus","key_press","button_pressed","responses","question_order","trial_part","correct","resp_map","correct_resp","probe_condition","category","image","forget_condition","list","trial_num","block_num","block","response","test_part","n_span","sequence","num_spaces"
"pavlovia","0","11","0.0-0.0","ur61l6xs0odwb3n","","5e482352020bde2be9b4ded1","5f60e3c0a3b16e07647b2ff9","5f60eb6248b00e0009dc65a5","false","","","","","","","","","","","","","","","","","","","","","","",""
"html-keyboard-response","1","22630","0.0-1.0-0.0-0.0","ur61l6xs0odwb3n","welcome","5e482352020bde2be9b4ded1","5f60e3c0a3b16e07647b2ff9","5f60eb6248b00e0009dc65a5","false","22613.60999999988","<div align=left>Dear participant, <br> thank you for participating in an online study of the Cognition, Action, and Sustainability Unit of the University of Freiburg! <br> <br>The aim of this study is to examine our ability to remember previously learned information. <br>Our goal is to find out, whether our memory improves, when we only remember information that is relevant to us. <br>The experiment will take about 35 minutes to complete. <br> <br>Please, note that you can only participate in this study if you are using a device with a keyboard (PC, Laptop etc.) <br>and not if you are using a mobile device such as a tablet or smartphone.<br> <br>Press 'SPACE' to proceed to the experiment. </div>","32","","","","","","","","","","","","","","","","","","","",""
"html-keyboard-response","2","60463","0.0-1.0-0.0-1.0","ur61l6xs0odwb3n","welcome","5e482352020bde2be9b4ded1","5f60e3c0a3b16e07647b2ff9","5f60eb6248b00e0009dc65a5","false","37829.540000000175","<div align=left><strong> Time Course of this experiment: </strong> <br><br> <strong> 1.</strong>  First, please fill in some information regarding your demographic data. <br><br> <strong> 2.</strong>  Next, your task will be to classify everyday objects. <br>In addition, you will be asked to remember certain objects and recall them later. <br>Working on these tasks requires your undivided attention and concentration.<br>It is therefore essential that you eliminate any sources of distraction in your  <br>environment and ensure that you will not be disturbed. <br><br><strong> 3.</strong>  At the end of the experiment, you will be asked to answer a few additional questions. <br> <br><strong> Important:</strong> After finishing the experiment, only close the browser window <br> by clicking on the 'end the experiment'-button when you are asked to do so. <br>Closing the browser window prematurely will make the allocation of your participation credit impossible. <br><br> Press 'SPACE' to start the experiment. </div>","32","","","","","","","","","","","","","","","","","","","",""
"html-button-response","3","65945","0.0-1.0-0.0-2.0","ur61l6xs0odwb3n","welcome","5e482352020bde2be9b4ded1","5f60e3c0a3b16e07647b2ff9","5f60eb6248b00e0009dc65a5","true","5478.034999999858","<div align=left><strong> Informed consent </strong>  <br>The aim of our research is to better understand human behavior and mental processes. <br>In the following study your behavior (e.g. choices, reaction times) will be studied. <br> <br><strong> Voluntariness and Anonymity </strong> <br>Your participation in this study is  <strong> voluntary</strong>.<br>You may withdraw your consent to participate at any time without providing a reason for doing so and without fear of prejudice. <br><br>As no personal data will be collected, <strong>your data and your person cannot be connected after data collection</strong> – the data-set is anonymous. <br>Respectively, deletion of your data will not be possible after data collection has been completed, as we cannot retrace your data-set.<br>The results and anonymized data collected in this study will be published as a scientific publication. <br>This will happen in an <strong>anonymized format</strong>, so that no data can be traced back to a specific person. <br> <br>The anonymized data of this study will be made available to other researchers and/or in a data archive on the Internet as a means of transparency and to enable subsequent re-use. By doing so, this study follows the recommendations of the Deutsche Forschungsgemeinschaft (DFG, German Research Foundation) and Deutsche Gesellschaft für Psychologie (DGPS, German Psychological Society) regarding quality assurance in research.<br>If you have any questions now or after the experiment, please contact our team (experiments@cs.uni-freiburg.de).<br><br><br>I hereby declare, that I understand the above described conditions of participation and I agree to participate under these conditions. <br><br> </div>","","0","","","","","","","","","","","","","","","","","","",""
"html-keyboard-response","4","84346","0.0-1.0-0.0-3.0","ur61l6xs0odwb3n","welcome","5e482352020bde2be9b4ded1","5f60e3c0a3b16e07647b2ff9","5f60eb6248b00e0009dc65a5","false","18397.699999999997","<div align=left><strong> General information concerning the experiment </strong>  <br> <br>Please follow the instructions:<ol> <li><strong> Do not leave this tab (your browser window) during the experiment and do not reload this tab! </strong>  <br>If you do switch tabs/windows during the experiment (to check your mail or visit another website, for example), <br>the experiment will end automatically and you will <strong>not receive credit</strong> for your participation. <br>Repeated participation or resumption of the experiment is impossible.</li> <br><li>Please close all other programs for the duration of your participation. </li> <br><li>Please mute or turn off your phone and put it out of your reach. </li> <br><li>Please also take off any disturbing accessories (such as wristwatches, bracelets, etc.). </li> <br><li>If you have music playing in the background, please turn it off now. </li> <br></ol>Thank you! <br>Press 'SPACE' to continue. </div>","32","","","","","","","","","","","","","","","","","","","",""
"survey-text","5","89215","0.0-1.0-1.0-0.0","ur61l6xs0odwb3n","demographics","5e482352020bde2be9b4ded1","5f60e3c0a3b16e07647b2ff9","5f60eb6248b00e0009dc65a5","true","4858.690000000031","","","","{""age"":""31""}","","","","","","","","","","","","","","","","","",""
"survey-multi-choice","6","139466","0.0-1.0-1.0-1.0","ur61l6xs0odwb3n","demographics","5e482352020bde2be9b4ded1","5f60e3c0a3b16e07647b2ff9","5f60eb6248b00e0009dc65a5","true","50243.47499999998","","","","{""gender"":""male"",""school"":""high school"",""education"":""Completed university degree or equivalent""}","[0,1,2]","","","","","","","","","","","","","","","","",""
"html-keyboard-response","7","167144","0.0-1.0-2.0","ur61l6xs0odwb3n","instructions","5e482352020bde2be9b4ded1","5f60e3c0a3b16e07647b2ff9","5f60eb6248b00e0009dc65a5","false","27673.240000000078","<div align=left> The experiment is now about to start: <br> <br>In the following part, you will be presented pictures of everyday objects. <br>Your first task is to <strong>classify these objects. </strong> <br> <br> You will classify them either as mechanical or non-mechanical objects. <br> <br>Objects that include any kind of technical mechanism (for example, wheels, switches, levers, <br> electronic components) fall under the category of <strong>mechanical</strong> objects. <br>Only objects without any kind of technical mechanism should be classified as <strong>non-mechanical</strong>. <br><br>Press 'SPACE' to continue. </div>","32","","","","","","","","","","","","","","","","","","","",""
"html-keyboard-response","8","206747","0.0-2.0-0.0","ur61l6xs0odwb3n","instructions","5e482352020bde2be9b4ded1","5f60e3c0a3b16e07647b2ff9","5f60eb6248b00e0009dc65a5","false","39599.17500000005","<div align=justify>You will classify the objects using the <strong>'S'</strong> and the <strong>'L'</strong> keys on your keyboard.<br>For doing so, please place your <strong>left index finger</strong> on the <strong>'S'</strong> key and place your <strong>right index finger</strong> on the <strong>'L'</strong> key. <br><br> Each trial starts with an instruction, indicating which key ('S'/'L') you need to press to classify <br>the object as mechanical (letter M) or non-mechanical (letter N).<br>The instruction <strong>M + N</strong> indicates that, in the current trial, by pressing the left key ('S') you classify the displayed object as mechanical (M) <br> and by pressing the right key ('L') you classify the object as non-mechanical (N). <br>The instruction <strong>N + M</strong> on the other hand indicates that by pressing the left key ('S') you classify the displayed object as non-mechanical (N) <br> and by pressing the right key ('L') you classify the object as mechanical (M). <br><br>Please press the key corresponding to the correct classification as fast as possible as soon as the object is displayed and try to avoid making mistakes.<br>If you do not respond within a 2 second window, a corresponding feedback will be displayed and the next trial will start.<br> The experiment is divided into multiple blocks to give you the opportunity to take a break after each block. <br>First, you can now practice this task. <br><br>Please place your <strong>LEFT INDEX FINGER</strong> on the 'S' key and your <strong>RIGHT INDEX FINGER</strong> on the 'L' key now. <br><br>Press SPACE to continue.</div>","32","","","","","","","","","","","","","","","","","","","",""
"html-keyboard-response","9","211808","0.0-2.0-1.0","ur61l6xs0odwb3n","instructions","5e482352020bde2be9b4ded1","5f60e3c0a3b16e07647b2ff9","5f60eb6248b00e0009dc65a5","false","5058.324999999953","<div align=left> You will now have time to practice this task.<br><br>Remember: <br> <br><li>Please place your index fingers on the <strong>'S'</strong> and <strong>'L'</strong> keys <br>to respond as fast and accurately as possible.</li><li>Every picture can be classified as either mechanical or non-mechanical.</li><li>If you do not respond in time or commit an error, you will receive a corresponding feedback. </li><li> Please try to respond as <strong> fast </strong> and as <strong> accurately as possible </strong> .<br><li>To ensure optimal results, please minimize distractions and stay focused. </li><br><br>Press SPACE to continue.</div>","32","","","","","","","","","","","","","","","","","","","",""
"html-keyboard-response","10","212513","0.0-2.0-2.0-0.0","ur61l6xs0odwb3n","practice_no_cue","5e482352020bde2be9b4ded1","5f60e3c0a3b16e07647b2ff9","5f60eb6248b00e0009dc65a5","false","null","<span style=""color: black; font-size: 48px"">N + M</span>","null","","","","resp_prompt","","","","","","","","","","","","","","","",""
"categorize-image","11","215007","0.0-2.0-2.0-1.0","ur61l6xs0odwb3n","practice_no_cue","5e482352020bde2be9b4ded1","5f60e3c0a3b16e07647b2ff9","5f60eb6248b00e0009dc65a5","true","1988.5699999999779","./Stimuli/ImagesPractice/LN4.jpg","76","","","","test","false","N + M","83","","LN","LN4.jpg","forget","old","1","1","start","right","","","",""
"html-keyboard-response","12","215710","0.0-2.0-2.0-0.1","ur61l6xs0odwb3n","practice_no_cue","5e482352020bde2be9b4ded1","5f60e3c0a3b16e07647b2ff9","5f60eb6248b00e0009dc65a5","false","null","<span style=""color: black; font-size: 48px"">N + M</span>","null","","","","resp_prompt","","","","","","","","","","","","","","","",""
"categorize-image","13","217137","0.0-2.0-2.0-1.1","ur61l6xs0odwb3n","practice_no_cue","5e482352020bde2be9b4ded1","5f60e3c0a3b16e07647b2ff9","5f60eb6248b00e0009dc65a5","true","923.4749999998312","./Stimuli/ImagesPractice/LM230.jpg","83","","","","test","false","N + M","76","","LM","LM230.jpg","remember","old","2","1","start","left","","","",""
"html-keyboard-response","14","217839","0.0-2.0-2.0-0.2","ur61l6xs0odwb3n","practice_no_cue","5e482352020bde2be9b4ded1","5f60e3c0a3b16e07647b2ff9","5f60eb6248b00e0009dc65a5","false","null","<span style=""color: black; font-size: 48px"">N + M</span>","null","","","","resp_prompt","","","","","","","","","","","","","","","",""
"categorize-image","15","219827","0.0-2.0-2.0-1.2","ur61l6xs0odwb3n","practice_no_cue","5e482352020bde2be9b4ded1","5f60e3c0a3b16e07647b2ff9","5f60eb6248b00e0009dc65a5","true","1484.554999999993","./Stimuli/ImagesPractice/SN220.jpg","76","","","","test","false","N + M","83","","SN","SN220.jpg","remember","old","3","1","start","right","","","",""
"html-keyboard-response","16","220530","0.0-2.0-2.0-0.3","ur61l6xs0odwb3n","practice_no_cue","5e482352020bde2be9b4ded1","5f60e3c0a3b16e07647b2ff9","5f60eb6248b00e0009dc65a5","false","null","<span style=""color: black; font-size: 48px"">N + M</span>","null","","","","resp_prompt","","","","","","","","","","","","","","","",""
"categorize-image","17","222532","0.0-2.0-2.0-1.3","ur61l6xs0odwb3n","practice_no_cue","5e482352020bde2be9b4ded1","5f60e3c0a3b16e07647b2ff9","5f60eb6248b00e0009dc65a5","true","1497.7299999998068","./Stimuli/ImagesPractice/LN2.jpg","83","","","","test","true","N + M","83","","LN","LN2.jpg","remember","old","4","1","start","left","","","",""
"html-keyboard-response","18","223234","0.0-2.0-2.0-0.4","ur61l6xs0odwb3n","practice_no_cue","5e482352020bde2be9b4ded1","5f60e3c0a3b16e07647b2ff9","5f60eb6248b00e0009dc65a5","false","null","<span style=""color: black; font-size: 48px"">M + N</span>","null","","","","resp_prompt","","","","","","","","","","","","","","","",""
"categorize-image","19","224689","0.0-2.0-2.0-1.4","ur61l6xs0odwb3n","practice_no_cue","5e482352020bde2be9b4ded1","5f60e3c0a3b16e07647b2ff9","5f60eb6248b00e0009dc65a5","true","950.4500000000407","./Stimuli/ImagesPractice/LM147.jpg","83","","","","test","true","M + N","83","","LM","LM147.jpg","forget","old","5","1","start","left","","","",""
"html-keyboard-response","20","225391","0.0-2.0-2.0-0.5","ur61l6xs0odwb3n","practice_no_cue","5e482352020bde2be9b4ded1","5f60e3c0a3b16e07647b2ff9","5f60eb6248b00e0009dc65a5","false","null","<span style=""color: black; font-size: 48px"">N + M</span>","null","","","","resp_prompt","","","","","","","","","","","","","","","",""
"categorize-image","21","226715","0.0-2.0-2.0-1.5","ur61l6xs0odwb3n","practice_no_cue","5e482352020bde2be9b4ded1","5f60e3c0a3b16e07647b2ff9","5f60eb6248b00e0009dc65a5","true","820.9049999997951","./Stimuli/ImagesPractice/SN221.jpg","76","","","","test","false","N + M","83","","SN","SN221.jpg","forget","old","6","1","start","right","","","",""
"html-keyboard-response","22","227417","0.0-2.0-2.0-0.6","ur61l6xs0odwb3n","practice_no_cue","5e482352020bde2be9b4ded1","5f60e3c0a3b16e07647b2ff9","5f60eb6248b00e0009dc65a5","false","null","<span style=""color: black; font-size: 48px"">M + N</span>","null","","","","resp_prompt","","","","","","","","","","","","","","","",""
"categorize-image","23","229574","0.0-2.0-2.0-1.6","ur61l6xs0odwb3n","practice_no_cue","5e482352020bde2be9b4ded1","5f60e3c0a3b16e07647b2ff9","5f60eb6248b00e0009dc65a5","true","1653.645000000106","./Stimuli/ImagesPractice/LN72.jpg","83","","","","test","false","M + N","76","","LN","LN72.jpg","forget","old","7","1","start","left","","","",""
"html-keyboard-response","24","230276","0.0-2.0-2.0-0.7","ur61l6xs0odwb3n","practice_no_cue","5e482352020bde2be9b4ded1","5f60e3c0a3b16e07647b2ff9","5f60eb6248b00e0009dc65a5","false","null","<span style=""color: black; font-size: 48px"">M + N</span>","null","","","","resp_prompt","","","","","","","","","","","","","","","",""
"categorize-image","25","231467","0.0-2.0-2.0-1.7","ur61l6xs0odwb3n","practice_no_cue","5e482352020bde2be9b4ded1","5f60e3c0a3b16e07647b2ff9","5f60eb6248b00e0009dc65a5","true","687.204999999929","./Stimuli/ImagesPractice/LM143.jpg","83","","","","test","true","M + N","83","","LM","LM143.jpg","remember","old","8","1","start","left","","","",""
"html-keyboard-response","26","232174","0.0-2.0-2.0-0.8","ur61l6xs0odwb3n","practice_no_cue","5e482352020bde2be9b4ded1","5f60e3c0a3b16e07647b2ff9","5f60eb6248b00e0009dc65a5","false","null","<span style=""color: black; font-size: 48px"">M + N</span>","null","","","","resp_prompt","","","","","","","","","","","","","","","",""
"categorize-image","27","233323","0.0-2.0-2.0-1.8","ur61l6xs0odwb3n","practice_no_cue","5e482352020bde2be9b4ded1","5f60e3c0a3b16e07647b2ff9","5f60eb6248b00e0009dc65a5","true","645.0999999999767","./Stimuli/ImagesPractice/LM224.jpg","83","","","","test","true","M + N","83","","LM","LM224.jpg","remember","old","9","1","start","left","","","",""
"html-keyboard-response","28","234025","0.0-2.0-2.0-0.9","ur61l6xs0odwb3n","practice_no_cue","5e482352020bde2be9b4ded1","5f60e3c0a3b16e07647b2ff9","5f60eb6248b00e0009dc65a5","false","null","<span style=""color: black; font-size: 48px"">N + M</span>","null","","","","resp_prompt","","","","","","","","","","","","","","","",""
"categorize-image","29","235207","0.0-2.0-2.0-1.9","ur61l6xs0odwb3n","practice_no_cue","5e482352020bde2be9b4ded1","5f60e3c0a3b16e07647b2ff9","5f60eb6248b00e0009dc65a5","true","678.5950000000885","./Stimuli/ImagesPractice/LN109.jpg","76","","","","test","false","N + M","83","","LN","LN109.jpg","forget","old","10","1","start","right","","","",""
"html-keyboard-response","30","235909","0.0-2.0-2.0-0.10","ur61l6xs0odwb3n","practice_no_cue","5e482352020bde2be9b4ded1","5f60e3c0a3b16e07647b2ff9","5f60eb6248b00e0009dc65a5","false","null","<span style=""color: black; font-size: 48px"">M + N</span>","null","","","","resp_prompt","","","","","","","","","","","","","","","",""
"categorize-image","31","237275","0.0-2.0-2.0-1.10","ur61l6xs0odwb3n","practice_no_cue","5e482352020bde2be9b4ded1","5f60e3c0a3b16e07647b2ff9","5f60eb6248b00e0009dc65a5","true","861.7400000000489","./Stimuli/ImagesPractice/SN75.jpg","76","","","","test","true","M + N","76","","SN","SN75.jpg","remember","old","11","1","start","right","","","",""
"html-keyboard-response","32","237977","0.0-2.0-2.0-0.11","ur61l6xs0odwb3n","practice_no_cue","5e482352020bde2be9b4ded1","5f60e3c0a3b16e07647b2ff9","5f60eb6248b00e0009dc65a5","false","null","<span style=""color: black; font-size: 48px"">N + M</span>","null","","","","resp_prompt","","","","","","","","","","","","","","","",""
"categorize-image","33","239168","0.0-2.0-2.0-1.11","ur61l6xs0odwb3n","practice_no_cue","5e482352020bde2be9b4ded1","5f60e3c0a3b16e07647b2ff9","5f60eb6248b00e0009dc65a5","true","687.4100000000035","./Stimuli/ImagesPractice/SM62.jpg","76","","","","test","true","N + M","76","","SM","SM62.jpg","forget","old","12","1","start","right","","","",""
"html-keyboard-response","34","239870","0.0-2.0-2.0-0.12","ur61l6xs0odwb3n","practice_no_cue","5e482352020bde2be9b4ded1","5f60e3c0a3b16e07647b2ff9","5f60eb6248b00e0009dc65a5","false","null","<span style=""color: black; font-size: 48px"">N + M</span>","null","","","","resp_prompt","","","","","","","","","","","","","","","",""
"categorize-image","35","241315","0.0-2.0-2.0-1.12","ur61l6xs0odwb3n","practice_no_cue","5e482352020bde2be9b4ded1","5f60e3c0a3b16e07647b2ff9","5f60eb6248b00e0009dc65a5","true","941.1549999999988","./Stimuli/ImagesPractice/SN76.jpg","76","","","","test","false","N + M","83","","SN","SN76.jpg","remember","old","13","1","start","right","","","",""
"html-keyboard-response","36","242017","0.0-2.0-2.0-0.13","ur61l6xs0odwb3n","practice_no_cue","5e482352020bde2be9b4ded1","5f60e3c0a3b16e07647b2ff9","5f60eb6248b00e0009dc65a5","false","null","<span style=""color: black; font-size: 48px"">M + N</span>","null","","","","resp_prompt","","","","","","","","","","","","","","","",""
"categorize-image","37","243330","0.0-2.0-2.0-1.13","ur61l6xs0odwb3n","practice_no_cue","5e482352020bde2be9b4ded1","5f60e3c0a3b16e07647b2ff9","5f60eb6248b00e0009dc65a5","true","809.6949999999197","./Stimuli/ImagesPractice/SM37.jpg","83","","","","test","true","M + N","83","","SM","SM37.jpg","forget","old","14","1","start","left","","","",""
"html-keyboard-response","38","244032","0.0-2.0-2.0-0.14","ur61l6xs0odwb3n","practice_no_cue","5e482352020bde2be9b4ded1","5f60e3c0a3b16e07647b2ff9","5f60eb6248b00e0009dc65a5","false","null","<span style=""color: black; font-size: 48px"">M + N</span>","null","","","","resp_prompt","","","","","","","","","","","","","","","",""
"categorize-image","39","245337","0.0-2.0-2.0-1.14","ur61l6xs0odwb3n","practice_no_cue","5e482352020bde2be9b4ded1","5f60e3c0a3b16e07647b2ff9","5f60eb6248b00e0009dc65a5","true","800.8800000000047","./Stimuli/ImagesPractice/SM97.jpg","83","","","","test","true","M + N","83","","SM","SM97.jpg","forget","old","15","1","start","left","","","",""
"html-keyboard-response","40","246039","0.0-2.0-2.0-0.15","ur61l6xs0odwb3n","practice_no_cue","5e482352020bde2be9b4ded1","5f60e3c0a3b16e07647b2ff9","5f60eb6248b00e0009dc65a5","false","null","<span style=""color: black; font-size: 48px"">M + N</span>","null","","","","resp_prompt","","","","","","","","","","","","","","","",""
"categorize-image","41","247223","0.0-2.0-2.0-1.15","ur61l6xs0odwb3n","practice_no_cue","5e482352020bde2be9b4ded1","5f60e3c0a3b16e07647b2ff9","5f60eb6248b00e0009dc65a5","true","680.8999999998487","./Stimuli/ImagesPractice/SM98.jpg","83","","","","test","true","M + N","83","","SM","SM98.jpg","remember","old","16","1","start","left","","","",""
"html-keyboard-response","42","256191","0.0-2.0-3.0","ur61l6xs0odwb3n","break","5e482352020bde2be9b4ded1","5f60e3c0a3b16e07647b2ff9","5f60eb6248b00e0009dc65a5","false","8964.110000000132","<p style='font-size: 32px;'>Break</><br><br><br><br><br><p style='font-size: 24px;'>In the last block, you committed 7 errors and did not respond in time on 0 trials.
</p><p style='font-size: 24px;'>Try to respond as fast and accurately as possible in the next block as well! </p><p style='font-size: 24px;'>Press SPACE to continue.</p>","32","","","","","","","","","","","","","","","","","","","",""
"html-keyboard-response","43","264546","0.0-2.0-4.0","ur61l6xs0odwb3n","instructions","5e482352020bde2be9b4ded1","5f60e3c0a3b16e07647b2ff9","5f60eb6248b00e0009dc65a5","false","8349.905000000028","<div align=left> Great!<br><br>Are you ready to continue?<br><br>If you want to reread the instructions and redo the practice trials, <br>please press „Z“. <br><br>Press SPACE to CONTINUE with the experiment when you are ready. </div>","90","","","","","","","","","","","","","","","","","","","",""
"html-keyboard-response","44","265491","0.0-2.1-0.1","ur61l6xs0odwb3n","instructions","5e482352020bde2be9b4ded1","5f60e3c0a3b16e07647b2ff9","5f60eb6248b00e0009dc65a5","false","941.695000000007","<div align=justify>You will classify the objects using the <strong>'S'</strong> and the <strong>'L'</strong> keys on your keyboard.<br>For doing so, please place your <strong>left index finger</strong> on the <strong>'S'</strong> key and place your <strong>right index finger</strong> on the <strong>'L'</strong> key. <br><br> Each trial starts with an instruction, indicating which key ('S'/'L') you need to press to classify <br>the object as mechanical (letter M) or non-mechanical (letter N).<br>The instruction <strong>M + N</strong> indicates that, in the current trial, by pressing the left key ('S') you classify the displayed object as mechanical (M) <br> and by pressing the right key ('L') you classify the object as non-mechanical (N). <br>The instruction <strong>N + M</strong> on the other hand indicates that by pressing the left key ('S') you classify the displayed object as non-mechanical (N) <br> and by pressing the right key ('L') you classify the object as mechanical (M). <br><br>Please press the key corresponding to the correct classification as fast as possible as soon as the object is displayed and try to avoid making mistakes.<br>If you do not respond within a 2 second window, a corresponding feedback will be displayed and the next trial will start.<br> The experiment is divided into multiple blocks to give you the opportunity to take a break after each block. <br>First, you can now practice this task. <br><br>Please place your <strong>LEFT INDEX FINGER</strong> on the 'S' key and your <strong>RIGHT INDEX FINGER</strong> on the 'L' key now. <br><br>Press SPACE to continue.</div>","32","","","","","","","","","","","","","","","","","","","",""
"html-keyboard-response","45","266312","0.0-2.1-1.1","ur61l6xs0odwb3n","instructions","5e482352020bde2be9b4ded1","5f60e3c0a3b16e07647b2ff9","5f60eb6248b00e0009dc65a5","false","818.2449999999371","<div align=left> You will now have time to practice this task.<br><br>Remember: <br> <br><li>Please place your index fingers on the <strong>'S'</strong> and <strong>'L'</strong> keys <br>to respond as fast and accurately as possible.</li><li>Every picture can be classified as either mechanical or non-mechanical.</li><li>If you do not respond in time or commit an error, you will receive a corresponding feedback. </li><li> Please try to respond as <strong> fast </strong> and as <strong> accurately as possible </strong> .<br><li>To ensure optimal results, please minimize distractions and stay focused. </li><br><br>Press SPACE to continue.</div>","32","","","","","","","","","","","","","","","","","","","",""
"html-keyboard-response","46","267014","0.0-2.1-2.1-0.16","ur61l6xs0odwb3n","practice_no_cue","5e482352020bde2be9b4ded1","5f60e3c0a3b16e07647b2ff9","5f60eb6248b00e0009dc65a5","false","null","<span style=""color: black; font-size: 48px"">N + M</span>","null","","","","resp_prompt","","","","","","","","","","","","","","","",""
"categorize-image","47","267976","0.0-2.1-2.1-1.16","ur61l6xs0odwb3n","practice_no_cue","5e482352020bde2be9b4ded1","5f60e3c0a3b16e07647b2ff9","5f60eb6248b00e0009dc65a5","true","458.6099999999278","./Stimuli/ImagesPractice/LN4.jpg","83","","","","test","true","N + M","83","","LN","LN4.jpg","forget","old","17","2","practice_forget","left","","","",""
"html-keyboard-response","48","268677","0.0-2.1-2.1-0.17","ur61l6xs0odwb3n","practice_no_cue","5e482352020bde2be9b4ded1","5f60e3c0a3b16e07647b2ff9","5f60eb6248b00e0009dc65a5","false","null","<span style=""color: black; font-size: 48px"">M + N</span>","null","","","","resp_prompt","","","","","","","","","","","","","","","",""
"categorize-image","49","269773","0.0-2.1-2.1-1.17","ur61l6xs0odwb3n","practice_no_cue","5e482352020bde2be9b4ded1","5f60e3c0a3b16e07647b2ff9","5f60eb6248b00e0009dc65a5","true","592.3199999999488","./Stimuli/ImagesPractice/LM143.jpg","83","","","","test","true","M + N","83","","LM","LM143.jpg","remember","old","18","2","practice_forget","left","","","",""
"html-keyboard-response","50","270475","0.0-2.1-2.1-0.18","ur61l6xs0odwb3n","practice_no_cue","5e482352020bde2be9b4ded1","5f60e3c0a3b16e07647b2ff9","5f60eb6248b00e0009dc65a5","false","null","<span style=""color: black; font-size: 48px"">M + N</span>","null","","","","resp_prompt","","","","","","","","","","","","","","","",""
"categorize-image","51","271467","0.0-2.1-2.1-1.18","ur61l6xs0odwb3n","practice_no_cue","5e482352020bde2be9b4ded1","5f60e3c0a3b16e07647b2ff9","5f60eb6248b00e0009dc65a5","true","490.03999999992084","./Stimuli/ImagesPractice/LN72.jpg","76","","","","test","true","M + N","76","","LN","LN72.jpg","forget","old","19","2","practice_forget","right","","","",""
"html-keyboard-response","52","272169","0.0-2.1-2.1-0.19","ur61l6xs0odwb3n","practice_no_cue","5e482352020bde2be9b4ded1","5f60e3c0a3b16e07647b2ff9","5f60eb6248b00e0009dc65a5","false","null","<span style=""color: black; font-size: 48px"">N + M</span>","null","","","","resp_prompt","","","","","","","","","","","","","","","",""
"categorize-image","53","273100","0.0-2.1-2.1-1.19","ur61l6xs0odwb3n","practice_no_cue","5e482352020bde2be9b4ded1","5f60e3c0a3b16e07647b2ff9","5f60eb6248b00e0009dc65a5","true","429.58499999990454","./Stimuli/ImagesPractice/SN221.jpg","76","","","","test","false","N + M","83","","SN","SN221.jpg","forget","old","20","2","practice_forget","right","","","",""
"html-keyboard-response","54","273802","0.0-2.1-2.1-0.20","ur61l6xs0odwb3n","practice_no_cue","5e482352020bde2be9b4ded1","5f60e3c0a3b16e07647b2ff9","5f60eb6248b00e0009dc65a5","false","null","<span style=""color: black; font-size: 48px"">N + M</span>","null","","","","resp_prompt","","","","","","","","","","","","","","","",""
"categorize-image","55","274818","0.0-2.1-2.1-1.20","ur61l6xs0odwb3n","practice_no_cue","5e482352020bde2be9b4ded1","5f60e3c0a3b16e07647b2ff9","5f60eb6248b00e0009dc65a5","true","512.1650000000373","./Stimuli/ImagesPractice/LN109.jpg","76","","","","test","false","N + M","83","","LN","LN109.jpg","forget","old","21","2","practice_forget","right","","","",""
"html-keyboard-response","56","275519","0.0-2.1-2.1-0.21","ur61l6xs0odwb3n","practice_no_cue","5e482352020bde2be9b4ded1","5f60e3c0a3b16e07647b2ff9","5f60eb6248b00e0009dc65a5","false","null","<span style=""color: black; font-size: 48px"">M + N</span>","null","","","","resp_prompt","","","","","","","","","","","","","","","",""
"categorize-image","57","276488","0.0-2.1-2.1-1.21","ur61l6xs0odwb3n","practice_no_cue","5e482352020bde2be9b4ded1","5f60e3c0a3b16e07647b2ff9","5f60eb6248b00e0009dc65a5","true","463.4750000000349","./Stimuli/ImagesPractice/SM98.jpg","83","","","","test","true","M + N","83","","SM","SM98.jpg","remember","old","22","2","practice_forget","left","","","",""
"html-keyboard-response","58","277190","0.0-2.1-2.1-0.22","ur61l6xs0odwb3n","practice_no_cue","5e482352020bde2be9b4ded1","5f60e3c0a3b16e07647b2ff9","5f60eb6248b00e0009dc65a5","false","null","<span style=""color: black; font-size: 48px"">M + N</span>","null","","","","resp_prompt","","","","","","","","","","","","","","","",""
"categorize-image","59","278193","0.0-2.1-2.1-1.22","ur61l6xs0odwb3n","practice_no_cue","5e482352020bde2be9b4ded1","5f60e3c0a3b16e07647b2ff9","5f60eb6248b00e0009dc65a5","true","499.4199999998673","./Stimuli/ImagesPractice/SM97.jpg","83","","","","test","true","M + N","83","","SM","SM97.jpg","forget","old","23","2","practice_forget","left","","","",""
"html-keyboard-response","60","278895","0.0-2.1-2.1-0.23","ur61l6xs0odwb3n","practice_no_cue","5e482352020bde2be9b4ded1","5f60e3c0a3b16e07647b2ff9","5f60eb6248b00e0009dc65a5","false","null","<span style=""color: black; font-size: 48px"">N + M</span>","null","","","","resp_prompt","","","","","","","","","","","","","","","",""
"categorize-image","61","279985","0.0-2.1-2.1-1.23","ur61l6xs0odwb3n","practice_no_cue","5e482352020bde2be9b4ded1","5f60e3c0a3b16e07647b2ff9","5f60eb6248b00e0009dc65a5","true","585.5699999999488","./Stimuli/ImagesPractice/SM62.jpg","76","","","","test","true","N + M","76","","SM","SM62.jpg","forget","old","24","2","practice_forget","right","","","",""
"html-keyboard-response","62","280688","0.0-2.1-2.1-0.24","ur61l6xs0odwb3n","practice_no_cue","5e482352020bde2be9b4ded1","5f60e3c0a3b16e07647b2ff9","5f60eb6248b00e0009dc65a5","false","null","<span style=""color: black; font-size: 48px"">M + N</span>","null","","","","resp_prompt","","","","","","","","","","","","","","","",""
"categorize-image","63","281678","0.0-2.1-2.1-1.24","ur61l6xs0odwb3n","practice_no_cue","5e482352020bde2be9b4ded1","5f60e3c0a3b16e07647b2ff9","5f60eb6248b00e0009dc65a5","true","486.6300000001211","./Stimuli/ImagesPractice/LM147.jpg","83","","","","test","true","M + N","83","","LM","LM147.jpg","forget","old","25","2","practice_forget","left","","","",""
"html-keyboard-response","64","282381","0.0-2.1-2.1-0.25","ur61l6xs0odwb3n","practice_no_cue","5e482352020bde2be9b4ded1","5f60e3c0a3b16e07647b2ff9","5f60eb6248b00e0009dc65a5","false","null","<span style=""color: black; font-size: 48px"">N + M</span>","null","","","","resp_prompt","","","","","","","","","","","","","","","",""
"categorize-image","65","283513","0.0-2.1-2.1-1.25","ur61l6xs0odwb3n","practice_no_cue","5e482352020bde2be9b4ded1","5f60e3c0a3b16e07647b2ff9","5f60eb6248b00e0009dc65a5","true","628.5850000001374","./Stimuli/ImagesPractice/SN76.jpg","76","","","","test","false","N + M","83","","SN","SN76.jpg","remember","old","26","2","practice_forget","right","","","",""
"html-keyboard-response","66","284215","0.0-2.1-2.1-0.26","ur61l6xs0odwb3n","practice_no_cue","5e482352020bde2be9b4ded1","5f60e3c0a3b16e07647b2ff9","5f60eb6248b00e0009dc65a5","false","null","<span style=""color: black; font-size: 48px"">M + N</span>","null","","","","resp_prompt","","","","","","","","","","","","","","","",""
"categorize-image","67","285484","0.0-2.1-2.1-1.26","ur61l6xs0odwb3n","practice_no_cue","5e482352020bde2be9b4ded1","5f60e3c0a3b16e07647b2ff9","5f60eb6248b00e0009dc65a5","true","764.7649999998976","./Stimuli/ImagesPractice/SN75.jpg","76","","","","test","true","M + N","76","","SN","SN75.jpg","remember","old","27","2","practice_forget","right","","","",""
"html-keyboard-response","68","286186","0.0-2.1-2.1-0.27","ur61l6xs0odwb3n","practice_no_cue","5e482352020bde2be9b4ded1","5f60e3c0a3b16e07647b2ff9","5f60eb6248b00e0009dc65a5","false","null","<span style=""color: black; font-size: 48px"">N + M</span>","null","","","","resp_prompt","","","","","","","","","","","","","","","",""
"categorize-image","69","287500","0.0-2.1-2.1-1.27","ur61l6xs0odwb3n","practice_no_cue","5e482352020bde2be9b4ded1","5f60e3c0a3b16e07647b2ff9","5f60eb6248b00e0009dc65a5","true","810.9400000000605","./Stimuli/ImagesPractice/LN2.jpg","83","","","","test","true","N + M","83","","LN","LN2.jpg","remember","old","28","2","practice_forget","left","","","",""
"html-keyboard-response","70","288202","0.0-2.1-2.1-0.28","ur61l6xs0odwb3n","practice_no_cue","5e482352020bde2be9b4ded1","5f60e3c0a3b16e07647b2ff9","5f60eb6248b00e0009dc65a5","false","null","<span style=""color: black; font-size: 48px"">N + M</span>","null","","","","resp_prompt","","","","","","","","","","","","","","","",""
"categorize-image","71","289250","0.0-2.1-2.1-1.28","ur61l6xs0odwb3n","practice_no_cue","5e482352020bde2be9b4ded1","5f60e3c0a3b16e07647b2ff9","5f60eb6248b00e0009dc65a5","true","540.5499999999302","./Stimuli/ImagesPractice/LM230.jpg","83","","","","test","false","N + M","76","","LM","LM230.jpg","remember","old","29","2","practice_forget","left","","","",""
"html-keyboard-response","72","289952","0.0-2.1-2.1-0.29","ur61l6xs0odwb3n","practice_no_cue","5e482352020bde2be9b4ded1","5f60e3c0a3b16e07647b2ff9","5f60eb6248b00e0009dc65a5","false","null","<span style=""color: black; font-size: 48px"">N + M</span>","null","","","","resp_prompt","","","","","","","","","","","","","","","",""
"categorize-image","73","290895","0.0-2.1-2.1-1.29","ur61l6xs0odwb3n","practice_no_cue","5e482352020bde2be9b4ded1","5f60e3c0a3b16e07647b2ff9","5f60eb6248b00e0009dc65a5","true","438.9750000000349","./Stimuli/ImagesPractice/SN220.jpg","83","","","","test","true","N + M","83","","SN","SN220.jpg","remember","old","30","2","practice_forget","left","","","",""
"html-keyboard-response","74","291597","0.0-2.1-2.1-0.30","ur61l6xs0odwb3n","practice_no_cue","5e482352020bde2be9b4ded1","5f60e3c0a3b16e07647b2ff9","5f60eb6248b00e0009dc65a5","false","null","<span style=""color: black; font-size: 48px"">M + N</span>","null","","","","resp_prompt","","","","","","","","","","","","","","","",""
"categorize-image","75","292200","0.0-2.1-2.1-1.30","ur61l6xs0odwb3n","practice_no_cue","5e482352020bde2be9b4ded1","5f60e3c0a3b16e07647b2ff9","5f60eb6248b00e0009dc65a5","true","99.13500000018394","./Stimuli/ImagesPractice/LM224.jpg","83","","","","test","true","M + N","83","","LM","LM224.jpg","remember","old","31","2","practice_forget","left","","","",""
"html-keyboard-response","76","292903","0.0-2.1-2.1-0.31","ur61l6xs0odwb3n","practice_no_cue","5e482352020bde2be9b4ded1","5f60e3c0a3b16e07647b2ff9","5f60eb6248b00e0009dc65a5","false","null","<span style=""color: black; font-size: 48px"">M + N</span>","null","","","","resp_prompt","","","","","","","","","","","","","","","",""
"categorize-image","77","293474","0.0-2.1-2.1-1.31","ur61l6xs0odwb3n","practice_no_cue","5e482352020bde2be9b4ded1","5f60e3c0a3b16e07647b2ff9","5f60eb6248b00e0009dc65a5","true","68.21000000013737","./Stimuli/ImagesPractice/SM37.jpg","76","","","","test","false","M + N","83","","SM","SM37.jpg","forget","old","32","2","practice_forget","right","","","",""
"html-keyboard-response","78","295601","0.0-2.1-3.1","ur61l6xs0odwb3n","break","5e482352020bde2be9b4ded1","5f60e3c0a3b16e07647b2ff9","5f60eb6248b00e0009dc65a5","false","2119.015000000014","<p style='font-size: 32px;'>Break</><br><br><br><br><br><p style='font-size: 24px;'>In the last block, you committed 5 errors and did not respond in time on 0 trials.
</p><p style='font-size: 24px;'>Try to respond as fast and accurately as possible in the next block as well! </p><p style='font-size: 24px;'>Press SPACE to continue.</p>","32","","","","","","","","","","","","","","","","","","","",""
"html-keyboard-response","79","296438","0.0-2.1-4.1","ur61l6xs0odwb3n","instructions","5e482352020bde2be9b4ded1","5f60e3c0a3b16e07647b2ff9","5f60eb6248b00e0009dc65a5","false","834.1800000000512","<div align=left> Great!<br><br>Are you ready to continue?<br><br>If you want to reread the instructions and redo the practice trials, <br>please press „Z“. <br><br>Press SPACE to CONTINUE with the experiment when you are ready. </div>","32","","","","","","","","","","","","","","","","","","","",""
"html-keyboard-response","80","297140","0.0-3.0-0.0","ur61l6xs0odwb3n","instructions","5e482352020bde2be9b4ded1","5f60e3c0a3b16e07647b2ff9","5f60eb6248b00e0009dc65a5","false","699.4150000000373","<div align=left>Great!<br> <strong>Attention</strong>! You will now receive a second, additional task! <br><br>To this point it was you <strong>first task</strong> to correctly <strong>classify objects</strong>. <br><br>As mentioned in the beginning, we aim to examine how well humans can remember previously learned information.<br>We would like to find out whether our memory improves if we only remember information that is relevant to us. <br><br>Therefore, your <strong>second task</strong> will be to <strong>remember</strong> the pictures you are to categorize. <br> After the learning phase, there will be a memory test phase, in which you will be asked to indicate whether you have seen a picture before or not. <br>Some, but not all pictures shown in the learning phase will appear in the memory test phase.<br>After classifying a picture, you will be told whether you should remember it for the memory test phase or not. <br>Thus, some pictures can be forgotten, whereas others have to be remembered. <br><br>Note: From now on, feedback will only be displayed if you responded incorrectly or not in time.<br><br>Press SPACE to continue.</div>","32","","","","","","","","","","","","","","","","","","","",""
"html-keyboard-response","81","329287","0.0-3.0-1.0","ur61l6xs0odwb3n","instructions","5e482352020bde2be9b4ded1","5f60e3c0a3b16e07647b2ff9","5f60eb6248b00e0009dc65a5","false","32145.37000000017","<div align=left>In the following part, you will thus have to remember only some pictures. <br>Immediately after seeing and classifying the picture, a symbol will be displayed, indicating whether you should remember or forget the previous picture. <br><br>A <span style='color: dodgerblue; font-size: 28px'>O</span> indicates REMEMBER. That means, you have to remember this picture, because it will be tested later. <br><br>A <span style='color: darkorange; font-size:28px'>Ø</span> indicates FORGET. You do not have to remember this picture. <br><br> As you will have to remember a lot of pictures, it will be hard for you to remember all of them. <br>It will put you at an advantage if you instantly forget the pictures you are not asked to remember. <br> This will make it easier for you to remember the pictures that will be tested afterwards. <br><br>Press SPACE to continue.</div>","32","","","","","","","","","","","","","","","","","","","",""
"html-keyboard-response","82","335108","0.0-3.0-2.0","ur61l6xs0odwb3n","instructions","5e482352020bde2be9b4ded1","5f60e3c0a3b16e07647b2ff9","5f60eb6248b00e0009dc65a5","false","5812.014999999956","<div align=left> Now you have the chance to practice both tasks together.<br><br>Remember: <br> <br><li>Please place your index fingers on the <strong>'S'</strong> and <strong>'L'</strong> keys <br>to respond as fast and accurately as possible.</li><li>Every picture can be classified as either mechanical or non-mechanical.</li><li>If you do not respond in time or commit an error, you will receive a corresponding feedback. <br>Please try to respond as <strong> fast </strong> and as <strong> accurately as possible </strong>.</li><li> Please remember only the to-be-remembered <span style='color: dodgerblue; font-size: 28px'>O</span> pictures. <br></li><li> Please minimize distractions and stay focused. </li><br><br>Press SPACE to START</div>","32","","","","","","","","","","","","","","","","","","","",""
"html-keyboard-response","83","335811","0.0-3.0-3.0-0.0","ur61l6xs0odwb3n","practice_cue","5e482352020bde2be9b4ded1","5f60e3c0a3b16e07647b2ff9","5f60eb6248b00e0009dc65a5","false","null","<span style=""color: black; font-size: 48px"">M + N</span>","null","","","","resp_prompt","","","","","","","","","","","","","","","",""
"categorize-image","84","336973","0.0-3.0-3.0-1.0","ur61l6xs0odwb3n","practice_cue","5e482352020bde2be9b4ded1","5f60e3c0a3b16e07647b2ff9","5f60eb6248b00e0009dc65a5","true","1150.8550000000396","./Stimuli/ImagesPractice/SM98.jpg","83","","","","test","true","M + N","83","","SM","SM98.jpg","remember","old","33","3","practice_forget","left","","","",""
"html-keyboard-response","85","338976","0.0-3.0-3.0-3.0","ur61l6xs0odwb3n","practice_cue","5e482352020bde2be9b4ded1","5f60e3c0a3b16e07647b2ff9","5f60eb6248b00e0009dc65a5","false","null","<div style=""align-items: center; display: flex; color: dodgerblue; font-size: 90px""><b>o</b></div>","null","","","","forget_cue","","","","","","","","","","","","","","","",""
"html-keyboard-response","86","339678","0.0-3.0-3.0-0.1","ur61l6xs0odwb3n","practice_cue","5e482352020bde2be9b4ded1","5f60e3c0a3b16e07647b2ff9","5f60eb6248b00e0009dc65a5","false","null","<span style=""color: black; font-size: 48px"">N + M</span>","null","","","","resp_prompt","","","","","","","","","","","","","","","",""
"categorize-image","87","340461","0.0-3.0-3.0-1.1","ur61l6xs0odwb3n","practice_cue","5e482352020bde2be9b4ded1","5f60e3c0a3b16e07647b2ff9","5f60eb6248b00e0009dc65a5","true","774.4600000001374","./Stimuli/ImagesPractice/LM230.jpg","83","","","","test","false","N + M","76","","LM","LM230.jpg","remember","old","34","3","practice_forget","left","","","",""
"html-keyboard-response","88","340963","0.0-3.0-3.0-2.1-0.1","ur61l6xs0odwb3n","practice_cue","5e482352020bde2be9b4ded1","5f60e3c0a3b16e07647b2ff9","5f60eb6248b00e0009dc65a5","false","null","<span style=""color: red; font-size: 48px"">Error!</span>","null","","","","feedback","","","","","","","","","","","","","","","",""
"html-keyboard-response","89","342965","0.0-3.0-3.0-3.1","ur61l6xs0odwb3n","practice_cue","5e482352020bde2be9b4ded1","5f60e3c0a3b16e07647b2ff9","5f60eb6248b00e0009dc65a5","false","null","<div style=""align-items: center; display: flex; color: dodgerblue; font-size: 90px""><b>o</b></div>","null","","","","forget_cue","","","","","","","","","","","","","","","",""
"html-keyboard-response","90","343667","0.0-3.0-3.0-0.2","ur61l6xs0odwb3n","practice_cue","5e482352020bde2be9b4ded1","5f60e3c0a3b16e07647b2ff9","5f60eb6248b00e0009dc65a5","false","null","<span style=""color: black; font-size: 48px"">N + M</span>","null","","","","resp_prompt","","","","","","","","","","","","","","","",""
"categorize-image","91","344361","0.0-3.0-3.0-1.2","ur61l6xs0odwb3n","practice_cue","5e482352020bde2be9b4ded1","5f60e3c0a3b16e07647b2ff9","5f60eb6248b00e0009dc65a5","true","686.320000000007","./Stimuli/ImagesPractice/SM62.jpg","76","","","","test","true","N + M","76","","SM","SM62.jpg","forget","old","35","3","practice_forget","right","","","",""
"html-keyboard-response","92","346363","0.0-3.0-3.0-3.2","ur61l6xs0odwb3n","practice_cue","5e482352020bde2be9b4ded1","5f60e3c0a3b16e07647b2ff9","5f60eb6248b00e0009dc65a5","false","null","<div style=""align-items: center; display: flex; color: darkorange; font-size: 90px""><b>ø</b></div>","null","","","","forget_cue","","","","","","","","","","","","","","","",""
"html-keyboard-response","93","347065","0.0-3.0-3.0-0.3","ur61l6xs0odwb3n","practice_cue","5e482352020bde2be9b4ded1","5f60e3c0a3b16e07647b2ff9","5f60eb6248b00e0009dc65a5","false","null","<span style=""color: black; font-size: 48px"">M + N</span>","null","","","","resp_prompt","","","","","","","","","","","","","","","",""
"categorize-image","94","347899","0.0-3.0-3.0-1.3","ur61l6xs0odwb3n","practice_cue","5e482352020bde2be9b4ded1","5f60e3c0a3b16e07647b2ff9","5f60eb6248b00e0009dc65a5","true","825.9199999999837","./Stimuli/ImagesPractice/SN75.jpg","76","","","","test","true","M + N","76","","SN","SN75.jpg","remember","old","36","3","practice_forget","right","","","",""
"html-keyboard-response","95","349902","0.0-3.0-3.0-3.3","ur61l6xs0odwb3n","practice_cue","5e482352020bde2be9b4ded1","5f60e3c0a3b16e07647b2ff9","5f60eb6248b00e0009dc65a5","false","null","<div style=""align-items: center; display: flex; color: dodgerblue; font-size: 90px""><b>o</b></div>","null","","","","forget_cue","","","","","","","","","","","","","","","",""
"html-keyboard-response","96","350604","0.0-3.0-3.0-0.4","ur61l6xs0odwb3n","practice_cue","5e482352020bde2be9b4ded1","5f60e3c0a3b16e07647b2ff9","5f60eb6248b00e0009dc65a5","false","null","<span style=""color: black; font-size: 48px"">M + N</span>","null","","","","resp_prompt","","","","","","","","","","","","","","","",""
"categorize-image","97","351458","0.0-3.0-3.0-1.4","ur61l6xs0odwb3n","practice_cue","5e482352020bde2be9b4ded1","5f60e3c0a3b16e07647b2ff9","5f60eb6248b00e0009dc65a5","true","846.0199999999604","./Stimuli/ImagesPractice/LN72.jpg","76","","","","test","true","M + N","76","","LN","LN72.jpg","forget","old","37","3","practice_forget","right","","","",""
"html-keyboard-response","98","353460","0.0-3.0-3.0-3.4","ur61l6xs0odwb3n","practice_cue","5e482352020bde2be9b4ded1","5f60e3c0a3b16e07647b2ff9","5f60eb6248b00e0009dc65a5","false","null","<div style=""align-items: center; display: flex; color: darkorange; font-size: 90px""><b>ø</b></div>","null","","","","forget_cue","","","","","","","","","","","","","","","",""
"html-keyboard-response","99","354162","0.0-3.0-3.0-0.5","ur61l6xs0odwb3n","practice_cue","5e482352020bde2be9b4ded1","5f60e3c0a3b16e07647b2ff9","5f60eb6248b00e0009dc65a5","false","null","<span style=""color: black; font-size: 48px"">N + M</span>","null","","","","resp_prompt","","","","","","","","","","","","","","","",""
"categorize-image","100","355096","0.0-3.0-3.0-1.5","ur61l6xs0odwb3n","practice_cue","5e482352020bde2be9b4ded1","5f60e3c0a3b16e07647b2ff9","5f60eb6248b00e0009dc65a5","true","926.9050000000279","./Stimuli/ImagesPractice/SN76.jpg","76","","","","test","false","N + M","83","","SN","SN76.jpg","remember","old","38","3","practice_forget","right","","","",""
"html-keyboard-response","101","355601","0.0-3.0-3.0-2.5-0.5","ur61l6xs0odwb3n","practice_cue","5e482352020bde2be9b4ded1","5f60e3c0a3b16e07647b2ff9","5f60eb6248b00e0009dc65a5","false","null","<span style=""color: red; font-size: 48px"">Error!</span>","null","","","","feedback","","","","","","","","","","","","","","","",""
"html-keyboard-response","102","357604","0.0-3.0-3.0-3.5","ur61l6xs0odwb3n","practice_cue","5e482352020bde2be9b4ded1","5f60e3c0a3b16e07647b2ff9","5f60eb6248b00e0009dc65a5","false","null","<div style=""align-items: center; display: flex; color: dodgerblue; font-size: 90px""><b>o</b></div>","null","","","","forget_cue","","","","","","","","","","","","","","","",""
"html-keyboard-response","103","358306","0.0-3.0-3.0-0.6","ur61l6xs0odwb3n","practice_cue","5e482352020bde2be9b4ded1","5f60e3c0a3b16e07647b2ff9","5f60eb6248b00e0009dc65a5","false","null","<span style=""color: black; font-size: 48px"">M + N</span>","null","","","","resp_prompt","","","","","","","","","","","","","","","",""
"categorize-image","104","358914","0.0-3.0-3.0-1.6","ur61l6xs0odwb3n","practice_cue","5e482352020bde2be9b4ded1","5f60e3c0a3b16e07647b2ff9","5f60eb6248b00e0009dc65a5","true","596.6000000000349","./Stimuli/ImagesPractice/LM147.jpg","83","","","","test","true","M + N","83","","LM","LM147.jpg","forget","old","39","3","practice_forget","left","","","",""
"html-keyboard-response","105","360916","0.0-3.0-3.0-3.6","ur61l6xs0odwb3n","practice_cue","5e482352020bde2be9b4ded1","5f60e3c0a3b16e07647b2ff9","5f60eb6248b00e0009dc65a5","false","null","<div style=""align-items: center; display: flex; color: darkorange; font-size: 90px""><b>ø</b></div>","null","","","","forget_cue","","","","","","","","","","","","","","","",""
"html-keyboard-response","106","361618","0.0-3.0-3.0-0.7","ur61l6xs0odwb3n","practice_cue","5e482352020bde2be9b4ded1","5f60e3c0a3b16e07647b2ff9","5f60eb6248b00e0009dc65a5","false","null","<span style=""color: black; font-size: 48px"">N + M</span>","null","","","","resp_prompt","","","","","","","","","","","","","","","",""
"categorize-image","107","362313","0.0-3.0-3.0-1.7","ur61l6xs0odwb3n","practice_cue","5e482352020bde2be9b4ded1","5f60e3c0a3b16e07647b2ff9","5f60eb6248b00e0009dc65a5","true","686.395000000135","./Stimuli/ImagesPractice/LN4.jpg","83","","","","test","true","N + M","83","","LN","LN4.jpg","forget","old","40","3","practice_forget","left","","","",""
"html-keyboard-response","108","364317","0.0-3.0-3.0-3.7","ur61l6xs0odwb3n","practice_cue","5e482352020bde2be9b4ded1","5f60e3c0a3b16e07647b2ff9","5f60eb6248b00e0009dc65a5","false","null","<div style=""align-items: center; display: flex; color: darkorange; font-size: 90px""><b>ø</b></div>","null","","","","forget_cue","","","","","","","","","","","","","","","",""
"html-keyboard-response","109","365019","0.0-3.0-3.0-0.8","ur61l6xs0odwb3n","practice_cue","5e482352020bde2be9b4ded1","5f60e3c0a3b16e07647b2ff9","5f60eb6248b00e0009dc65a5","false","null","<span style=""color: black; font-size: 48px"">N + M</span>","null","","","","resp_prompt","","","","","","","","","","","","","","","",""
"categorize-image","110","365718","0.0-3.0-3.0-1.8","ur61l6xs0odwb3n","practice_cue","5e482352020bde2be9b4ded1","5f60e3c0a3b16e07647b2ff9","5f60eb6248b00e0009dc65a5","true","692.0950000000885","./Stimuli/ImagesPractice/LN109.jpg","83","","","","test","true","N + M","83","","LN","LN109.jpg","forget","old","41","3","practice_forget","left","","","",""
"html-keyboard-response","111","367720","0.0-3.0-3.0-3.8","ur61l6xs0odwb3n","practice_cue","5e482352020bde2be9b4ded1","5f60e3c0a3b16e07647b2ff9","5f60eb6248b00e0009dc65a5","false","null","<div style=""align-items: center; display: flex; color: darkorange; font-size: 90px""><b>ø</b></div>","null","","","","forget_cue","","","","","","","","","","","","","","","",""
"html-keyboard-response","112","368422","0.0-3.0-3.0-0.9","ur61l6xs0odwb3n","practice_cue","5e482352020bde2be9b4ded1","5f60e3c0a3b16e07647b2ff9","5f60eb6248b00e0009dc65a5","false","null","<span style=""color: black; font-size: 48px"">M + N</span>","null","","","","resp_prompt","","","","","","","","","","","","","","","",""
"categorize-image","113","369201","0.0-3.0-3.0-1.9","ur61l6xs0odwb3n","practice_cue","5e482352020bde2be9b4ded1","5f60e3c0a3b16e07647b2ff9","5f60eb6248b00e0009dc65a5","true","770.0600000000559","./Stimuli/ImagesPractice/SM37.jpg","76","","","","test","false","M + N","83","","SM","SM37.jpg","forget","old","42","3","practice_forget","right","","","",""
"html-keyboard-response","114","369703","0.0-3.0-3.0-2.9-0.9","ur61l6xs0odwb3n","practice_cue","5e482352020bde2be9b4ded1","5f60e3c0a3b16e07647b2ff9","5f60eb6248b00e0009dc65a5","false","null","<span style=""color: red; font-size: 48px"">Error!</span>","null","","","","feedback","","","","","","","","","","","","","","","",""
"html-keyboard-response","115","371705","0.0-3.0-3.0-3.9","ur61l6xs0odwb3n","practice_cue","5e482352020bde2be9b4ded1","5f60e3c0a3b16e07647b2ff9","5f60eb6248b00e0009dc65a5","false","null","<div style=""align-items: center; display: flex; color: darkorange; font-size: 90px""><b>ø</b></div>","null","","","","forget_cue","","","","","","","","","","","","","","","",""
"html-keyboard-response","116","372406","0.0-3.0-3.0-0.10","ur61l6xs0odwb3n","practice_cue","5e482352020bde2be9b4ded1","5f60e3c0a3b16e07647b2ff9","5f60eb6248b00e0009dc65a5","false","null","<span style=""color: black; font-size: 48px"">N + M</span>","null","","","","resp_prompt","","","","","","","","","","","","","","","",""
"categorize-image","117","373111","0.0-3.0-3.0-1.10","ur61l6xs0odwb3n","practice_cue","5e482352020bde2be9b4ded1","5f60e3c0a3b16e07647b2ff9","5f60eb6248b00e0009dc65a5","true","696.7100000001374","./Stimuli/ImagesPractice/SN221.jpg","76","","","","test","false","N + M","83","","SN","SN221.jpg","forget","old","43","3","practice_forget","right","","","",""
"html-keyboard-response","118","373613","0.0-3.0-3.0-2.10-0.10","ur61l6xs0odwb3n","practice_cue","5e482352020bde2be9b4ded1","5f60e3c0a3b16e07647b2ff9","5f60eb6248b00e0009dc65a5","false","null","<span style=""color: red; font-size: 48px"">Error!</span>","null","","","","feedback","","","","","","","","","","","","","","","",""
"html-keyboard-response","119","375616","0.0-3.0-3.0-3.10","ur61l6xs0odwb3n","practice_cue","5e482352020bde2be9b4ded1","5f60e3c0a3b16e07647b2ff9","5f60eb6248b00e0009dc65a5","false","null","<div style=""align-items: center; display: flex; color: darkorange; font-size: 90px""><b>ø</b></div>","null","","","","forget_cue","","","","","","","","","","","","","","","",""
"html-keyboard-response","120","376318","0.0-3.0-3.0-0.11","ur61l6xs0odwb3n","practice_cue","5e482352020bde2be9b4ded1","5f60e3c0a3b16e07647b2ff9","5f60eb6248b00e0009dc65a5","false","null","<span style=""color: black; font-size: 48px"">M + N</span>","null","","","","resp_prompt","","","","","","","","","","","","","","","",""
"categorize-image","121","376838","0.0-3.0-3.0-1.11","ur61l6xs0odwb3n","practice_cue","5e482352020bde2be9b4ded1","5f60e3c0a3b16e07647b2ff9","5f60eb6248b00e0009dc65a5","true","512.3100000000559","./Stimuli/ImagesPractice/LM143.jpg","83","","","","test","true","M + N","83","","LM","LM143.jpg","remember","old","44","3","practice_forget","left","","","",""
"html-keyboard-response","122","378840","0.0-3.0-3.0-3.11","ur61l6xs0odwb3n","practice_cue","5e482352020bde2be9b4ded1","5f60e3c0a3b16e07647b2ff9","5f60eb6248b00e0009dc65a5","false","null","<div style=""align-items: center; display: flex; color: dodgerblue; font-size: 90px""><b>o</b></div>","null","","","","forget_cue","","","","","","","","","","","","","","","",""
"html-keyboard-response","123","379542","0.0-3.0-3.0-0.12","ur61l6xs0odwb3n","practice_cue","5e482352020bde2be9b4ded1","5f60e3c0a3b16e07647b2ff9","5f60eb6248b00e0009dc65a5","false","null","<span style=""color: black; font-size: 48px"">M + N</span>","null","","","","resp_prompt","","","","","","","","","","","","","","","",""
"categorize-image","124","380028","0.0-3.0-3.0-1.12","ur61l6xs0odwb3n","practice_cue","5e482352020bde2be9b4ded1","5f60e3c0a3b16e07647b2ff9","5f60eb6248b00e0009dc65a5","true","478.0100000000093","./Stimuli/ImagesPractice/LM224.jpg","83","","","","test","true","M + N","83","","LM","LM224.jpg","remember","old","45","3","practice_forget","left","","","",""
"html-keyboard-response","125","382030","0.0-3.0-3.0-3.12","ur61l6xs0odwb3n","practice_cue","5e482352020bde2be9b4ded1","5f60e3c0a3b16e07647b2ff9","5f60eb6248b00e0009dc65a5","false","null","<div style=""align-items: center; display: flex; color: dodgerblue; font-size: 90px""><b>o</b></div>","null","","","","forget_cue","","","","","","","","","","","","","","","",""
"html-keyboard-response","126","382732","0.0-3.0-3.0-0.13","ur61l6xs0odwb3n","practice_cue","5e482352020bde2be9b4ded1","5f60e3c0a3b16e07647b2ff9","5f60eb6248b00e0009dc65a5","false","null","<span style=""color: black; font-size: 48px"">N + M</span>","null","","","","resp_prompt","","","","","","","","","","","","","","","",""
"categorize-image","127","383488","0.0-3.0-3.0-1.13","ur61l6xs0odwb3n","practice_cue","5e482352020bde2be9b4ded1","5f60e3c0a3b16e07647b2ff9","5f60eb6248b00e0009dc65a5","true","743.6700000001001","./Stimuli/ImagesPractice/SN220.jpg","83","","","","test","true","N + M","83","","SN","SN220.jpg","remember","old","46","3","practice_forget","left","","","",""
"html-keyboard-response","128","385490","0.0-3.0-3.0-3.13","ur61l6xs0odwb3n","practice_cue","5e482352020bde2be9b4ded1","5f60e3c0a3b16e07647b2ff9","5f60eb6248b00e0009dc65a5","false","null","<div style=""align-items: center; display: flex; color: dodgerblue; font-size: 90px""><b>o</b></div>","null","","","","forget_cue","","","","","","","","","","","","","","","",""
"html-keyboard-response","129","386192","0.0-3.0-3.0-0.14","ur61l6xs0odwb3n","practice_cue","5e482352020bde2be9b4ded1","5f60e3c0a3b16e07647b2ff9","5f60eb6248b00e0009dc65a5","false","null","<span style=""color: black; font-size: 48px"">N + M</span>","null","","","","resp_prompt","","","","","","","","","","","","","","","",""
"categorize-image","130","386941","0.0-3.0-3.0-1.14","ur61l6xs0odwb3n","practice_cue","5e482352020bde2be9b4ded1","5f60e3c0a3b16e07647b2ff9","5f60eb6248b00e0009dc65a5","true","741.0999999999767","./Stimuli/ImagesPractice/LN2.jpg","83","","","","test","true","N + M","83","","LN","LN2.jpg","remember","old","47","3","practice_forget","left","","","",""
"html-keyboard-response","131","388943","0.0-3.0-3.0-3.14","ur61l6xs0odwb3n","practice_cue","5e482352020bde2be9b4ded1","5f60e3c0a3b16e07647b2ff9","5f60eb6248b00e0009dc65a5","false","null","<div style=""align-items: center; display: flex; color: dodgerblue; font-size: 90px""><b>o</b></div>","null","","","","forget_cue","","","","","","","","","","","","","","","",""
"html-keyboard-response","132","389645","0.0-3.0-3.0-0.15","ur61l6xs0odwb3n","practice_cue","5e482352020bde2be9b4ded1","5f60e3c0a3b16e07647b2ff9","5f60eb6248b00e0009dc65a5","false","null","<span style=""color: black; font-size: 48px"">M + N</span>","null","","","","resp_prompt","","","","","","","","","","","","","","","",""
"categorize-image","133","390176","0.0-3.0-3.0-1.15","ur61l6xs0odwb3n","practice_cue","5e482352020bde2be9b4ded1","5f60e3c0a3b16e07647b2ff9","5f60eb6248b00e0009dc65a5","true","522.5950000001467","./Stimuli/ImagesPractice/SM97.jpg","83","","","","test","true","M + N","83","","SM","SM97.jpg","forget","old","48","3","practice_forget","left","","","",""
"html-keyboard-response","134","392178","0.0-3.0-3.0-3.15","ur61l6xs0odwb3n","practice_cue","5e482352020bde2be9b4ded1","5f60e3c0a3b16e07647b2ff9","5f60eb6248b00e0009dc65a5","false","null","<div style=""align-items: center; display: flex; color: darkorange; font-size: 90px""><b>ø</b></div>","null","","","","forget_cue","","","","","","","","","","","","","","","",""
"html-keyboard-response","135","398946","0.0-3.0-4.0","ur61l6xs0odwb3n","break","5e482352020bde2be9b4ded1","5f60e3c0a3b16e07647b2ff9","5f60eb6248b00e0009dc65a5","false","6765.619999999879","<p style='font-size: 32px;'>Break</><br><br><br><br><br><p style='font-size: 24px;'>In the last block, you committed 4 errors and did not respond in time on 0 trials.
</p><p style='font-size: 24px;'>Try to respond as fast and accurately as possible in the next block as well! </p><p style='font-size: 24px;'>Press SPACE to continue.</p>","32","","","","","","","","","","","","","","","","","","","",""
"html-keyboard-response","136","410710","0.0-3.0-5.0","ur61l6xs0odwb3n","instructions","5e482352020bde2be9b4ded1","5f60e3c0a3b16e07647b2ff9","5f60eb6248b00e0009dc65a5","false","11761.580000000133","<div align=left> Now, to practice, we kindly ask you to remember as many of the to-be-remembered pictures<br>of the previous learning phase as possible.<br><br>The pictures you were instructed to remember were the pictures followed by a <span style='color: dodgerblue; font-size: 28px'>O</span>.<br><br>In this memory test phase, you will also see some new pictures.<br>It is your task to remember whether you were presented with this specific picture in this study so far or not.<br>If you recognize an object (you have already seen it in this study), it is an OLD object. <br>If you do not recognize an object (you have NOT seen it in this study), it is a NEW object. <br><strong> Attention</strong>: As already mentioned, <span style='color: darkorange; font-size:28px'>Ø</span>-pictures will <strong>never</strong> appear in this memory test (neither as new objects). <br><br>Press SPACE to continue. </div>","32","","","","","","","","","","","","","","","","","","","",""
"html-keyboard-response","137","412680","0.0-3.0-6.0","ur61l6xs0odwb3n","instructions","5e482352020bde2be9b4ded1","5f60e3c0a3b16e07647b2ff9","5f60eb6248b00e0009dc65a5","false","1965.4449999997742","<div align=left> M and N no longer will appear on the left/right of the fixation cross. <br>Instead there will be a note at the bottom of the left or right side  <br>indicating which key you should press for an old or new object:  <br> <br>Press the <strong>right</strong> key to classify an object as <strong>old</strong> and press the <strong>left</strong>, to classify an object as <strong>new</strong>.<br>Please classify the objects as new/old by again placing your index finger on the 'S' and 'L' keys <br>and press them accordingly.<br><br><strong>Old:</strong> This object has been presented before. <br><strong>New:</strong> This object has <strong>not</strong> been presented.<br><br>Now please put your right and left index fingers on the 'S' and 'L' keys of your keyboard. <br>Please respond as fast and as accurately as possible!<br><br>Press SPACE to continue. </div>","32","","","","","","","","","","","","","","","","","","","",""
"categorize-image","138","417706","0.0-3.0-7.0-0.0","ur61l6xs0odwb3n","practice_recog","5e482352020bde2be9b4ded1","5f60e3c0a3b16e07647b2ff9","5f60eb6248b00e0009dc65a5","true","4520.695000000123","./Stimuli/ImagesPractice/SN75.jpg","83","","","","test","true","","83","","SN","SN75.jpg","","old","49","4","practice_recog","left","","","",""
"categorize-image","139","421228","0.0-3.0-7.0-0.1","ur61l6xs0odwb3n","practice_recog","5e482352020bde2be9b4ded1","5f60e3c0a3b16e07647b2ff9","5f60eb6248b00e0009dc65a5","true","3015.5899999999674","./Stimuli/ImagesPractice/SN222.jpg","76","","","","test","true","","76","","SN","SN222.jpg","","new","50","4","practice_recog","right","","","",""
"categorize-image","140","424793","0.0-3.0-7.0-0.2","ur61l6xs0odwb3n","practice_recog","5e482352020bde2be9b4ded1","5f60e3c0a3b16e07647b2ff9","5f60eb6248b00e0009dc65a5","true","3060.594999999914","./Stimuli/ImagesPractice/SN220.jpg","76","","","","test","false","","83","","SN","SN220.jpg","","old","51","4","practice_recog","right","","","",""
"categorize-image","141","427443","0.0-3.0-7.0-0.3","ur61l6xs0odwb3n","practice_recog","5e482352020bde2be9b4ded1","5f60e3c0a3b16e07647b2ff9","5f60eb6248b00e0009dc65a5","true","2144.7349999998696","./Stimuli/ImagesPractice/LN17.jpg","83","","","","test","false","","76","","LN","LN17.jpg","","new","52","4","practice_recog","left","","","",""
"categorize-image","142","429789","0.0-3.0-7.0-0.4","ur61l6xs0odwb3n","practice_recog","5e482352020bde2be9b4ded1","5f60e3c0a3b16e07647b2ff9","5f60eb6248b00e0009dc65a5","true","1837.2449999999371","./Stimuli/ImagesPractice/LM143.jpg","83","","","","test","true","","83","","LM","LM143.jpg","","old","53","4","practice_recog","left","","","",""
"categorize-image","143","432828","0.0-3.0-7.0-0.5","ur61l6xs0odwb3n","practice_recog","5e482352020bde2be9b4ded1","5f60e3c0a3b16e07647b2ff9","5f60eb6248b00e0009dc65a5","true","2536.289999999979","./Stimuli/ImagesPractice/LM239.jpg","76","","","","test","true","","76","","LM","LM239.jpg","","new","54","4","practice_recog","right","","","",""
"categorize-image","144","434189","0.0-3.0-7.0-0.6","ur61l6xs0odwb3n","practice_recog","5e482352020bde2be9b4ded1","5f60e3c0a3b16e07647b2ff9","5f60eb6248b00e0009dc65a5","true","856.0100000001839","./Stimuli/ImagesPractice/LM230.jpg","83","","","","test","true","","83","","LM","LM230.jpg","","old","55","4","practice_recog","left","","","",""
"categorize-image","145","436313","0.0-3.0-7.0-0.7","ur61l6xs0odwb3n","practice_recog","5e482352020bde2be9b4ded1","5f60e3c0a3b16e07647b2ff9","5f60eb6248b00e0009dc65a5","true","1620.320000000007","./Stimuli/ImagesPractice/LN15.jpg","83","","","","test","false","","76","","LN","LN15.jpg","","new","56","4","practice_recog","left","","","",""
"categorize-image","146","438986","0.0-3.0-7.0-0.8","ur61l6xs0odwb3n","practice_recog","5e482352020bde2be9b4ded1","5f60e3c0a3b16e07647b2ff9","5f60eb6248b00e0009dc65a5","true","2168.505000000063","./Stimuli/ImagesPractice/LM55.jpg","76","","","","test","true","","76","","LM","LM55.jpg","","new","57","4","practice_recog","right","","","",""
"categorize-image","147","442656","0.0-3.0-7.0-0.9","ur61l6xs0odwb3n","practice_recog","5e482352020bde2be9b4ded1","5f60e3c0a3b16e07647b2ff9","5f60eb6248b00e0009dc65a5","true","3165.304999999993","./Stimuli/ImagesPractice/SN205.jpg","76","","","","test","true","","76","","SN","SN205.jpg","","new","58","4","practice_recog","right","","","",""
"categorize-image","148","445030","0.0-3.0-7.0-0.10","ur61l6xs0odwb3n","practice_recog","5e482352020bde2be9b4ded1","5f60e3c0a3b16e07647b2ff9","5f60eb6248b00e0009dc65a5","true","1869.0599999999977","./Stimuli/ImagesPractice/LN2.jpg","83","","","","test","true","","83","","LN","LN2.jpg","","old","59","4","practice_recog","left","","","",""
"categorize-image","149","447025","0.0-3.0-7.0-0.11","ur61l6xs0odwb3n","practice_recog","5e482352020bde2be9b4ded1","5f60e3c0a3b16e07647b2ff9","5f60eb6248b00e0009dc65a5","true","1489.6149999999325","./Stimuli/ImagesPractice/SM98.jpg","83","","","","test","true","","83","","SM","SM98.jpg","","old","60","4","practice_recog","left","","","",""
"categorize-image","150","450764","0.0-3.0-7.0-0.12","ur61l6xs0odwb3n","practice_recog","5e482352020bde2be9b4ded1","5f60e3c0a3b16e07647b2ff9","5f60eb6248b00e0009dc65a5","true","3235.0950000000303","./Stimuli/ImagesPractice/SN76.jpg","76","","","","test","false","","83","","SN","SN76.jpg","","old","61","4","practice_recog","right","","","",""
"categorize-image","151","452892","0.0-3.0-7.0-0.13","ur61l6xs0odwb3n","practice_recog","5e482352020bde2be9b4ded1","5f60e3c0a3b16e07647b2ff9","5f60eb6248b00e0009dc65a5","true","1623.6749999998137","./Stimuli/ImagesPractice/SM35.jpg","76","","","","test","true","","76","","SM","SM35.jpg","","new","62","4","practice_recog","right","","","",""
"categorize-image","152","454940","0.0-3.0-7.0-0.14","ur61l6xs0odwb3n","practice_recog","5e482352020bde2be9b4ded1","5f60e3c0a3b16e07647b2ff9","5f60eb6248b00e0009dc65a5","true","1544.395000000135","./Stimuli/ImagesPractice/SM61.jpg","83","","","","test","false","","76","","SM","SM61.jpg","","new","63","4","practice_recog","left","","","",""
"categorize-image","153","457164","0.0-3.0-7.0-0.15","ur61l6xs0odwb3n","practice_recog","5e482352020bde2be9b4ded1","5f60e3c0a3b16e07647b2ff9","5f60eb6248b00e0009dc65a5","true","1719.1849999998813","./Stimuli/ImagesPractice/LM224.jpg","76","","","","test","false","","83","","LM","LM224.jpg","","old","64","4","practice_recog","right","","","",""
"html-keyboard-response","154","462882","0.0-3.0-8.0","ur61l6xs0odwb3n","instructions","5e482352020bde2be9b4ded1","5f60e3c0a3b16e07647b2ff9","5f60eb6248b00e0009dc65a5","false","5715.194999999949","<div align=left> Great!<br><br>Are you ready to continue?<br>If you want to reread the instructions and redo the practice trials, please <br>press „Z“.<br><br>You can proceed when you are ready.<br><br>After the presentation of each object, you will receive an instruction whether to <br>remember or to forget the object.<br>We will test your memory of the following pictures only at the very end of <br>the experiment after all learning blocks are completed. <br><br>Press SPACE to CONTINUE when you are ready. </div>","32","","","","","","","","","","","","","","","","","","","",""
"html-keyboard-response","155","464244","0.0-4.0-0.0","ur61l6xs0odwb3n","instructions","5e482352020bde2be9b4ded1","5f60e3c0a3b16e07647b2ff9","5f60eb6248b00e0009dc65a5","false","1358.4650000000256","<div align=left> The actual experiment is about to start.<br>The practice trials are over!<br><br>Please always respond both fast and accurately!<br><br>Remember: <br> <br><li> Please place your index fingers on the <strong>'S'</strong> and <strong>'L'</strong> keys <br>to respond as fast and accurately as possible.</li><li> Every picture can be classified as either mechanical or non-mechanical.</li><li> If you do not respond in time or commit an error, you will receive a corresponding feedback.<br> Please try to respond as <strong> fast </strong> and as <strong> accurately as possible </strong>.</li><li> Remember the <span style='color: dodgerblue; font-size: 28px'>O</span> pictures. <br></li><li> Please minimize distractions and stay focused. </li><br><br>Press SPACE to START.</div>","32","","","","","","","","","","","","","","","","","","","",""
"html-keyboard-response","156","464946","0.0-4.0-1.0-0.0","ur61l6xs0odwb3n","prime","5e482352020bde2be9b4ded1","5f60e3c0a3b16e07647b2ff9","5f60eb6248b00e0009dc65a5","false","null","<span style=""color: black; font-size: 48px"">M + N</span>","null","","","","resp_prompt","","","","","","","","","","","","","","","",""
"categorize-image","157","466507","0.0-4.0-1.0-1.0","ur61l6xs0odwb3n","prime","5e482352020bde2be9b4ded1","5f60e3c0a3b16e07647b2ff9","5f60eb6248b00e0009dc65a5","true","1552.080000000191","./Stimuli/SelectedImages/LM/LM100.bmp","83","","","","test","true","M + N","83","repetition","LM","LM100.bmp","remember","","65","4","prime1","left","","","",""
"html-keyboard-response","158","468510","0.0-4.0-1.0-3.0","ur61l6xs0odwb3n","prime","5e482352020bde2be9b4ded1","5f60e3c0a3b16e07647b2ff9","5f60eb6248b00e0009dc65a5","false","null","<div style=""align-items: center; display: flex; color: dodgerblue; font-size: 90px""><b>o</b></div>","null","","","","forget_cue","","","","","","","","","","","","","","","",""
"html-keyboard-response","159","469212","0.0-4.0-1.0-0.1","ur61l6xs0odwb3n","prime","5e482352020bde2be9b4ded1","5f60e3c0a3b16e07647b2ff9","5f60eb6248b00e0009dc65a5","false","null","<span style=""color: black; font-size: 48px"">N + M</span>","null","","","","resp_prompt","","","","","","","","","","","","","","","",""
"categorize-image","160","470164","0.0-4.0-1.0-1.1","ur61l6xs0odwb3n","prime","5e482352020bde2be9b4ded1","5f60e3c0a3b16e07647b2ff9","5f60eb6248b00e0009dc65a5","true","941.7199999997974","./Stimuli/SelectedImages/SN/SN18.bmp","76","","","","test","false","N + M","83","repetition","SN","SN18.bmp","forget","","66","4","prime1","right","","","",""
"html-keyboard-response","161","470666","0.0-4.0-1.0-2.1-0.1","ur61l6xs0odwb3n","prime","5e482352020bde2be9b4ded1","5f60e3c0a3b16e07647b2ff9","5f60eb6248b00e0009dc65a5","false","null","<span style=""color: red; font-size: 48px"">Error!</span>","null","","","","feedback","","","","","","","","","","","","","","","",""
"html-keyboard-response","162","472668","0.0-4.0-1.0-3.1","ur61l6xs0odwb3n","prime","5e482352020bde2be9b4ded1","5f60e3c0a3b16e07647b2ff9","5f60eb6248b00e0009dc65a5","false","null","<div style=""align-items: center; display: flex; color: darkorange; font-size: 90px""><b>ø</b></div>","null","","","","forget_cue","","","","","","","","","","","","","","","",""
"html-keyboard-response","163","473370","0.0-4.0-1.0-0.2","ur61l6xs0odwb3n","prime","5e482352020bde2be9b4ded1","5f60e3c0a3b16e07647b2ff9","5f60eb6248b00e0009dc65a5","false","null","<span style=""color: black; font-size: 48px"">M + N</span>","null","","","","resp_prompt","","","","","","","","","","","","","","","",""
"categorize-image","164","474053","0.0-4.0-1.0-1.2","ur61l6xs0odwb3n","prime","5e482352020bde2be9b4ded1","5f60e3c0a3b16e07647b2ff9","5f60eb6248b00e0009dc65a5","true","677.4199999999837","./Stimuli/SelectedImages/LM/LM235.bmp","83","","","","test","true","M + N","83","switch","LM","LM235.bmp","remember","","67","4","prime1","left","","","",""
"html-keyboard-response","165","476055","0.0-4.0-1.0-3.2","ur61l6xs0odwb3n","prime","5e482352020bde2be9b4ded1","5f60e3c0a3b16e07647b2ff9","5f60eb6248b00e0009dc65a5","false","null","<div style=""align-items: center; display: flex; color: dodgerblue; font-size: 90px""><b>o</b></div>","null","","","","forget_cue","","","","","","","","","","","","","","","",""
"html-keyboard-response","166","476757","0.0-4.0-1.0-0.3","ur61l6xs0odwb3n","prime","5e482352020bde2be9b4ded1","5f60e3c0a3b16e07647b2ff9","5f60eb6248b00e0009dc65a5","false","null","<span style=""color: black; font-size: 48px"">N + M</span>","null","","","","resp_prompt","","","","","","","","","","","","","","","",""
"categorize-image","167","477926","0.0-4.0-1.0-1.3","ur61l6xs0odwb3n","prime","5e482352020bde2be9b4ded1","5f60e3c0a3b16e07647b2ff9","5f60eb6248b00e0009dc65a5","true","1157.9099999999162","./Stimuli/SelectedImages/SN/SN52.bmp","83","","","","test","true","N + M","83","switch","SN","SN52.bmp","remember","","68","4","prime1","left","","","",""
"html-keyboard-response","168","479928","0.0-4.0-1.0-3.3","ur61l6xs0odwb3n","prime","5e482352020bde2be9b4ded1","5f60e3c0a3b16e07647b2ff9","5f60eb6248b00e0009dc65a5","false","null","<div style=""align-items: center; display: flex; color: dodgerblue; font-size: 90px""><b>o</b></div>","null","","","","forget_cue","","","","","","","","","","","","","","","",""
"html-keyboard-response","169","480631","0.0-4.0-1.0-0.4","ur61l6xs0odwb3n","prime","5e482352020bde2be9b4ded1","5f60e3c0a3b16e07647b2ff9","5f60eb6248b00e0009dc65a5","false","null","<span style=""color: black; font-size: 48px"">M + N</span>","null","","","","resp_prompt","","","","","","","","","","","","","","","",""
"categorize-image","170","481316","0.0-4.0-1.0-1.4","ur61l6xs0odwb3n","prime","5e482352020bde2be9b4ded1","5f60e3c0a3b16e07647b2ff9","5f60eb6248b00e0009dc65a5","true","677.0299999997951","./Stimuli/SelectedImages/SM/SM184.bmp","83","","","","test","true","M + N","83","switch","SM","SM184.bmp","remember","","69","4","prime1","left","","","",""
"html-keyboard-response","171","483318","0.0-4.0-1.0-3.4","ur61l6xs0odwb3n","prime","5e482352020bde2be9b4ded1","5f60e3c0a3b16e07647b2ff9","5f60eb6248b00e0009dc65a5","false","null","<div style=""align-items: center; display: flex; color: dodgerblue; font-size: 90px""><b>o</b></div>","null","","","","forget_cue","","","","","","","","","","","","","","","",""
"html-keyboard-response","172","484021","0.0-4.0-1.0-0.5","ur61l6xs0odwb3n","prime","5e482352020bde2be9b4ded1","5f60e3c0a3b16e07647b2ff9","5f60eb6248b00e0009dc65a5","false","null","<span style=""color: black; font-size: 48px"">M + N</span>","null","","","","resp_prompt","","","","","","","","","","","","","","","",""
"categorize-image","173","484825","0.0-4.0-1.0-1.5","ur61l6xs0odwb3n","prime","5e482352020bde2be9b4ded1","5f60e3c0a3b16e07647b2ff9","5f60eb6248b00e0009dc65a5","true","797.0049999998882","./Stimuli/SelectedImages/SN/SN49.bmp","76","","","","test","true","M + N","76","switch","SN","SN49.bmp","forget","","70","4","prime1","right","","","",""
"html-keyboard-response","174","486828","0.0-4.0-1.0-3.5","ur61l6xs0odwb3n","prime","5e482352020bde2be9b4ded1","5f60e3c0a3b16e07647b2ff9","5f60eb6248b00e0009dc65a5","false","null","<div style=""align-items: center; display: flex; color: darkorange; font-size: 90px""><b>ø</b></div>","null","","","","forget_cue","","","","","","","","","","","","","","","",""
"html-keyboard-response","175","487530","0.0-4.0-1.0-0.6","ur61l6xs0odwb3n","prime","5e482352020bde2be9b4ded1","5f60e3c0a3b16e07647b2ff9","5f60eb6248b00e0009dc65a5","false","null","<span style=""color: black; font-size: 48px"">M + N</span>","null","","","","resp_prompt","","","","","","","","","","","","","","","",""
"categorize-image","176","488610","0.0-4.0-1.0-1.6","ur61l6xs0odwb3n","prime","5e482352020bde2be9b4ded1","5f60e3c0a3b16e07647b2ff9","5f60eb6248b00e0009dc65a5","true","1072.859999999986","./Stimuli/SelectedImages/LN/LN111.bmp","76","","","","test","true","M + N","76","switch","LN","LN111.bmp","remember","","71","4","prime1","right","","","",""
"html-keyboard-response","177","490613","0.0-4.0-1.0-3.6","ur61l6xs0odwb3n","prime","5e482352020bde2be9b4ded1","5f60e3c0a3b16e07647b2ff9","5f60eb6248b00e0009dc65a5","false","null","<div style=""align-items: center; display: flex; color: dodgerblue; font-size: 90px""><b>o</b></div>","null","","","","forget_cue","","","","","","","","","","","","","","","",""
"html-keyboard-response","178","491315","0.0-4.0-1.0-0.7","ur61l6xs0odwb3n","prime","5e482352020bde2be9b4ded1","5f60e3c0a3b16e07647b2ff9","5f60eb6248b00e0009dc65a5","false","null","<span style=""color: black; font-size: 48px"">M + N</span>","null","","","","resp_prompt","","","","","","","","","","","","","","","",""
"categorize-image","179","491997","0.0-4.0-1.0-1.7","ur61l6xs0odwb3n","prime","5e482352020bde2be9b4ded1","5f60e3c0a3b16e07647b2ff9","5f60eb6248b00e0009dc65a5","true","674.1850000000559","./Stimuli/SelectedImages/SM/SM76.bmp","83","","","","test","true","M + N","83","repetition","SM","SM76.bmp","remember","","72","4","prime1","left","","","",""
"html-keyboard-response","180","494000","0.0-4.0-1.0-3.7","ur61l6xs0odwb3n","prime","5e482352020bde2be9b4ded1","5f60e3c0a3b16e07647b2ff9","5f60eb6248b00e0009dc65a5","false","null","<div style=""align-items: center; display: flex; color: dodgerblue; font-size: 90px""><b>o</b></div>","null","","","","forget_cue","","","","","","","","","","","","","","","",""
"html-keyboard-response","181","494701","0.0-4.0-1.0-0.8","ur61l6xs0odwb3n","prime","5e482352020bde2be9b4ded1","5f60e3c0a3b16e07647b2ff9","5f60eb6248b00e0009dc65a5","false","null","<span style=""color: black; font-size: 48px"">M + N</span>","null","","","","resp_prompt","","","","","","","","","","","","","","","",""
"categorize-image","182","495679","0.0-4.0-1.0-1.8","ur61l6xs0odwb3n","prime","5e482352020bde2be9b4ded1","5f60e3c0a3b16e07647b2ff9","5f60eb6248b00e0009dc65a5","true","973.0950000000303","./Stimuli/SelectedImages/SM/SM205.bmp","83","","","","test","true","M + N","83","repetition","SM","SM205.bmp","forget","","73","4","prime1","left","","","",""
"html-keyboard-response","183","497684","0.0-4.0-1.0-3.8","ur61l6xs0odwb3n","prime","5e482352020bde2be9b4ded1","5f60e3c0a3b16e07647b2ff9","5f60eb6248b00e0009dc65a5","false","null","<div style=""align-items: center; display: flex; color: darkorange; font-size: 90px""><b>ø</b></div>","null","","","","forget_cue","","","","","","","","","","","","","","","",""
"html-keyboard-response","184","498387","0.0-4.0-1.0-0.9","ur61l6xs0odwb3n","prime","5e482352020bde2be9b4ded1","5f60e3c0a3b16e07647b2ff9","5f60eb6248b00e0009dc65a5","false","null","<span style=""color: black; font-size: 48px"">N + M</span>","null","","","","resp_prompt","","","","","","","","","","","","","","","",""
"categorize-image","185","499397","0.0-4.0-1.0-1.9","ur61l6xs0odwb3n","prime","5e482352020bde2be9b4ded1","5f60e3c0a3b16e07647b2ff9","5f60eb6248b00e0009dc65a5","true","1001.710000000021","./Stimuli/SelectedImages/LN/LN9.bmp","76","","","","test","false","N + M","83","switch","LN","LN9.bmp","remember","","74","4","prime1","right","","","",""
"html-keyboard-response","186","499899","0.0-4.0-1.0-2.9-0.9","ur61l6xs0odwb3n","prime","5e482352020bde2be9b4ded1","5f60e3c0a3b16e07647b2ff9","5f60eb6248b00e0009dc65a5","false","null","<span style=""color: red; font-size: 48px"">Error!</span>","null","","","","feedback","","","","","","","","","","","","","","","",""
"html-keyboard-response","187","501901","0.0-4.0-1.0-3.9","ur61l6xs0odwb3n","prime","5e482352020bde2be9b4ded1","5f60e3c0a3b16e07647b2ff9","5f60eb6248b00e0009dc65a5","false","null","<div style=""align-items: center; display: flex; color: dodgerblue; font-size: 90px""><b>o</b></div>","null","","","","forget_cue","","","","","","","","","","","","","","","",""
"html-keyboard-response","188","502603","0.0-4.0-1.0-0.10","ur61l6xs0odwb3n","prime","5e482352020bde2be9b4ded1","5f60e3c0a3b16e07647b2ff9","5f60eb6248b00e0009dc65a5","false","null","<span style=""color: black; font-size: 48px"">N + M</span>","null","","","","resp_prompt","","","","","","","","","","","","","","","",""
"categorize-image","189","503419","0.0-4.0-1.0-1.10","ur61l6xs0odwb3n","prime","5e482352020bde2be9b4ded1","5f60e3c0a3b16e07647b2ff9","5f60eb6248b00e0009dc65a5","true","808.1300000001211","./Stimuli/SelectedImages/SM/SM213.bmp","83","","","","test","false","N + M","76","repetition","SM","SM213.bmp","remember","","75","4","prime1","left","","","",""
"html-keyboard-response","190","503921","0.0-4.0-1.0-2.10-0.10","ur61l6xs0odwb3n","prime","5e482352020bde2be9b4ded1","5f60e3c0a3b16e07647b2ff9","5f60eb6248b00e0009dc65a5","false","null","<span style=""color: red; font-size: 48px"">Error!</span>","null","","","","feedback","","","","","","","","","","","","","","","",""
"html-keyboard-response","191","505923","0.0-4.0-1.0-3.10","ur61l6xs0odwb3n","prime","5e482352020bde2be9b4ded1","5f60e3c0a3b16e07647b2ff9","5f60eb6248b00e0009dc65a5","false","null","<div style=""align-items: center; display: flex; color: dodgerblue; font-size: 90px""><b>o</b></div>","null","","","","forget_cue","","","","","","","","","","","","","","","",""
"html-keyboard-response","192","506625","0.0-4.0-1.0-0.11","ur61l6xs0odwb3n","prime","5e482352020bde2be9b4ded1","5f60e3c0a3b16e07647b2ff9","5f60eb6248b00e0009dc65a5","false","null","<span style=""color: black; font-size: 48px"">N + M</span>","null","","","","resp_prompt","","","","","","","","","","","","","","","",""
"categorize-image","193","507217","0.0-4.0-1.0-1.11","ur61l6xs0odwb3n","prime","5e482352020bde2be9b4ded1","5f60e3c0a3b16e07647b2ff9","5f60eb6248b00e0009dc65a5","true","581.3700000001118","./Stimuli/SelectedImages/LM/LM58.bmp","83","","","","test","false","N + M","76","repetition","LM","LM58.bmp","forget","","76","4","prime1","left","","","",""
"html-keyboard-response","194","507718","0.0-4.0-1.0-2.11-0.11","ur61l6xs0odwb3n","prime","5e482352020bde2be9b4ded1","5f60e3c0a3b16e07647b2ff9","5f60eb6248b00e0009dc65a5","false","null","<span style=""color: red; font-size: 48px"">Error!</span>","null","","","","feedback","","","","","","","","","","","","","","","",""
"html-keyboard-response","195","509720","0.0-4.0-1.0-3.11","ur61l6xs0odwb3n","prime","5e482352020bde2be9b4ded1","5f60e3c0a3b16e07647b2ff9","5f60eb6248b00e0009dc65a5","false","null","<div style=""align-items: center; display: flex; color: darkorange; font-size: 90px""><b>ø</b></div>","null","","","","forget_cue","","","","","","","","","","","","","","","",""
"html-keyboard-response","196","510422","0.0-4.0-1.0-0.12","ur61l6xs0odwb3n","prime","5e482352020bde2be9b4ded1","5f60e3c0a3b16e07647b2ff9","5f60eb6248b00e0009dc65a5","false","null","<span style=""color: black; font-size: 48px"">M + N</span>","null","","","","resp_prompt","","","","","","","","","","","","","","","",""
"categorize-image","197","511094","0.0-4.0-1.0-1.12","ur61l6xs0odwb3n","prime","5e482352020bde2be9b4ded1","5f60e3c0a3b16e07647b2ff9","5f60eb6248b00e0009dc65a5","true","663.9000000000233","./Stimuli/SelectedImages/LN/LN42.bmp","76","","","","test","true","M + N","76","repetition","LN","LN42.bmp","remember","","77","4","prime1","right","","","",""
"html-keyboard-response","198","513098","0.0-4.0-1.0-3.12","ur61l6xs0odwb3n","prime","5e482352020bde2be9b4ded1","5f60e3c0a3b16e07647b2ff9","5f60eb6248b00e0009dc65a5","false","null","<div style=""align-items: center; display: flex; color: dodgerblue; font-size: 90px""><b>o</b></div>","null","","","","forget_cue","","","","","","","","","","","","","","","",""
"html-keyboard-response","199","513800","0.0-4.0-1.0-0.13","ur61l6xs0odwb3n","prime","5e482352020bde2be9b4ded1","5f60e3c0a3b16e07647b2ff9","5f60eb6248b00e0009dc65a5","false","null","<span style=""color: black; font-size: 48px"">N + M</span>","null","","","","resp_prompt","","","","","","","","","","","","","","","",""
"categorize-image","200","514610","0.0-4.0-1.0-1.13","ur61l6xs0odwb3n","prime","5e482352020bde2be9b4ded1","5f60e3c0a3b16e07647b2ff9","5f60eb6248b00e0009dc65a5","true","801.9000000001979","./Stimuli/SelectedImages/SM/SM74.bmp","76","","","","test","true","N + M","76","switch","SM","SM74.bmp","forget","","78","4","prime1","right","","","",""
"html-keyboard-response","201","516612","0.0-4.0-1.0-3.13","ur61l6xs0odwb3n","prime","5e482352020bde2be9b4ded1","5f60e3c0a3b16e07647b2ff9","5f60eb6248b00e0009dc65a5","false","null","<div style=""align-items: center; display: flex; color: darkorange; font-size: 90px""><b>ø</b></div>","null","","","","forget_cue","","","","","","","","","","","","","","","",""
"html-keyboard-response","202","517315","0.0-4.0-1.0-0.14","ur61l6xs0odwb3n","prime","5e482352020bde2be9b4ded1","5f60e3c0a3b16e07647b2ff9","5f60eb6248b00e0009dc65a5","false","null","<span style=""color: black; font-size: 48px"">M + N</span>","null","","","","resp_prompt","","","","","","","","","","","","","","","",""
"categorize-image","203","518155","0.0-4.0-1.0-1.14","ur61l6xs0odwb3n","prime","5e482352020bde2be9b4ded1","5f60e3c0a3b16e07647b2ff9","5f60eb6248b00e0009dc65a5","true","831.9799999999232","./Stimuli/SelectedImages/SM/SM73.bmp","76","","","","test","false","M + N","83","repetition","SM","SM73.bmp","remember","","79","4","prime1","right","","","",""
"html-keyboard-response","204","518657","0.0-4.0-1.0-2.14-0.14","ur61l6xs0odwb3n","prime","5e482352020bde2be9b4ded1","5f60e3c0a3b16e07647b2ff9","5f60eb6248b00e0009dc65a5","false","null","<span style=""color: red; font-size: 48px"">Error!</span>","null","","","","feedback","","","","","","","","","","","","","","","",""
"html-keyboard-response","205","520659","0.0-4.0-1.0-3.14","ur61l6xs0odwb3n","prime","5e482352020bde2be9b4ded1","5f60e3c0a3b16e07647b2ff9","5f60eb6248b00e0009dc65a5","false","null","<div style=""align-items: center; display: flex; color: dodgerblue; font-size: 90px""><b>o</b></div>","null","","","","forget_cue","","","","","","","","","","","","","","","",""
"html-keyboard-response","206","521361","0.0-4.0-1.0-0.15","ur61l6xs0odwb3n","prime","5e482352020bde2be9b4ded1","5f60e3c0a3b16e07647b2ff9","5f60eb6248b00e0009dc65a5","false","null","<span style=""color: black; font-size: 48px"">N + M</span>","null","","","","resp_prompt","","","","","","","","","","","","","","","",""
"categorize-image","207","522118","0.0-4.0-1.0-1.15","ur61l6xs0odwb3n","prime","5e482352020bde2be9b4ded1","5f60e3c0a3b16e07647b2ff9","5f60eb6248b00e0009dc65a5","true","751.7000000000698","./Stimuli/SelectedImages/SM/SM17.bmp","83","","","","test","false","N + M","76","repetition","SM","SM17.bmp","forget","","80","4","prime1","left","","","",""
"html-keyboard-response","208","522621","0.0-4.0-1.0-2.15-0.15","ur61l6xs0odwb3n","prime","5e482352020bde2be9b4ded1","5f60e3c0a3b16e07647b2ff9","5f60eb6248b00e0009dc65a5","false","null","<span style=""color: red; font-size: 48px"">Error!</span>","null","","","","feedback","","","","","","","","","","","","","","","",""
"html-keyboard-response","209","524625","0.0-4.0-1.0-3.15","ur61l6xs0odwb3n","prime","5e482352020bde2be9b4ded1","5f60e3c0a3b16e07647b2ff9","5f60eb6248b00e0009dc65a5","false","null","<div style=""align-items: center; display: flex; color: darkorange; font-size: 90px""><b>ø</b></div>","null","","","","forget_cue","","","","","","","","","","","","","","","",""
"html-keyboard-response","210","525327","0.0-4.0-1.0-0.16","ur61l6xs0odwb3n","prime","5e482352020bde2be9b4ded1","5f60e3c0a3b16e07647b2ff9","5f60eb6248b00e0009dc65a5","false","null","<span style=""color: black; font-size: 48px"">N + M</span>","null","","","","resp_prompt","","","","","","","","","","","","","","","",""
"categorize-image","211","526286","0.0-4.0-1.0-1.16","ur61l6xs0odwb3n","prime","5e482352020bde2be9b4ded1","5f60e3c0a3b16e07647b2ff9","5f60eb6248b00e0009dc65a5","true","953.8200000001816","./Stimuli/SelectedImages/LN/LN150.bmp","76","","","","test","false","N + M","83","repetition","LN","LN150.bmp","forget","","81","4","prime1","right","","","",""
"html-keyboard-response","212","526789","0.0-4.0-1.0-2.16-0.16","ur61l6xs0odwb3n","prime","5e482352020bde2be9b4ded1","5f60e3c0a3b16e07647b2ff9","5f60eb6248b00e0009dc65a5","false","null","<span style=""color: red; font-size: 48px"">Error!</span>","null","","","","feedback","","","","","","","","","","","","","","","",""
"html-keyboard-response","213","528791","0.0-4.0-1.0-3.16","ur61l6xs0odwb3n","prime","5e482352020bde2be9b4ded1","5f60e3c0a3b16e07647b2ff9","5f60eb6248b00e0009dc65a5","false","null","<div style=""align-items: center; display: flex; color: darkorange; font-size: 90px""><b>ø</b></div>","null","","","","forget_cue","","","","","","","","","","","","","","","",""
"html-keyboard-response","214","529494","0.0-4.0-1.0-0.17","ur61l6xs0odwb3n","prime","5e482352020bde2be9b4ded1","5f60e3c0a3b16e07647b2ff9","5f60eb6248b00e0009dc65a5","false","null","<span style=""color: black; font-size: 48px"">M + N</span>","null","","","","resp_prompt","","","","","","","","","","","","","","","",""
"categorize-image","215","530598","0.0-4.0-1.0-1.17","ur61l6xs0odwb3n","prime","5e482352020bde2be9b4ded1","5f60e3c0a3b16e07647b2ff9","5f60eb6248b00e0009dc65a5","true","1091.4000000000233","./Stimuli/SelectedImages/LN/LN28.bmp","83","","","","test","false","M + N","76","repetition","LN","LN28.bmp","remember","","82","4","prime1","left","","","",""
"html-keyboard-response","216","531099","0.0-4.0-1.0-2.17-0.17","ur61l6xs0odwb3n","prime","5e482352020bde2be9b4ded1","5f60e3c0a3b16e07647b2ff9","5f60eb6248b00e0009dc65a5","false","null","<span style=""color: red; font-size: 48px"">Error!</span>","null","","","","feedback","","","","","","","","","","","","","","","",""
"html-keyboard-response","217","533102","0.0-4.0-1.0-3.17","ur61l6xs0odwb3n","prime","5e482352020bde2be9b4ded1","5f60e3c0a3b16e07647b2ff9","5f60eb6248b00e0009dc65a5","false","null","<div style=""align-items: center; display: flex; color: dodgerblue; font-size: 90px""><b>o</b></div>","null","","","","forget_cue","","","","","","","","","","","","","","","",""
"html-keyboard-response","218","533804","0.0-4.0-1.0-0.18","ur61l6xs0odwb3n","prime","5e482352020bde2be9b4ded1","5f60e3c0a3b16e07647b2ff9","5f60eb6248b00e0009dc65a5","false","null","<span style=""color: black; font-size: 48px"">N + M</span>","null","","","","resp_prompt","","","","","","","","","","","","","","","",""
"categorize-image","219","534534","0.0-4.0-1.0-1.18","ur61l6xs0odwb3n","prime","5e482352020bde2be9b4ded1","5f60e3c0a3b16e07647b2ff9","5f60eb6248b00e0009dc65a5","true","721.2499999998836","./Stimuli/SelectedImages/LM/LM75.bmp","83","","","","test","false","N + M","76","switch","LM","LM75.bmp","forget","","83","4","prime1","left","","","",""
"html-keyboard-response","220","535036","0.0-4.0-1.0-2.18-0.18","ur61l6xs0odwb3n","prime","5e482352020bde2be9b4ded1","5f60e3c0a3b16e07647b2ff9","5f60eb6248b00e0009dc65a5","false","null","<span style=""color: red; font-size: 48px"">Error!</span>","null","","","","feedback","","","","","","","","","","","","","","","",""
"html-keyboard-response","221","537038","0.0-4.0-1.0-3.18","ur61l6xs0odwb3n","prime","5e482352020bde2be9b4ded1","5f60e3c0a3b16e07647b2ff9","5f60eb6248b00e0009dc65a5","false","null","<div style=""align-items: center; display: flex; color: darkorange; font-size: 90px""><b>ø</b></div>","null","","","","forget_cue","","","","","","","","","","","","","","","",""
"html-keyboard-response","222","537740","0.0-4.0-1.0-0.19","ur61l6xs0odwb3n","prime","5e482352020bde2be9b4ded1","5f60e3c0a3b16e07647b2ff9","5f60eb6248b00e0009dc65a5","false","null","<span style=""color: black; font-size: 48px"">N + M</span>","null","","","","resp_prompt","","","","","","","","","","","","","","","",""
"categorize-image","223","538656","0.0-4.0-1.0-1.19","ur61l6xs0odwb3n","prime","5e482352020bde2be9b4ded1","5f60e3c0a3b16e07647b2ff9","5f60eb6248b00e0009dc65a5","true","908.3800000000047","./Stimuli/SelectedImages/SM/SM108.bmp","83","","","","test","false","N + M","76","switch","SM","SM108.bmp","forget","","84","4","prime1","left","","","",""
"html-keyboard-response","224","539158","0.0-4.0-1.0-2.19-0.19","ur61l6xs0odwb3n","prime","5e482352020bde2be9b4ded1","5f60e3c0a3b16e07647b2ff9","5f60eb6248b00e0009dc65a5","false","null","<span style=""color: red; font-size: 48px"">Error!</span>","null","","","","feedback","","","","","","","","","","","","","","","",""
"html-keyboard-response","225","541160","0.0-4.0-1.0-3.19","ur61l6xs0odwb3n","prime","5e482352020bde2be9b4ded1","5f60e3c0a3b16e07647b2ff9","5f60eb6248b00e0009dc65a5","false","null","<div style=""align-items: center; display: flex; color: darkorange; font-size: 90px""><b>ø</b></div>","null","","","","forget_cue","","","","","","","","","","","","","","","",""
"html-keyboard-response","226","541862","0.0-4.0-1.0-0.20","ur61l6xs0odwb3n","prime","5e482352020bde2be9b4ded1","5f60e3c0a3b16e07647b2ff9","5f60eb6248b00e0009dc65a5","false","null","<span style=""color: black; font-size: 48px"">N + M</span>","null","","","","resp_prompt","","","","","","","","","","","","","","","",""
"categorize-image","227","542507","0.0-4.0-1.0-1.20","ur61l6xs0odwb3n","prime","5e482352020bde2be9b4ded1","5f60e3c0a3b16e07647b2ff9","5f60eb6248b00e0009dc65a5","true","636.3349999999627","./Stimuli/SelectedImages/LM/LM103.bmp","76","","","","test","true","N + M","76","repetition","LM","LM103.bmp","forget","","85","4","prime1","right","","","",""
"html-keyboard-response","228","544509","0.0-4.0-1.0-3.20","ur61l6xs0odwb3n","prime","5e482352020bde2be9b4ded1","5f60e3c0a3b16e07647b2ff9","5f60eb6248b00e0009dc65a5","false","null","<div style=""align-items: center; display: flex; color: darkorange; font-size: 90px""><b>ø</b></div>","null","","","","forget_cue","","","","","","","","","","","","","","","",""
"html-keyboard-response","229","545211","0.0-4.0-1.0-0.21","ur61l6xs0odwb3n","prime","5e482352020bde2be9b4ded1","5f60e3c0a3b16e07647b2ff9","5f60eb6248b00e0009dc65a5","false","null","<span style=""color: black; font-size: 48px"">M + N</span>","null","","","","resp_prompt","","","","","","","","","","","","","","","",""
"categorize-image","230","545906","0.0-4.0-1.0-1.21","ur61l6xs0odwb3n","prime","5e482352020bde2be9b4ded1","5f60e3c0a3b16e07647b2ff9","5f60eb6248b00e0009dc65a5","true","687.2049999999581","./Stimuli/SelectedImages/SN/SN93.bmp","76","","","","test","true","M + N","76","repetition","SN","SN93.bmp","remember","","86","4","prime1","right","","","",""
"html-keyboard-response","231","547909","0.0-4.0-1.0-3.21","ur61l6xs0odwb3n","prime","5e482352020bde2be9b4ded1","5f60e3c0a3b16e07647b2ff9","5f60eb6248b00e0009dc65a5","false","null","<div style=""align-items: center; display: flex; color: dodgerblue; font-size: 90px""><b>o</b></div>","null","","","","forget_cue","","","","","","","","","","","","","","","",""
"html-keyboard-response","232","548611","0.0-4.0-1.0-0.22","ur61l6xs0odwb3n","prime","5e482352020bde2be9b4ded1","5f60e3c0a3b16e07647b2ff9","5f60eb6248b00e0009dc65a5","false","null","<span style=""color: black; font-size: 48px"">M + N</span>","null","","","","resp_prompt","","","","","","","","","","","","","","","",""
"categorize-image","233","549564","0.0-4.0-1.0-1.22","ur61l6xs0odwb3n","prime","5e482352020bde2be9b4ded1","5f60e3c0a3b16e07647b2ff9","5f60eb6248b00e0009dc65a5","true","948.3850000002421","./Stimuli/SelectedImages/LN/LN101.bmp","83","","","","test","false","M + N","76","switch","LN","LN101.bmp","forget","","87","4","prime1","left","","","",""
"html-keyboard-response","234","550066","0.0-4.0-1.0-2.22-0.22","ur61l6xs0odwb3n","prime","5e482352020bde2be9b4ded1","5f60e3c0a3b16e07647b2ff9","5f60eb6248b00e0009dc65a5","false","null","<span style=""color: red; font-size: 48px"">Error!</span>","null","","","","feedback","","","","","","","","","","","","","","","",""
"html-keyboard-response","235","552068","0.0-4.0-1.0-3.22","ur61l6xs0odwb3n","prime","5e482352020bde2be9b4ded1","5f60e3c0a3b16e07647b2ff9","5f60eb6248b00e0009dc65a5","false","null","<div style=""align-items: center; display: flex; color: darkorange; font-size: 90px""><b>ø</b></div>","null","","","","forget_cue","","","","","","","","","","","","","","","",""
"html-keyboard-response","236","552772","0.0-4.0-1.0-0.23","ur61l6xs0odwb3n","prime","5e482352020bde2be9b4ded1","5f60e3c0a3b16e07647b2ff9","5f60eb6248b00e0009dc65a5","false","null","<span style=""color: black; font-size: 48px"">M + N</span>","null","","","","resp_prompt","","","","","","","","","","","","","","","",""
"categorize-image","237","553804","0.0-4.0-1.0-1.23","ur61l6xs0odwb3n","prime","5e482352020bde2be9b4ded1","5f60e3c0a3b16e07647b2ff9","5f60eb6248b00e0009dc65a5","true","1022.6999999999534","./Stimuli/SelectedImages/LM/LM59.bmp","83","","","","test","true","M + N","83","switch","LM","LM59.bmp","forget","","88","4","prime1","left","","","",""
"html-keyboard-response","238","555808","0.0-4.0-1.0-3.23","ur61l6xs0odwb3n","prime","5e482352020bde2be9b4ded1","5f60e3c0a3b16e07647b2ff9","5f60eb6248b00e0009dc65a5","false","null","<div style=""align-items: center; display: flex; color: darkorange; font-size: 90px""><b>ø</b></div>","null","","","","forget_cue","","","","","","","","","","","","","","","",""
"html-keyboard-response","239","556510","0.0-4.0-1.0-0.24","ur61l6xs0odwb3n","prime","5e482352020bde2be9b4ded1","5f60e3c0a3b16e07647b2ff9","5f60eb6248b00e0009dc65a5","false","null","<span style=""color: black; font-size: 48px"">N + M</span>","null","","","","resp_prompt","","","","","","","","","","","","","","","",""
"categorize-image","240","557202","0.0-4.0-1.0-1.24","ur61l6xs0odwb3n","prime","5e482352020bde2be9b4ded1","5f60e3c0a3b16e07647b2ff9","5f60eb6248b00e0009dc65a5","true","686.9449999999488","./Stimuli/SelectedImages/LN/LN92.bmp","76","","","","test","false","N + M","83","switch","LN","LN92.bmp","remember","","89","4","prime1","right","","","",""
"html-keyboard-response","241","557704","0.0-4.0-1.0-2.24-0.24","ur61l6xs0odwb3n","prime","5e482352020bde2be9b4ded1","5f60e3c0a3b16e07647b2ff9","5f60eb6248b00e0009dc65a5","false","null","<span style=""color: red; font-size: 48px"">Error!</span>","null","","","","feedback","","","","","","","","","","","","","","","",""
"html-keyboard-response","242","559706","0.0-4.0-1.0-3.24","ur61l6xs0odwb3n","prime","5e482352020bde2be9b4ded1","5f60e3c0a3b16e07647b2ff9","5f60eb6248b00e0009dc65a5","false","null","<div style=""align-items: center; display: flex; color: dodgerblue; font-size: 90px""><b>o</b></div>","null","","","","forget_cue","","","","","","","","","","","","","","","",""
"html-keyboard-response","243","560408","0.0-4.0-1.0-0.25","ur61l6xs0odwb3n","prime","5e482352020bde2be9b4ded1","5f60e3c0a3b16e07647b2ff9","5f60eb6248b00e0009dc65a5","false","null","<span style=""color: black; font-size: 48px"">M + N</span>","null","","","","resp_prompt","","","","","","","","","","","","","","","",""
"categorize-image","244","561752","0.0-4.0-1.0-1.25","ur61l6xs0odwb3n","prime","5e482352020bde2be9b4ded1","5f60e3c0a3b16e07647b2ff9","5f60eb6248b00e0009dc65a5","true","1336.1149999997579","./Stimuli/SelectedImages/LN/LN177.bmp","83","","","","test","false","M + N","76","repetition","LN","LN177.bmp","forget","","90","4","prime1","left","","","",""
"html-keyboard-response","245","562255","0.0-4.0-1.0-2.25-0.25","ur61l6xs0odwb3n","prime","5e482352020bde2be9b4ded1","5f60e3c0a3b16e07647b2ff9","5f60eb6248b00e0009dc65a5","false","null","<span style=""color: red; font-size: 48px"">Error!</span>","null","","","","feedback","","","","","","","","","","","","","","","",""
