"trial_type","trial_index","time_elapsed","internal_node_id","subject","exp_part","prolific_PID","study_ID","session_ID","use","rt","stimulus","key_press","button_pressed","responses","question_order","trial_part","correct","resp_map","correct_resp","probe_condition","category","image","forget_condition","list","trial_num","block_num","block","response","test_part","n_span","sequence","num_spaces"
"pavlovia","0","2","0.0-0.0","q6tdcdvp5mq90a0","","5f46e4a6f5b7ba0bcc5a9d99","5f60e3c0a3b16e07647b2ff9","5f60ee6aa3526a00085ce025","false","","","","","","","","","","","","","","","","","","","","","","",""
"html-keyboard-response","1","11714","0.0-1.0-0.0-0.0","q6tdcdvp5mq90a0","welcome","5f46e4a6f5b7ba0bcc5a9d99","5f60e3c0a3b16e07647b2ff9","5f60ee6aa3526a00085ce025","false","11710.05499997409","<div align=left>Dear participant, <br> thank you for participating in an online study of the Cognition, Action, and Sustainability Unit of the University of Freiburg! <br> <br>The aim of this study is to examine our ability to remember previously learned information. <br>Our goal is to find out, whether our memory improves, when we only remember information that is relevant to us. <br>The experiment will take about 35 minutes to complete. <br> <br>Please, note that you can only participate in this study if you are using a device with a keyboard (PC, Laptop etc.) <br>and not if you are using a mobile device such as a tablet or smartphone.<br> <br>Press 'SPACE' to proceed to the experiment. </div>","32","","","","","","","","","","","","","","","","","","","",""
"html-keyboard-response","2","25312","0.0-1.0-0.0-1.0","q6tdcdvp5mq90a0","welcome","5f46e4a6f5b7ba0bcc5a9d99","5f60e3c0a3b16e07647b2ff9","5f60ee6aa3526a00085ce025","false","13596.21500002686","<div align=left><strong> Time Course of this experiment: </strong> <br><br> <strong> 1.</strong>  First, please fill in some information regarding your demographic data. <br><br> <strong> 2.</strong>  Next, your task will be to classify everyday objects. <br>In addition, you will be asked to remember certain objects and recall them later. <br>Working on these tasks requires your undivided attention and concentration.<br>It is therefore essential that you eliminate any sources of distraction in your  <br>environment and ensure that you will not be disturbed. <br><br><strong> 3.</strong>  At the end of the experiment, you will be asked to answer a few additional questions. <br> <br><strong> Important:</strong> After finishing the experiment, only close the browser window <br> by clicking on the 'end the experiment'-button when you are asked to do so. <br>Closing the browser window prematurely will make the allocation of your participation credit impossible. <br><br> Press 'SPACE' to start the experiment. </div>","32","","","","","","","","","","","","","","","","","","","",""
"html-button-response","3","39534","0.0-1.0-0.0-2.0","q6tdcdvp5mq90a0","welcome","5f46e4a6f5b7ba0bcc5a9d99","5f60e3c0a3b16e07647b2ff9","5f60ee6aa3526a00085ce025","true","14218.955000047572","<div align=left><strong> Informed consent </strong>  <br>The aim of our research is to better understand human behavior and mental processes. <br>In the following study your behavior (e.g. choices, reaction times) will be studied. <br> <br><strong> Voluntariness and Anonymity </strong> <br>Your participation in this study is  <strong> voluntary</strong>.<br>You may withdraw your consent to participate at any time without providing a reason for doing so and without fear of prejudice. <br><br>As no personal data will be collected, <strong>your data and your person cannot be connected after data collection</strong> – the data-set is anonymous. <br>Respectively, deletion of your data will not be possible after data collection has been completed, as we cannot retrace your data-set.<br>The results and anonymized data collected in this study will be published as a scientific publication. <br>This will happen in an <strong>anonymized format</strong>, so that no data can be traced back to a specific person. <br> <br>The anonymized data of this study will be made available to other researchers and/or in a data archive on the Internet as a means of transparency and to enable subsequent re-use. By doing so, this study follows the recommendations of the Deutsche Forschungsgemeinschaft (DFG, German Research Foundation) and Deutsche Gesellschaft für Psychologie (DGPS, German Psychological Society) regarding quality assurance in research.<br>If you have any questions now or after the experiment, please contact our team (experiments@cs.uni-freiburg.de).<br><br><br>I hereby declare, that I understand the above described conditions of participation and I agree to participate under these conditions. <br><br> </div>","","0","","","","","","","","","","","","","","","","","","",""
"html-keyboard-response","4","54968","0.0-1.0-0.0-3.0","q6tdcdvp5mq90a0","welcome","5f46e4a6f5b7ba0bcc5a9d99","5f60e3c0a3b16e07647b2ff9","5f60ee6aa3526a00085ce025","false","15431.674999999814","<div align=left><strong> General information concerning the experiment </strong>  <br> <br>Please follow the instructions:<ol> <li><strong> Do not leave this tab (your browser window) during the experiment and do not reload this tab! </strong>  <br>If you do switch tabs/windows during the experiment (to check your mail or visit another website, for example), <br>the experiment will end automatically and you will <strong>not receive credit</strong> for your participation. <br>Repeated participation or resumption of the experiment is impossible.</li> <br><li>Please close all other programs for the duration of your participation. </li> <br><li>Please mute or turn off your phone and put it out of your reach. </li> <br><li>Please also take off any disturbing accessories (such as wristwatches, bracelets, etc.). </li> <br><li>If you have music playing in the background, please turn it off now. </li> <br></ol>Thank you! <br>Press 'SPACE' to continue. </div>","32","","","","","","","","","","","","","","","","","","","",""
"survey-text","5","57090","0.0-1.0-1.0-0.0","q6tdcdvp5mq90a0","demographics","5f46e4a6f5b7ba0bcc5a9d99","5f60e3c0a3b16e07647b2ff9","5f60ee6aa3526a00085ce025","true","2118.2150000240654","","","","{""age"":""19""}","","","","","","","","","","","","","","","","","",""
"survey-multi-choice","6","72289","0.0-1.0-1.0-1.0","q6tdcdvp5mq90a0","demographics","5f46e4a6f5b7ba0bcc5a9d99","5f60e3c0a3b16e07647b2ff9","5f60ee6aa3526a00085ce025","true","15198.100000037812","","","","{""gender"":""female"",""school"":""high school"",""education"":""Still in training/ university""}","[0,1,2]","","","","","","","","","","","","","","","","",""
"survey-text","7","89054","0.0-1.0-1.0-2.0-0.0","q6tdcdvp5mq90a0","demographics","5f46e4a6f5b7ba0bcc5a9d99","5f60e3c0a3b16e07647b2ff9","5f60ee6aa3526a00085ce025","true","16752.870000025723","","","","{""education_text"":""Psychology C800 at Durham University""}","","","","","","","","","","","","","","","","","",""
"html-keyboard-response","8","99246","0.0-1.0-2.0","q6tdcdvp5mq90a0","instructions","5f46e4a6f5b7ba0bcc5a9d99","5f60e3c0a3b16e07647b2ff9","5f60ee6aa3526a00085ce025","false","10190.485000028275","<div align=left> The experiment is now about to start: <br> <br>In the following part, you will be presented pictures of everyday objects. <br>Your first task is to <strong>classify these objects. </strong> <br> <br> You will classify them either as mechanical or non-mechanical objects. <br> <br>Objects that include any kind of technical mechanism (for example, wheels, switches, levers, <br> electronic components) fall under the category of <strong>mechanical</strong> objects. <br>Only objects without any kind of technical mechanism should be classified as <strong>non-mechanical</strong>. <br><br>Press 'SPACE' to continue. </div>","32","","","","","","","","","","","","","","","","","","","",""
"html-keyboard-response","9","155822","0.0-2.0-0.0","q6tdcdvp5mq90a0","instructions","5f46e4a6f5b7ba0bcc5a9d99","5f60e3c0a3b16e07647b2ff9","5f60ee6aa3526a00085ce025","false","56572.60000001406","<div align=justify>You will classify the objects using the <strong>'S'</strong> and the <strong>'L'</strong> keys on your keyboard.<br>For doing so, please place your <strong>left index finger</strong> on the <strong>'S'</strong> key and place your <strong>right index finger</strong> on the <strong>'L'</strong> key. <br><br> Each trial starts with an instruction, indicating which key ('S'/'L') you need to press to classify <br>the object as mechanical (letter M) or non-mechanical (letter N).<br>The instruction <strong>M + N</strong> indicates that, in the current trial, by pressing the left key ('S') you classify the displayed object as mechanical (M) <br> and by pressing the right key ('L') you classify the object as non-mechanical (N). <br>The instruction <strong>N + M</strong> on the other hand indicates that by pressing the left key ('S') you classify the displayed object as non-mechanical (N) <br> and by pressing the right key ('L') you classify the object as mechanical (M). <br><br>Please press the key corresponding to the correct classification as fast as possible as soon as the object is displayed and try to avoid making mistakes.<br>If you do not respond within a 2 second window, a corresponding feedback will be displayed and the next trial will start.<br> The experiment is divided into multiple blocks to give you the opportunity to take a break after each block. <br>First, you can now practice this task. <br><br>Please place your <strong>LEFT INDEX FINGER</strong> on the 'S' key and your <strong>RIGHT INDEX FINGER</strong> on the 'L' key now. <br><br>Press SPACE to continue.</div>","32","","","","","","","","","","","","","","","","","","","",""
"html-keyboard-response","10","160309","0.0-2.0-1.0","q6tdcdvp5mq90a0","instructions","5f46e4a6f5b7ba0bcc5a9d99","5f60e3c0a3b16e07647b2ff9","5f60ee6aa3526a00085ce025","false","4484.779999998864","<div align=left> You will now have time to practice this task.<br><br>Remember: <br> <br><li>Please place your index fingers on the <strong>'S'</strong> and <strong>'L'</strong> keys <br>to respond as fast and accurately as possible.</li><li>Every picture can be classified as either mechanical or non-mechanical.</li><li>If you do not respond in time or commit an error, you will receive a corresponding feedback. </li><li> Please try to respond as <strong> fast </strong> and as <strong> accurately as possible </strong> .<br><li>To ensure optimal results, please minimize distractions and stay focused. </li><br><br>Press SPACE to continue.</div>","32","","","","","","","","","","","","","","","","","","","",""
"html-keyboard-response","11","161013","0.0-2.0-2.0-0.0","q6tdcdvp5mq90a0","practice_no_cue","5f46e4a6f5b7ba0bcc5a9d99","5f60e3c0a3b16e07647b2ff9","5f60ee6aa3526a00085ce025","false","null","<span style=""color: black; font-size: 48px"">N + M</span>","null","","","","resp_prompt","","","","","","","","","","","","","","","",""
"categorize-image","12","163405","0.0-2.0-2.0-1.0","q6tdcdvp5mq90a0","practice_no_cue","5f46e4a6f5b7ba0bcc5a9d99","5f60e3c0a3b16e07647b2ff9","5f60ee6aa3526a00085ce025","true","1888.2100000046194","./Stimuli/ImagesPractice/LN72.jpg","83","","","","test","true","N + M","83","","LN","LN72.jpg","forget","old","1","1","start","left","","","",""
"html-keyboard-response","13","164110","0.0-2.0-2.0-0.1","q6tdcdvp5mq90a0","practice_no_cue","5f46e4a6f5b7ba0bcc5a9d99","5f60e3c0a3b16e07647b2ff9","5f60ee6aa3526a00085ce025","false","null","<span style=""color: black; font-size: 48px"">M + N</span>","null","","","","resp_prompt","","","","","","","","","","","","","","","",""
"categorize-image","14","166028","0.0-2.0-2.0-1.1","q6tdcdvp5mq90a0","practice_no_cue","5f46e4a6f5b7ba0bcc5a9d99","5f60e3c0a3b16e07647b2ff9","5f60ee6aa3526a00085ce025","true","1416.1300000268966","./Stimuli/ImagesPractice/LM239.jpg","83","","","","test","true","M + N","83","","LM","LM239.jpg","remember","old","2","1","start","left","","","",""
"html-keyboard-response","15","166731","0.0-2.0-2.0-0.2","q6tdcdvp5mq90a0","practice_no_cue","5f46e4a6f5b7ba0bcc5a9d99","5f60e3c0a3b16e07647b2ff9","5f60ee6aa3526a00085ce025","false","null","<span style=""color: black; font-size: 48px"">M + N</span>","null","","","","resp_prompt","","","","","","","","","","","","","","","",""
"categorize-image","16","168471","0.0-2.0-2.0-1.2","q6tdcdvp5mq90a0","practice_no_cue","5f46e4a6f5b7ba0bcc5a9d99","5f60e3c0a3b16e07647b2ff9","5f60ee6aa3526a00085ce025","true","1235.3199999779463","./Stimuli/ImagesPractice/SM35.jpg","76","","","","test","false","M + N","83","","SM","SM35.jpg","forget","old","3","1","start","right","","","",""
"html-keyboard-response","17","169173","0.0-2.0-2.0-0.3","q6tdcdvp5mq90a0","practice_no_cue","5f46e4a6f5b7ba0bcc5a9d99","5f60e3c0a3b16e07647b2ff9","5f60ee6aa3526a00085ce025","false","null","<span style=""color: black; font-size: 48px"">N + M</span>","null","","","","resp_prompt","","","","","","","","","","","","","","","",""
"categorize-image","18","170675","0.0-2.0-2.0-1.3","q6tdcdvp5mq90a0","practice_no_cue","5f46e4a6f5b7ba0bcc5a9d99","5f60e3c0a3b16e07647b2ff9","5f60ee6aa3526a00085ce025","true","996.0200000205077","./Stimuli/ImagesPractice/SM61.jpg","76","","","","test","true","N + M","76","","SM","SM61.jpg","remember","old","4","1","start","right","","","",""
"html-keyboard-response","19","171381","0.0-2.0-2.0-0.4","q6tdcdvp5mq90a0","practice_no_cue","5f46e4a6f5b7ba0bcc5a9d99","5f60e3c0a3b16e07647b2ff9","5f60ee6aa3526a00085ce025","false","null","<span style=""color: black; font-size: 48px"">N + M</span>","null","","","","resp_prompt","","","","","","","","","","","","","","","",""
"categorize-image","20","172788","0.0-2.0-2.0-1.4","q6tdcdvp5mq90a0","practice_no_cue","5f46e4a6f5b7ba0bcc5a9d99","5f60e3c0a3b16e07647b2ff9","5f60ee6aa3526a00085ce025","true","901.2300000176765","./Stimuli/ImagesPractice/LN2.jpg","83","","","","test","true","N + M","83","","LN","LN2.jpg","forget","old","5","1","start","left","","","",""
"html-keyboard-response","21","173493","0.0-2.0-2.0-0.5","q6tdcdvp5mq90a0","practice_no_cue","5f46e4a6f5b7ba0bcc5a9d99","5f60e3c0a3b16e07647b2ff9","5f60ee6aa3526a00085ce025","false","null","<span style=""color: black; font-size: 48px"">M + N</span>","null","","","","resp_prompt","","","","","","","","","","","","","","","",""
"categorize-image","22","175035","0.0-2.0-2.0-1.5","q6tdcdvp5mq90a0","practice_no_cue","5f46e4a6f5b7ba0bcc5a9d99","5f60e3c0a3b16e07647b2ff9","5f60ee6aa3526a00085ce025","true","1035.459999984596","./Stimuli/ImagesPractice/LM147.jpg","83","","","","test","true","M + N","83","","LM","LM147.jpg","remember","old","6","1","start","left","","","",""
"html-keyboard-response","23","175739","0.0-2.0-2.0-0.6","q6tdcdvp5mq90a0","practice_no_cue","5f46e4a6f5b7ba0bcc5a9d99","5f60e3c0a3b16e07647b2ff9","5f60ee6aa3526a00085ce025","false","null","<span style=""color: black; font-size: 48px"">M + N</span>","null","","","","resp_prompt","","","","","","","","","","","","","","","",""
"categorize-image","24","177241","0.0-2.0-2.0-1.6","q6tdcdvp5mq90a0","practice_no_cue","5f46e4a6f5b7ba0bcc5a9d99","5f60e3c0a3b16e07647b2ff9","5f60ee6aa3526a00085ce025","true","997.8500000433996","./Stimuli/ImagesPractice/SM62.jpg","83","","","","test","true","M + N","83","","SM","SM62.jpg","forget","old","7","1","start","left","","","",""
"html-keyboard-response","25","177946","0.0-2.0-2.0-0.7","q6tdcdvp5mq90a0","practice_no_cue","5f46e4a6f5b7ba0bcc5a9d99","5f60e3c0a3b16e07647b2ff9","5f60ee6aa3526a00085ce025","false","null","<span style=""color: black; font-size: 48px"">M + N</span>","null","","","","resp_prompt","","","","","","","","","","","","","","","",""
"categorize-image","26","179170","0.0-2.0-2.0-1.7","q6tdcdvp5mq90a0","practice_no_cue","5f46e4a6f5b7ba0bcc5a9d99","5f60e3c0a3b16e07647b2ff9","5f60ee6aa3526a00085ce025","true","719.1750000347383","./Stimuli/ImagesPractice/LM230.jpg","83","","","","test","true","M + N","83","","LM","LM230.jpg","remember","old","8","1","start","left","","","",""
"html-keyboard-response","27","179875","0.0-2.0-2.0-0.8","q6tdcdvp5mq90a0","practice_no_cue","5f46e4a6f5b7ba0bcc5a9d99","5f60e3c0a3b16e07647b2ff9","5f60ee6aa3526a00085ce025","false","null","<span style=""color: black; font-size: 48px"">N + M</span>","null","","","","resp_prompt","","","","","","","","","","","","","","","",""
"categorize-image","28","181433","0.0-2.0-2.0-1.8","q6tdcdvp5mq90a0","practice_no_cue","5f46e4a6f5b7ba0bcc5a9d99","5f60e3c0a3b16e07647b2ff9","5f60ee6aa3526a00085ce025","true","1053.4800000023097","./Stimuli/ImagesPractice/SN75.jpg","83","","","","test","true","N + M","83","","SN","SN75.jpg","forget","old","9","1","start","left","","","",""
"html-keyboard-response","29","182137","0.0-2.0-2.0-0.9","q6tdcdvp5mq90a0","practice_no_cue","5f46e4a6f5b7ba0bcc5a9d99","5f60e3c0a3b16e07647b2ff9","5f60ee6aa3526a00085ce025","false","null","<span style=""color: black; font-size: 48px"">M + N</span>","null","","","","resp_prompt","","","","","","","","","","","","","","","",""
"categorize-image","30","183785","0.0-2.0-2.0-1.9","q6tdcdvp5mq90a0","practice_no_cue","5f46e4a6f5b7ba0bcc5a9d99","5f60e3c0a3b16e07647b2ff9","5f60ee6aa3526a00085ce025","true","1144.350000016857","./Stimuli/ImagesPractice/LM224.jpg","83","","","","test","true","M + N","83","","LM","LM224.jpg","remember","old","10","1","start","left","","","",""
"html-keyboard-response","31","184489","0.0-2.0-2.0-0.10","q6tdcdvp5mq90a0","practice_no_cue","5f46e4a6f5b7ba0bcc5a9d99","5f60e3c0a3b16e07647b2ff9","5f60ee6aa3526a00085ce025","false","null","<span style=""color: black; font-size: 48px"">N + M</span>","null","","","","resp_prompt","","","","","","","","","","","","","","","",""
"categorize-image","32","185713","0.0-2.0-2.0-1.10","q6tdcdvp5mq90a0","practice_no_cue","5f46e4a6f5b7ba0bcc5a9d99","5f60e3c0a3b16e07647b2ff9","5f60ee6aa3526a00085ce025","true","721.8249999568798","./Stimuli/ImagesPractice/LN17.jpg","83","","","","test","true","N + M","83","","LN","LN17.jpg","remember","old","11","1","start","left","","","",""
"html-keyboard-response","33","186419","0.0-2.0-2.0-0.11","q6tdcdvp5mq90a0","practice_no_cue","5f46e4a6f5b7ba0bcc5a9d99","5f60e3c0a3b16e07647b2ff9","5f60ee6aa3526a00085ce025","false","null","<span style=""color: black; font-size: 48px"">N + M</span>","null","","","","resp_prompt","","","","","","","","","","","","","","","",""
"categorize-image","34","187539","0.0-2.0-2.0-1.11","q6tdcdvp5mq90a0","practice_no_cue","5f46e4a6f5b7ba0bcc5a9d99","5f60e3c0a3b16e07647b2ff9","5f60ee6aa3526a00085ce025","true","613.3549999794923","./Stimuli/ImagesPractice/SN220.jpg","83","","","","test","true","N + M","83","","SN","SN220.jpg","remember","old","12","1","start","left","","","",""
"html-keyboard-response","35","188244","0.0-2.0-2.0-0.12","q6tdcdvp5mq90a0","practice_no_cue","5f46e4a6f5b7ba0bcc5a9d99","5f60e3c0a3b16e07647b2ff9","5f60ee6aa3526a00085ce025","false","null","<span style=""color: black; font-size: 48px"">M + N</span>","null","","","","resp_prompt","","","","","","","","","","","","","","","",""
"categorize-image","36","189429","0.0-2.0-2.0-1.12","q6tdcdvp5mq90a0","practice_no_cue","5f46e4a6f5b7ba0bcc5a9d99","5f60e3c0a3b16e07647b2ff9","5f60ee6aa3526a00085ce025","true","679.1749999974854","./Stimuli/ImagesPractice/SM98.jpg","83","","","","test","true","M + N","83","","SM","SM98.jpg","forget","old","13","1","start","left","","","",""
"html-keyboard-response","37","190135","0.0-2.0-2.0-0.13","q6tdcdvp5mq90a0","practice_no_cue","5f46e4a6f5b7ba0bcc5a9d99","5f60e3c0a3b16e07647b2ff9","5f60ee6aa3526a00085ce025","false","null","<span style=""color: black; font-size: 48px"">N + M</span>","null","","","","resp_prompt","","","","","","","","","","","","","","","",""
"categorize-image","38","191467","0.0-2.0-2.0-1.13","q6tdcdvp5mq90a0","practice_no_cue","5f46e4a6f5b7ba0bcc5a9d99","5f60e3c0a3b16e07647b2ff9","5f60ee6aa3526a00085ce025","true","827.6799999875948","./Stimuli/ImagesPractice/SM97.jpg","76","","","","test","true","N + M","76","","SM","SM97.jpg","forget","old","14","1","start","right","","","",""
"html-keyboard-response","39","192168","0.0-2.0-2.0-0.14","q6tdcdvp5mq90a0","practice_no_cue","5f46e4a6f5b7ba0bcc5a9d99","5f60e3c0a3b16e07647b2ff9","5f60ee6aa3526a00085ce025","false","null","<span style=""color: black; font-size: 48px"">M + N</span>","null","","","","resp_prompt","","","","","","","","","","","","","","","",""
"categorize-image","40","193715","0.0-2.0-2.0-1.14","q6tdcdvp5mq90a0","practice_no_cue","5f46e4a6f5b7ba0bcc5a9d99","5f60e3c0a3b16e07647b2ff9","5f60ee6aa3526a00085ce025","true","1044.1700000083074","./Stimuli/ImagesPractice/SN221.jpg","76","","","","test","true","M + N","76","","SN","SN221.jpg","forget","old","15","1","start","right","","","",""
"html-keyboard-response","41","194420","0.0-2.0-2.0-0.15","q6tdcdvp5mq90a0","practice_no_cue","5f46e4a6f5b7ba0bcc5a9d99","5f60e3c0a3b16e07647b2ff9","5f60ee6aa3526a00085ce025","false","null","<span style=""color: black; font-size: 48px"">N + M</span>","null","","","","resp_prompt","","","","","","","","","","","","","","","",""
"categorize-image","42","195753","0.0-2.0-2.0-1.15","q6tdcdvp5mq90a0","practice_no_cue","5f46e4a6f5b7ba0bcc5a9d99","5f60e3c0a3b16e07647b2ff9","5f60ee6aa3526a00085ce025","true","831.0800000326708","./Stimuli/ImagesPractice/LM55.jpg","83","","","","test","false","N + M","76","","LM","LM55.jpg","remember","old","16","1","start","left","","","",""
"html-keyboard-response","43","201018","0.0-2.0-3.0","q6tdcdvp5mq90a0","break","5f46e4a6f5b7ba0bcc5a9d99","5f60e3c0a3b16e07647b2ff9","5f60ee6aa3526a00085ce025","false","5261.179999972228","<p style='font-size: 32px;'>Break</><br><br><br><br><br><p style='font-size: 24px;'>In the last block, you committed 2 errors and did not respond in time on 0 trials.
</p><p style='font-size: 24px;'>Try to respond as fast and accurately as possible in the next block as well! </p><p style='font-size: 24px;'>Press SPACE to continue.</p>","32","","","","","","","","","","","","","","","","","","","",""
"html-keyboard-response","44","205625","0.0-2.0-4.0","q6tdcdvp5mq90a0","instructions","5f46e4a6f5b7ba0bcc5a9d99","5f60e3c0a3b16e07647b2ff9","5f60ee6aa3526a00085ce025","false","4605.274999979883","<div align=left> Great!<br><br>Are you ready to continue?<br><br>If you want to reread the instructions and redo the practice trials, <br>please press „Z“. <br><br>Press SPACE to CONTINUE with the experiment when you are ready. </div>","32","","","","","","","","","","","","","","","","","","","",""
"html-keyboard-response","45","228136","0.0-3.0-0.0","q6tdcdvp5mq90a0","instructions","5f46e4a6f5b7ba0bcc5a9d99","5f60e3c0a3b16e07647b2ff9","5f60ee6aa3526a00085ce025","false","22507.01499998104","<div align=left>Great!<br> <strong>Attention</strong>! You will now receive a second, additional task! <br><br>To this point it was you <strong>first task</strong> to correctly <strong>classify objects</strong>. <br><br>As mentioned in the beginning, we aim to examine how well humans can remember previously learned information.<br>We would like to find out whether our memory improves if we only remember information that is relevant to us. <br><br>Therefore, your <strong>second task</strong> will be to <strong>remember</strong> the pictures you are to categorize. <br> After the learning phase, there will be a memory test phase, in which you will be asked to indicate whether you have seen a picture before or not. <br>Some, but not all pictures shown in the learning phase will appear in the memory test phase.<br>After classifying a picture, you will be told whether you should remember it for the memory test phase or not. <br>Thus, some pictures can be forgotten, whereas others have to be remembered. <br><br>Note: From now on, feedback will only be displayed if you responded incorrectly or not in time.<br><br>Press SPACE to continue.</div>","32","","","","","","","","","","","","","","","","","","","",""
"html-keyboard-response","46","246571","0.0-3.0-1.0","q6tdcdvp5mq90a0","instructions","5f46e4a6f5b7ba0bcc5a9d99","5f60e3c0a3b16e07647b2ff9","5f60ee6aa3526a00085ce025","false","18434.654999990016","<div align=left>In the following part, you will thus have to remember only some pictures. <br>Immediately after seeing and classifying the picture, a symbol will be displayed, indicating whether you should remember or forget the previous picture. <br><br>A <span style='color: dodgerblue; font-size: 28px'>O</span> indicates REMEMBER. That means, you have to remember this picture, because it will be tested later. <br><br>A <span style='color: darkorange; font-size:28px'>Ø</span> indicates FORGET. You do not have to remember this picture. <br><br> As you will have to remember a lot of pictures, it will be hard for you to remember all of them. <br>It will put you at an advantage if you instantly forget the pictures you are not asked to remember. <br> This will make it easier for you to remember the pictures that will be tested afterwards. <br><br>Press SPACE to continue.</div>","32","","","","","","","","","","","","","","","","","","","",""
"html-keyboard-response","47","262559","0.0-3.0-2.0","q6tdcdvp5mq90a0","instructions","5f46e4a6f5b7ba0bcc5a9d99","5f60e3c0a3b16e07647b2ff9","5f60ee6aa3526a00085ce025","false","15986.02499999106","<div align=left> Now you have the chance to practice both tasks together.<br><br>Remember: <br> <br><li>Please place your index fingers on the <strong>'S'</strong> and <strong>'L'</strong> keys <br>to respond as fast and accurately as possible.</li><li>Every picture can be classified as either mechanical or non-mechanical.</li><li>If you do not respond in time or commit an error, you will receive a corresponding feedback. <br>Please try to respond as <strong> fast </strong> and as <strong> accurately as possible </strong>.</li><li> Please remember only the to-be-remembered <span style='color: dodgerblue; font-size: 28px'>O</span> pictures. <br></li><li> Please minimize distractions and stay focused. </li><br><br>Press SPACE to START</div>","32","","","","","","","","","","","","","","","","","","","",""
"html-keyboard-response","48","263264","0.0-3.0-3.0-0.0","q6tdcdvp5mq90a0","practice_cue","5f46e4a6f5b7ba0bcc5a9d99","5f60e3c0a3b16e07647b2ff9","5f60ee6aa3526a00085ce025","false","null","<span style=""color: black; font-size: 48px"">M + N</span>","null","","","","resp_prompt","","","","","","","","","","","","","","","",""
"categorize-image","49","263915","0.0-3.0-3.0-1.0","q6tdcdvp5mq90a0","practice_cue","5f46e4a6f5b7ba0bcc5a9d99","5f60e3c0a3b16e07647b2ff9","5f60ee6aa3526a00085ce025","true","645.1849999721162","./Stimuli/ImagesPractice/SM35.jpg","76","","","","test","false","M + N","83","","SM","SM35.jpg","forget","old","17","2","practice_forget","right","","","",""
"html-keyboard-response","50","264420","0.0-3.0-3.0-2.0-0.0","q6tdcdvp5mq90a0","practice_cue","5f46e4a6f5b7ba0bcc5a9d99","5f60e3c0a3b16e07647b2ff9","5f60ee6aa3526a00085ce025","false","null","<span style=""color: red; font-size: 48px"">Error!</span>","null","","","","feedback","","","","","","","","","","","","","","","",""
"html-keyboard-response","51","266424","0.0-3.0-3.0-3.0","q6tdcdvp5mq90a0","practice_cue","5f46e4a6f5b7ba0bcc5a9d99","5f60e3c0a3b16e07647b2ff9","5f60ee6aa3526a00085ce025","false","null","<div style=""align-items: center; display: flex; color: darkorange; font-size: 90px""><b>ø</b></div>","null","","","","forget_cue","","","","","","","","","","","","","","","",""
"html-keyboard-response","52","267129","0.0-3.0-3.0-0.1","q6tdcdvp5mq90a0","practice_cue","5f46e4a6f5b7ba0bcc5a9d99","5f60e3c0a3b16e07647b2ff9","5f60ee6aa3526a00085ce025","false","null","<span style=""color: black; font-size: 48px"">M + N</span>","null","","","","resp_prompt","","","","","","","","","","","","","","","",""
"categorize-image","53","268640","0.0-3.0-3.0-1.1","q6tdcdvp5mq90a0","practice_cue","5f46e4a6f5b7ba0bcc5a9d99","5f60e3c0a3b16e07647b2ff9","5f60ee6aa3526a00085ce025","true","1508.780000032857","./Stimuli/ImagesPractice/SN221.jpg","76","","","","test","true","M + N","76","","SN","SN221.jpg","forget","old","18","2","practice_forget","right","","","",""
"html-keyboard-response","54","270645","0.0-3.0-3.0-3.1","q6tdcdvp5mq90a0","practice_cue","5f46e4a6f5b7ba0bcc5a9d99","5f60e3c0a3b16e07647b2ff9","5f60ee6aa3526a00085ce025","false","null","<div style=""align-items: center; display: flex; color: darkorange; font-size: 90px""><b>ø</b></div>","null","","","","forget_cue","","","","","","","","","","","","","","","",""
"html-keyboard-response","55","271349","0.0-3.0-3.0-0.2","q6tdcdvp5mq90a0","practice_cue","5f46e4a6f5b7ba0bcc5a9d99","5f60e3c0a3b16e07647b2ff9","5f60ee6aa3526a00085ce025","false","null","<span style=""color: black; font-size: 48px"">N + M</span>","null","","","","resp_prompt","","","","","","","","","","","","","","","",""
"categorize-image","56","272614","0.0-3.0-3.0-1.2","q6tdcdvp5mq90a0","practice_cue","5f46e4a6f5b7ba0bcc5a9d99","5f60e3c0a3b16e07647b2ff9","5f60ee6aa3526a00085ce025","true","1262.4400000204332","./Stimuli/ImagesPractice/SN220.jpg","83","","","","test","true","N + M","83","","SN","SN220.jpg","remember","old","19","2","practice_forget","left","","","",""
"html-keyboard-response","57","274617","0.0-3.0-3.0-3.2","q6tdcdvp5mq90a0","practice_cue","5f46e4a6f5b7ba0bcc5a9d99","5f60e3c0a3b16e07647b2ff9","5f60ee6aa3526a00085ce025","false","null","<div style=""align-items: center; display: flex; color: dodgerblue; font-size: 90px""><b>o</b></div>","null","","","","forget_cue","","","","","","","","","","","","","","","",""
"html-keyboard-response","58","275323","0.0-3.0-3.0-0.3","q6tdcdvp5mq90a0","practice_cue","5f46e4a6f5b7ba0bcc5a9d99","5f60e3c0a3b16e07647b2ff9","5f60ee6aa3526a00085ce025","false","null","<span style=""color: black; font-size: 48px"">N + M</span>","null","","","","resp_prompt","","","","","","","","","","","","","","","",""
"categorize-image","59","276369","0.0-3.0-3.0-1.3","q6tdcdvp5mq90a0","practice_cue","5f46e4a6f5b7ba0bcc5a9d99","5f60e3c0a3b16e07647b2ff9","5f60ee6aa3526a00085ce025","true","1040.7499999855645","./Stimuli/ImagesPractice/LN2.jpg","76","","","","test","false","N + M","83","","LN","LN2.jpg","forget","old","20","2","practice_forget","right","","","",""
"html-keyboard-response","60","276874","0.0-3.0-3.0-2.3-0.3","q6tdcdvp5mq90a0","practice_cue","5f46e4a6f5b7ba0bcc5a9d99","5f60e3c0a3b16e07647b2ff9","5f60ee6aa3526a00085ce025","false","null","<span style=""color: red; font-size: 48px"">Error!</span>","null","","","","feedback","","","","","","","","","","","","","","","",""
"html-keyboard-response","61","278876","0.0-3.0-3.0-3.3","q6tdcdvp5mq90a0","practice_cue","5f46e4a6f5b7ba0bcc5a9d99","5f60e3c0a3b16e07647b2ff9","5f60ee6aa3526a00085ce025","false","null","<div style=""align-items: center; display: flex; color: darkorange; font-size: 90px""><b>ø</b></div>","null","","","","forget_cue","","","","","","","","","","","","","","","",""
"html-keyboard-response","62","279581","0.0-3.0-3.0-0.4","q6tdcdvp5mq90a0","practice_cue","5f46e4a6f5b7ba0bcc5a9d99","5f60e3c0a3b16e07647b2ff9","5f60ee6aa3526a00085ce025","false","null","<span style=""color: black; font-size: 48px"">M + N</span>","null","","","","resp_prompt","","","","","","","","","","","","","","","",""
"categorize-image","63","280653","0.0-3.0-3.0-1.4","q6tdcdvp5mq90a0","practice_cue","5f46e4a6f5b7ba0bcc5a9d99","5f60e3c0a3b16e07647b2ff9","5f60ee6aa3526a00085ce025","true","1066.5199999930337","./Stimuli/ImagesPractice/LM239.jpg","83","","","","test","true","M + N","83","","LM","LM239.jpg","remember","old","21","2","practice_forget","left","","","",""
"html-keyboard-response","64","282655","0.0-3.0-3.0-3.4","q6tdcdvp5mq90a0","practice_cue","5f46e4a6f5b7ba0bcc5a9d99","5f60e3c0a3b16e07647b2ff9","5f60ee6aa3526a00085ce025","false","null","<div style=""align-items: center; display: flex; color: dodgerblue; font-size: 90px""><b>o</b></div>","null","","","","forget_cue","","","","","","","","","","","","","","","",""
"html-keyboard-response","65","283357","0.0-3.0-3.0-0.5","q6tdcdvp5mq90a0","practice_cue","5f46e4a6f5b7ba0bcc5a9d99","5f60e3c0a3b16e07647b2ff9","5f60ee6aa3526a00085ce025","false","null","<span style=""color: black; font-size: 48px"">M + N</span>","null","","","","resp_prompt","","","","","","","","","","","","","","","",""
"categorize-image","66","284453","0.0-3.0-3.0-1.5","q6tdcdvp5mq90a0","practice_cue","5f46e4a6f5b7ba0bcc5a9d99","5f60e3c0a3b16e07647b2ff9","5f60ee6aa3526a00085ce025","true","1092.2399999690242","./Stimuli/ImagesPractice/SM62.jpg","83","","","","test","true","M + N","83","","SM","SM62.jpg","forget","old","22","2","practice_forget","left","","","",""
"html-keyboard-response","67","286458","0.0-3.0-3.0-3.5","q6tdcdvp5mq90a0","practice_cue","5f46e4a6f5b7ba0bcc5a9d99","5f60e3c0a3b16e07647b2ff9","5f60ee6aa3526a00085ce025","false","null","<div style=""align-items: center; display: flex; color: darkorange; font-size: 90px""><b>ø</b></div>","null","","","","forget_cue","","","","","","","","","","","","","","","",""
"html-keyboard-response","68","287162","0.0-3.0-3.0-0.6","q6tdcdvp5mq90a0","practice_cue","5f46e4a6f5b7ba0bcc5a9d99","5f60e3c0a3b16e07647b2ff9","5f60ee6aa3526a00085ce025","false","null","<span style=""color: black; font-size: 48px"">N + M</span>","null","","","","resp_prompt","","","","","","","","","","","","","","","",""
"categorize-image","69","288511","0.0-3.0-3.0-1.6","q6tdcdvp5mq90a0","practice_cue","5f46e4a6f5b7ba0bcc5a9d99","5f60e3c0a3b16e07647b2ff9","5f60ee6aa3526a00085ce025","true","1346.2650000001304","./Stimuli/ImagesPractice/SM61.jpg","83","","","","test","false","N + M","76","","SM","SM61.jpg","remember","old","23","2","practice_forget","left","","","",""
"html-keyboard-response","70","289015","0.0-3.0-3.0-2.6-0.6","q6tdcdvp5mq90a0","practice_cue","5f46e4a6f5b7ba0bcc5a9d99","5f60e3c0a3b16e07647b2ff9","5f60ee6aa3526a00085ce025","false","null","<span style=""color: red; font-size: 48px"">Error!</span>","null","","","","feedback","","","","","","","","","","","","","","","",""
"html-keyboard-response","71","291018","0.0-3.0-3.0-3.6","q6tdcdvp5mq90a0","practice_cue","5f46e4a6f5b7ba0bcc5a9d99","5f60e3c0a3b16e07647b2ff9","5f60ee6aa3526a00085ce025","false","null","<div style=""align-items: center; display: flex; color: dodgerblue; font-size: 90px""><b>o</b></div>","null","","","","forget_cue","","","","","","","","","","","","","","","",""
"html-keyboard-response","72","291721","0.0-3.0-3.0-0.7","q6tdcdvp5mq90a0","practice_cue","5f46e4a6f5b7ba0bcc5a9d99","5f60e3c0a3b16e07647b2ff9","5f60ee6aa3526a00085ce025","false","null","<span style=""color: black; font-size: 48px"">N + M</span>","null","","","","resp_prompt","","","","","","","","","","","","","","","",""
"categorize-image","73","293408","0.0-3.0-3.0-1.7","q6tdcdvp5mq90a0","practice_cue","5f46e4a6f5b7ba0bcc5a9d99","5f60e3c0a3b16e07647b2ff9","5f60ee6aa3526a00085ce025","true","1683.255000039935","./Stimuli/ImagesPractice/LN17.jpg","83","","","","test","true","N + M","83","","LN","LN17.jpg","remember","old","24","2","practice_forget","left","","","",""
"html-keyboard-response","74","295413","0.0-3.0-3.0-3.7","q6tdcdvp5mq90a0","practice_cue","5f46e4a6f5b7ba0bcc5a9d99","5f60e3c0a3b16e07647b2ff9","5f60ee6aa3526a00085ce025","false","null","<div style=""align-items: center; display: flex; color: dodgerblue; font-size: 90px""><b>o</b></div>","null","","","","forget_cue","","","","","","","","","","","","","","","",""
"html-keyboard-response","75","296117","0.0-3.0-3.0-0.8","q6tdcdvp5mq90a0","practice_cue","5f46e4a6f5b7ba0bcc5a9d99","5f60e3c0a3b16e07647b2ff9","5f60ee6aa3526a00085ce025","false","null","<span style=""color: black; font-size: 48px"">M + N</span>","null","","","","resp_prompt","","","","","","","","","","","","","","","",""
"categorize-image","76","296733","0.0-3.0-3.0-1.8","q6tdcdvp5mq90a0","practice_cue","5f46e4a6f5b7ba0bcc5a9d99","5f60e3c0a3b16e07647b2ff9","5f60ee6aa3526a00085ce025","true","612.6449999865144","./Stimuli/ImagesPractice/LM147.jpg","83","","","","test","true","M + N","83","","LM","LM147.jpg","remember","old","25","2","practice_forget","left","","","",""
"html-keyboard-response","77","298736","0.0-3.0-3.0-3.8","q6tdcdvp5mq90a0","practice_cue","5f46e4a6f5b7ba0bcc5a9d99","5f60e3c0a3b16e07647b2ff9","5f60ee6aa3526a00085ce025","false","null","<div style=""align-items: center; display: flex; color: dodgerblue; font-size: 90px""><b>o</b></div>","null","","","","forget_cue","","","","","","","","","","","","","","","",""
"html-keyboard-response","78","299443","0.0-3.0-3.0-0.9","q6tdcdvp5mq90a0","practice_cue","5f46e4a6f5b7ba0bcc5a9d99","5f60e3c0a3b16e07647b2ff9","5f60ee6aa3526a00085ce025","false","null","<span style=""color: black; font-size: 48px"">N + M</span>","null","","","","resp_prompt","","","","","","","","","","","","","","","",""
"categorize-image","79","300045","0.0-3.0-3.0-1.9","q6tdcdvp5mq90a0","practice_cue","5f46e4a6f5b7ba0bcc5a9d99","5f60e3c0a3b16e07647b2ff9","5f60ee6aa3526a00085ce025","true","597.925000009127","./Stimuli/ImagesPractice/SM97.jpg","76","","","","test","true","N + M","76","","SM","SM97.jpg","forget","old","26","2","practice_forget","right","","","",""
"html-keyboard-response","80","302050","0.0-3.0-3.0-3.9","q6tdcdvp5mq90a0","practice_cue","5f46e4a6f5b7ba0bcc5a9d99","5f60e3c0a3b16e07647b2ff9","5f60ee6aa3526a00085ce025","false","null","<div style=""align-items: center; display: flex; color: darkorange; font-size: 90px""><b>ø</b></div>","null","","","","forget_cue","","","","","","","","","","","","","","","",""
"html-keyboard-response","81","302754","0.0-3.0-3.0-0.10","q6tdcdvp5mq90a0","practice_cue","5f46e4a6f5b7ba0bcc5a9d99","5f60e3c0a3b16e07647b2ff9","5f60ee6aa3526a00085ce025","false","null","<span style=""color: black; font-size: 48px"">M + N</span>","null","","","","resp_prompt","","","","","","","","","","","","","","","",""
"categorize-image","82","304183","0.0-3.0-3.0-1.10","q6tdcdvp5mq90a0","practice_cue","5f46e4a6f5b7ba0bcc5a9d99","5f60e3c0a3b16e07647b2ff9","5f60ee6aa3526a00085ce025","true","1423.7100000027567","./Stimuli/ImagesPractice/SM98.jpg","83","","","","test","true","M + N","83","","SM","SM98.jpg","forget","old","27","2","practice_forget","left","","","",""
"html-keyboard-response","83","306186","0.0-3.0-3.0-3.10","q6tdcdvp5mq90a0","practice_cue","5f46e4a6f5b7ba0bcc5a9d99","5f60e3c0a3b16e07647b2ff9","5f60ee6aa3526a00085ce025","false","null","<div style=""align-items: center; display: flex; color: darkorange; font-size: 90px""><b>ø</b></div>","null","","","","forget_cue","","","","","","","","","","","","","","","",""
"html-keyboard-response","84","306891","0.0-3.0-3.0-0.11","q6tdcdvp5mq90a0","practice_cue","5f46e4a6f5b7ba0bcc5a9d99","5f60e3c0a3b16e07647b2ff9","5f60ee6aa3526a00085ce025","false","null","<span style=""color: black; font-size: 48px"">M + N</span>","null","","","","resp_prompt","","","","","","","","","","","","","","","",""
"categorize-image","85","308131","0.0-3.0-3.0-1.11","q6tdcdvp5mq90a0","practice_cue","5f46e4a6f5b7ba0bcc5a9d99","5f60e3c0a3b16e07647b2ff9","5f60ee6aa3526a00085ce025","true","1236.330000043381","./Stimuli/ImagesPractice/LM224.jpg","76","","","","test","false","M + N","83","","LM","LM224.jpg","remember","old","28","2","practice_forget","right","","","",""
"html-keyboard-response","86","308634","0.0-3.0-3.0-2.11-0.11","q6tdcdvp5mq90a0","practice_cue","5f46e4a6f5b7ba0bcc5a9d99","5f60e3c0a3b16e07647b2ff9","5f60ee6aa3526a00085ce025","false","null","<span style=""color: red; font-size: 48px"">Error!</span>","null","","","","feedback","","","","","","","","","","","","","","","",""
"html-keyboard-response","87","310636","0.0-3.0-3.0-3.11","q6tdcdvp5mq90a0","practice_cue","5f46e4a6f5b7ba0bcc5a9d99","5f60e3c0a3b16e07647b2ff9","5f60ee6aa3526a00085ce025","false","null","<div style=""align-items: center; display: flex; color: dodgerblue; font-size: 90px""><b>o</b></div>","null","","","","forget_cue","","","","","","","","","","","","","","","",""
"html-keyboard-response","88","311338","0.0-3.0-3.0-0.12","q6tdcdvp5mq90a0","practice_cue","5f46e4a6f5b7ba0bcc5a9d99","5f60e3c0a3b16e07647b2ff9","5f60ee6aa3526a00085ce025","false","null","<span style=""color: black; font-size: 48px"">N + M</span>","null","","","","resp_prompt","","","","","","","","","","","","","","","",""
"categorize-image","89","312469","0.0-3.0-3.0-1.12","q6tdcdvp5mq90a0","practice_cue","5f46e4a6f5b7ba0bcc5a9d99","5f60e3c0a3b16e07647b2ff9","5f60ee6aa3526a00085ce025","true","1127.6399999624118","./Stimuli/ImagesPractice/SN75.jpg","76","","","","test","false","N + M","83","","SN","SN75.jpg","forget","old","29","2","practice_forget","right","","","",""
"html-keyboard-response","90","312971","0.0-3.0-3.0-2.12-0.12","q6tdcdvp5mq90a0","practice_cue","5f46e4a6f5b7ba0bcc5a9d99","5f60e3c0a3b16e07647b2ff9","5f60ee6aa3526a00085ce025","false","null","<span style=""color: red; font-size: 48px"">Error!</span>","null","","","","feedback","","","","","","","","","","","","","","","",""
"html-keyboard-response","91","314972","0.0-3.0-3.0-3.12","q6tdcdvp5mq90a0","practice_cue","5f46e4a6f5b7ba0bcc5a9d99","5f60e3c0a3b16e07647b2ff9","5f60ee6aa3526a00085ce025","false","null","<div style=""align-items: center; display: flex; color: darkorange; font-size: 90px""><b>ø</b></div>","null","","","","forget_cue","","","","","","","","","","","","","","","",""
"html-keyboard-response","92","315677","0.0-3.0-3.0-0.13","q6tdcdvp5mq90a0","practice_cue","5f46e4a6f5b7ba0bcc5a9d99","5f60e3c0a3b16e07647b2ff9","5f60ee6aa3526a00085ce025","false","null","<span style=""color: black; font-size: 48px"">N + M</span>","null","","","","resp_prompt","","","","","","","","","","","","","","","",""
"categorize-image","93","316544","0.0-3.0-3.0-1.13","q6tdcdvp5mq90a0","practice_cue","5f46e4a6f5b7ba0bcc5a9d99","5f60e3c0a3b16e07647b2ff9","5f60ee6aa3526a00085ce025","true","862.314999976661","./Stimuli/ImagesPractice/LM55.jpg","76","","","","test","true","N + M","76","","LM","LM55.jpg","remember","old","30","2","practice_forget","right","","","",""
"html-keyboard-response","94","318548","0.0-3.0-3.0-3.13","q6tdcdvp5mq90a0","practice_cue","5f46e4a6f5b7ba0bcc5a9d99","5f60e3c0a3b16e07647b2ff9","5f60ee6aa3526a00085ce025","false","null","<div style=""align-items: center; display: flex; color: dodgerblue; font-size: 90px""><b>o</b></div>","null","","","","forget_cue","","","","","","","","","","","","","","","",""
"html-keyboard-response","95","319252","0.0-3.0-3.0-0.14","q6tdcdvp5mq90a0","practice_cue","5f46e4a6f5b7ba0bcc5a9d99","5f60e3c0a3b16e07647b2ff9","5f60ee6aa3526a00085ce025","false","null","<span style=""color: black; font-size: 48px"">M + N</span>","null","","","","resp_prompt","","","","","","","","","","","","","","","",""
"categorize-image","96","320059","0.0-3.0-3.0-1.14","q6tdcdvp5mq90a0","practice_cue","5f46e4a6f5b7ba0bcc5a9d99","5f60e3c0a3b16e07647b2ff9","5f60ee6aa3526a00085ce025","true","802.4549999972805","./Stimuli/ImagesPractice/LM230.jpg","83","","","","test","true","M + N","83","","LM","LM230.jpg","remember","old","31","2","practice_forget","left","","","",""
"html-keyboard-response","97","322061","0.0-3.0-3.0-3.14","q6tdcdvp5mq90a0","practice_cue","5f46e4a6f5b7ba0bcc5a9d99","5f60e3c0a3b16e07647b2ff9","5f60ee6aa3526a00085ce025","false","null","<div style=""align-items: center; display: flex; color: dodgerblue; font-size: 90px""><b>o</b></div>","null","","","","forget_cue","","","","","","","","","","","","","","","",""
"html-keyboard-response","98","322764","0.0-3.0-3.0-0.15","q6tdcdvp5mq90a0","practice_cue","5f46e4a6f5b7ba0bcc5a9d99","5f60e3c0a3b16e07647b2ff9","5f60ee6aa3526a00085ce025","false","null","<span style=""color: black; font-size: 48px"">N + M</span>","null","","","","resp_prompt","","","","","","","","","","","","","","","",""
"categorize-image","99","323609","0.0-3.0-3.0-1.15","q6tdcdvp5mq90a0","practice_cue","5f46e4a6f5b7ba0bcc5a9d99","5f60e3c0a3b16e07647b2ff9","5f60ee6aa3526a00085ce025","true","838.3800000301562","./Stimuli/ImagesPractice/LN72.jpg","76","","","","test","false","N + M","83","","LN","LN72.jpg","forget","old","32","2","practice_forget","right","","","",""
"html-keyboard-response","100","324111","0.0-3.0-3.0-2.15-0.15","q6tdcdvp5mq90a0","practice_cue","5f46e4a6f5b7ba0bcc5a9d99","5f60e3c0a3b16e07647b2ff9","5f60ee6aa3526a00085ce025","false","null","<span style=""color: red; font-size: 48px"">Error!</span>","null","","","","feedback","","","","","","","","","","","","","","","",""
"html-keyboard-response","101","326114","0.0-3.0-3.0-3.15","q6tdcdvp5mq90a0","practice_cue","5f46e4a6f5b7ba0bcc5a9d99","5f60e3c0a3b16e07647b2ff9","5f60ee6aa3526a00085ce025","false","null","<div style=""align-items: center; display: flex; color: darkorange; font-size: 90px""><b>ø</b></div>","null","","","","forget_cue","","","","","","","","","","","","","","","",""
"html-keyboard-response","102","332569","0.0-3.0-4.0","q6tdcdvp5mq90a0","break","5f46e4a6f5b7ba0bcc5a9d99","5f60e3c0a3b16e07647b2ff9","5f60ee6aa3526a00085ce025","false","6452.20999995945","<p style='font-size: 32px;'>Break</><br><br><br><br><br><p style='font-size: 24px;'>In the last block, you committed 6 errors and did not respond in time on 0 trials.
</p><p style='font-size: 24px;'>Try to respond as fast and accurately as possible in the next block as well! </p><p style='font-size: 24px;'>Press SPACE to continue.</p>","32","","","","","","","","","","","","","","","","","","","",""
"html-keyboard-response","103","345678","0.0-3.0-5.0","q6tdcdvp5mq90a0","instructions","5f46e4a6f5b7ba0bcc5a9d99","5f60e3c0a3b16e07647b2ff9","5f60ee6aa3526a00085ce025","false","13106.73499997938","<div align=left> Now, to practice, we kindly ask you to remember as many of the to-be-remembered pictures<br>of the previous learning phase as possible.<br><br>The pictures you were instructed to remember were the pictures followed by a <span style='color: dodgerblue; font-size: 28px'>O</span>.<br><br>In this memory test phase, you will also see some new pictures.<br>It is your task to remember whether you were presented with this specific picture in this study so far or not.<br>If you recognize an object (you have already seen it in this study), it is an OLD object. <br>If you do not recognize an object (you have NOT seen it in this study), it is a NEW object. <br><strong> Attention</strong>: As already mentioned, <span style='color: darkorange; font-size:28px'>Ø</span>-pictures will <strong>never</strong> appear in this memory test (neither as new objects). <br><br>Press SPACE to continue. </div>","32","","","","","","","","","","","","","","","","","","","",""
"html-keyboard-response","104","373308","0.0-3.0-6.0","q6tdcdvp5mq90a0","instructions","5f46e4a6f5b7ba0bcc5a9d99","5f60e3c0a3b16e07647b2ff9","5f60ee6aa3526a00085ce025","false","27626.805000007153","<div align=left> M and N no longer will appear on the left/right of the fixation cross. <br>Instead there will be a note at the bottom of the left or right side  <br>indicating which key you should press for an old or new object:  <br> <br>Press the <strong>right</strong> key to classify an object as <strong>old</strong> and press the <strong>left</strong>, to classify an object as <strong>new</strong>.<br>Please classify the objects as new/old by again placing your index finger on the 'S' and 'L' keys <br>and press them accordingly.<br><br><strong>Old:</strong> This object has been presented before. <br><strong>New:</strong> This object has <strong>not</strong> been presented.<br><br>Now please put your right and left index fingers on the 'S' and 'L' keys of your keyboard. <br>Please respond as fast and as accurately as possible!<br><br>Press SPACE to continue. </div>","32","","","","","","","","","","","","","","","","","","","",""
"categorize-image","105","375962","0.0-3.0-7.0-0.0","q6tdcdvp5mq90a0","practice_recog","5f46e4a6f5b7ba0bcc5a9d99","5f60e3c0a3b16e07647b2ff9","5f60ee6aa3526a00085ce025","true","2149.299999990035","./Stimuli/ImagesPractice/LN17.jpg","76","","","","test","true","","76","","LN","LN17.jpg","","old","33","3","practice_recog","right","","","",""
"categorize-image","106","377455","0.0-3.0-7.0-0.1","q6tdcdvp5mq90a0","practice_recog","5f46e4a6f5b7ba0bcc5a9d99","5f60e3c0a3b16e07647b2ff9","5f60ee6aa3526a00085ce025","true","985.0549999973737","./Stimuli/ImagesPractice/LN4.jpg","83","","","","test","true","","83","","LN","LN4.jpg","","new","34","3","practice_recog","left","","","",""
"categorize-image","107","378787","0.0-3.0-7.0-0.2","q6tdcdvp5mq90a0","practice_recog","5f46e4a6f5b7ba0bcc5a9d99","5f60e3c0a3b16e07647b2ff9","5f60ee6aa3526a00085ce025","true","826.0400000144728","./Stimuli/ImagesPractice/LM55.jpg","76","","","","test","true","","76","","LM","LM55.jpg","","old","35","3","practice_recog","right","","","",""
"categorize-image","108","380343","0.0-3.0-7.0-0.3","q6tdcdvp5mq90a0","practice_recog","5f46e4a6f5b7ba0bcc5a9d99","5f60e3c0a3b16e07647b2ff9","5f60ee6aa3526a00085ce025","true","1051.4649999677204","./Stimuli/ImagesPractice/LM147.jpg","76","","","","test","true","","76","","LM","LM147.jpg","","old","36","3","practice_recog","right","","","",""
"categorize-image","109","381425","0.0-3.0-7.0-0.4","q6tdcdvp5mq90a0","practice_recog","5f46e4a6f5b7ba0bcc5a9d99","5f60e3c0a3b16e07647b2ff9","5f60ee6aa3526a00085ce025","true","578.5549999563955","./Stimuli/ImagesPractice/SN220.jpg","76","","","","test","true","","76","","SN","SN220.jpg","","old","37","3","practice_recog","right","","","",""
"categorize-image","110","382811","0.0-3.0-7.0-0.5","q6tdcdvp5mq90a0","practice_recog","5f46e4a6f5b7ba0bcc5a9d99","5f60e3c0a3b16e07647b2ff9","5f60ee6aa3526a00085ce025","true","880.41499996325","./Stimuli/ImagesPractice/LM230.jpg","76","","","","test","true","","76","","LM","LM230.jpg","","old","38","3","practice_recog","right","","","",""
"categorize-image","111","383908","0.0-3.0-7.0-0.6","q6tdcdvp5mq90a0","practice_recog","5f46e4a6f5b7ba0bcc5a9d99","5f60e3c0a3b16e07647b2ff9","5f60ee6aa3526a00085ce025","true","592.9200000246055","./Stimuli/ImagesPractice/LN15.jpg","83","","","","test","true","","83","","LN","LN15.jpg","","new","39","3","practice_recog","left","","","",""
"categorize-image","112","385044","0.0-3.0-7.0-0.7","q6tdcdvp5mq90a0","practice_recog","5f46e4a6f5b7ba0bcc5a9d99","5f60e3c0a3b16e07647b2ff9","5f60ee6aa3526a00085ce025","true","632.3649999685585","./Stimuli/ImagesPractice/LM239.jpg","76","","","","test","true","","76","","LM","LM239.jpg","","old","40","3","practice_recog","right","","","",""
"categorize-image","113","386182","0.0-3.0-7.0-0.8","q6tdcdvp5mq90a0","practice_recog","5f46e4a6f5b7ba0bcc5a9d99","5f60e3c0a3b16e07647b2ff9","5f60ee6aa3526a00085ce025","true","631.3649999792688","./Stimuli/ImagesPractice/SM61.jpg","76","","","","test","true","","76","","SM","SM61.jpg","","old","41","3","practice_recog","right","","","",""
"categorize-image","114","387339","0.0-3.0-7.0-0.9","q6tdcdvp5mq90a0","practice_recog","5f46e4a6f5b7ba0bcc5a9d99","5f60e3c0a3b16e07647b2ff9","5f60ee6aa3526a00085ce025","true","651.6549999942072","./Stimuli/ImagesPractice/LM224.jpg","76","","","","test","true","","76","","LM","LM224.jpg","","old","42","3","practice_recog","right","","","",""
"categorize-image","115","388445","0.0-3.0-7.0-0.10","q6tdcdvp5mq90a0","practice_recog","5f46e4a6f5b7ba0bcc5a9d99","5f60e3c0a3b16e07647b2ff9","5f60ee6aa3526a00085ce025","true","601.4300000388175","./Stimuli/ImagesPractice/SM37.jpg","83","","","","test","true","","83","","SM","SM37.jpg","","new","43","3","practice_recog","left","","","",""
"categorize-image","116","389527","0.0-3.0-7.0-0.11","q6tdcdvp5mq90a0","practice_recog","5f46e4a6f5b7ba0bcc5a9d99","5f60e3c0a3b16e07647b2ff9","5f60ee6aa3526a00085ce025","true","577.8799999970943","./Stimuli/ImagesPractice/SN76.jpg","83","","","","test","true","","83","","SN","SN76.jpg","","new","44","3","practice_recog","left","","","",""
"categorize-image","117","390553","0.0-3.0-7.0-0.12","q6tdcdvp5mq90a0","practice_recog","5f46e4a6f5b7ba0bcc5a9d99","5f60e3c0a3b16e07647b2ff9","5f60ee6aa3526a00085ce025","true","522.9699999908917","./Stimuli/ImagesPractice/SN222.jpg","83","","","","test","true","","83","","SN","SN222.jpg","","new","45","3","practice_recog","left","","","",""
"categorize-image","118","391545","0.0-3.0-7.0-0.13","q6tdcdvp5mq90a0","practice_recog","5f46e4a6f5b7ba0bcc5a9d99","5f60e3c0a3b16e07647b2ff9","5f60ee6aa3526a00085ce025","true","488.1850000238046","./Stimuli/ImagesPractice/LN109.jpg","83","","","","test","true","","83","","LN","LN109.jpg","","new","46","3","practice_recog","left","","","",""
"categorize-image","119","392552","0.0-3.0-7.0-0.14","q6tdcdvp5mq90a0","practice_recog","5f46e4a6f5b7ba0bcc5a9d99","5f60e3c0a3b16e07647b2ff9","5f60ee6aa3526a00085ce025","true","502.0950000034645","./Stimuli/ImagesPractice/SN205.jpg","83","","","","test","true","","83","","SN","SN205.jpg","","new","47","3","practice_recog","left","","","",""
"categorize-image","120","393685","0.0-3.0-7.0-0.15","q6tdcdvp5mq90a0","practice_recog","5f46e4a6f5b7ba0bcc5a9d99","5f60e3c0a3b16e07647b2ff9","5f60ee6aa3526a00085ce025","true","629.9700000090525","./Stimuli/ImagesPractice/LM143.jpg","83","","","","test","true","","83","","LM","LM143.jpg","","new","48","3","practice_recog","left","","","",""
"html-keyboard-response","121","406507","0.0-3.0-8.0","q6tdcdvp5mq90a0","instructions","5f46e4a6f5b7ba0bcc5a9d99","5f60e3c0a3b16e07647b2ff9","5f60ee6aa3526a00085ce025","false","12820.475000014994","<div align=left> Great!<br><br>Are you ready to continue?<br>If you want to reread the instructions and redo the practice trials, please <br>press „Z“.<br><br>You can proceed when you are ready.<br><br>After the presentation of each object, you will receive an instruction whether to <br>remember or to forget the object.<br>We will test your memory of the following pictures only at the very end of <br>the experiment after all learning blocks are completed. <br><br>Press SPACE to CONTINUE when you are ready. </div>","32","","","","","","","","","","","","","","","","","","","",""
"html-keyboard-response","122","422951","0.0-4.0-0.0","q6tdcdvp5mq90a0","instructions","5f46e4a6f5b7ba0bcc5a9d99","5f60e3c0a3b16e07647b2ff9","5f60ee6aa3526a00085ce025","false","16442.685000016354","<div align=left> The actual experiment is about to start.<br>The practice trials are over!<br><br>Please always respond both fast and accurately!<br><br>Remember: <br> <br><li> Please place your index fingers on the <strong>'S'</strong> and <strong>'L'</strong> keys <br>to respond as fast and accurately as possible.</li><li> Every picture can be classified as either mechanical or non-mechanical.</li><li> If you do not respond in time or commit an error, you will receive a corresponding feedback.<br> Please try to respond as <strong> fast </strong> and as <strong> accurately as possible </strong>.</li><li> Remember the <span style='color: dodgerblue; font-size: 28px'>O</span> pictures. <br></li><li> Please minimize distractions and stay focused. </li><br><br>Press SPACE to START.</div>","32","","","","","","","","","","","","","","","","","","","",""
"html-keyboard-response","123","423655","0.0-4.0-1.0-0.0","q6tdcdvp5mq90a0","prime","5f46e4a6f5b7ba0bcc5a9d99","5f60e3c0a3b16e07647b2ff9","5f60ee6aa3526a00085ce025","false","null","<span style=""color: black; font-size: 48px"">M + N</span>","null","","","","resp_prompt","","","","","","","","","","","","","","","",""
"categorize-image","124","424304","0.0-4.0-1.0-1.0","q6tdcdvp5mq90a0","prime","5f46e4a6f5b7ba0bcc5a9d99","5f60e3c0a3b16e07647b2ff9","5f60ee6aa3526a00085ce025","true","642.7550000371411","./Stimuli/SelectedImages/LM/LM58.bmp","83","","","","test","true","M + N","83","switch","LM","LM58.bmp","forget","","49","3","prime1","left","","","",""
"html-keyboard-response","125","426306","0.0-4.0-1.0-3.0","q6tdcdvp5mq90a0","prime","5f46e4a6f5b7ba0bcc5a9d99","5f60e3c0a3b16e07647b2ff9","5f60ee6aa3526a00085ce025","false","null","<div style=""align-items: center; display: flex; color: darkorange; font-size: 90px""><b>ø</b></div>","null","","","","forget_cue","","","","","","","","","","","","","","","",""
"html-keyboard-response","126","427010","0.0-4.0-1.0-0.1","q6tdcdvp5mq90a0","prime","5f46e4a6f5b7ba0bcc5a9d99","5f60e3c0a3b16e07647b2ff9","5f60ee6aa3526a00085ce025","false","null","<span style=""color: black; font-size: 48px"">N + M</span>","null","","","","resp_prompt","","","","","","","","","","","","","","","",""
"categorize-image","127","428364","0.0-4.0-1.0-1.1","q6tdcdvp5mq90a0","prime","5f46e4a6f5b7ba0bcc5a9d99","5f60e3c0a3b16e07647b2ff9","5f60ee6aa3526a00085ce025","true","1350.8199999923818","./Stimuli/SelectedImages/LN/LN92.bmp","83","","","","test","true","N + M","83","repetition","LN","LN92.bmp","forget","","50","3","prime1","left","","","",""
"html-keyboard-response","128","430367","0.0-4.0-1.0-3.1","q6tdcdvp5mq90a0","prime","5f46e4a6f5b7ba0bcc5a9d99","5f60e3c0a3b16e07647b2ff9","5f60ee6aa3526a00085ce025","false","null","<div style=""align-items: center; display: flex; color: darkorange; font-size: 90px""><b>ø</b></div>","null","","","","forget_cue","","","","","","","","","","","","","","","",""
"html-keyboard-response","129","431069","0.0-4.0-1.0-0.2","q6tdcdvp5mq90a0","prime","5f46e4a6f5b7ba0bcc5a9d99","5f60e3c0a3b16e07647b2ff9","5f60ee6aa3526a00085ce025","false","null","<span style=""color: black; font-size: 48px"">M + N</span>","null","","","","resp_prompt","","","","","","","","","","","","","","","",""
"categorize-image","130","431939","0.0-4.0-1.0-1.2","q6tdcdvp5mq90a0","prime","5f46e4a6f5b7ba0bcc5a9d99","5f60e3c0a3b16e07647b2ff9","5f60ee6aa3526a00085ce025","true","862.360000028275","./Stimuli/SelectedImages/SN/SN93.bmp","83","","","","test","false","M + N","76","repetition","SN","SN93.bmp","remember","","51","3","prime1","left","","","",""
"html-keyboard-response","131","432443","0.0-4.0-1.0-2.2-0.2","q6tdcdvp5mq90a0","prime","5f46e4a6f5b7ba0bcc5a9d99","5f60e3c0a3b16e07647b2ff9","5f60ee6aa3526a00085ce025","false","null","<span style=""color: red; font-size: 48px"">Error!</span>","null","","","","feedback","","","","","","","","","","","","","","","",""
"html-keyboard-response","132","434447","0.0-4.0-1.0-3.2","q6tdcdvp5mq90a0","prime","5f46e4a6f5b7ba0bcc5a9d99","5f60e3c0a3b16e07647b2ff9","5f60ee6aa3526a00085ce025","false","null","<div style=""align-items: center; display: flex; color: dodgerblue; font-size: 90px""><b>o</b></div>","null","","","","forget_cue","","","","","","","","","","","","","","","",""
"html-keyboard-response","133","435153","0.0-4.0-1.0-0.3","q6tdcdvp5mq90a0","prime","5f46e4a6f5b7ba0bcc5a9d99","5f60e3c0a3b16e07647b2ff9","5f60ee6aa3526a00085ce025","false","null","<span style=""color: black; font-size: 48px"">N + M</span>","null","","","","resp_prompt","","","","","","","","","","","","","","","",""
"categorize-image","134","435763","0.0-4.0-1.0-1.3","q6tdcdvp5mq90a0","prime","5f46e4a6f5b7ba0bcc5a9d99","5f60e3c0a3b16e07647b2ff9","5f60ee6aa3526a00085ce025","true","604.7300000209361","./Stimuli/SelectedImages/SM/SM213.bmp","76","","","","test","true","N + M","76","repetition","SM","SM213.bmp","remember","","52","3","prime1","right","","","",""
"html-keyboard-response","135","437764","0.0-4.0-1.0-3.3","q6tdcdvp5mq90a0","prime","5f46e4a6f5b7ba0bcc5a9d99","5f60e3c0a3b16e07647b2ff9","5f60ee6aa3526a00085ce025","false","null","<div style=""align-items: center; display: flex; color: dodgerblue; font-size: 90px""><b>o</b></div>","null","","","","forget_cue","","","","","","","","","","","","","","","",""
"html-keyboard-response","136","438467","0.0-4.0-1.0-0.4","q6tdcdvp5mq90a0","prime","5f46e4a6f5b7ba0bcc5a9d99","5f60e3c0a3b16e07647b2ff9","5f60ee6aa3526a00085ce025","false","null","<span style=""color: black; font-size: 48px"">N + M</span>","null","","","","resp_prompt","","","","","","","","","","","","","","","",""
"categorize-image","137","440142","0.0-4.0-1.0-1.4","q6tdcdvp5mq90a0","prime","5f46e4a6f5b7ba0bcc5a9d99","5f60e3c0a3b16e07647b2ff9","5f60ee6aa3526a00085ce025","true","1671.1249999934807","./Stimuli/SelectedImages/SM/SM207.bmp","76","","","","test","true","N + M","76","repetition","SM","SM207.bmp","remember","","53","3","prime1","right","","","",""
"html-keyboard-response","138","442144","0.0-4.0-1.0-3.4","q6tdcdvp5mq90a0","prime","5f46e4a6f5b7ba0bcc5a9d99","5f60e3c0a3b16e07647b2ff9","5f60ee6aa3526a00085ce025","false","null","<div style=""align-items: center; display: flex; color: dodgerblue; font-size: 90px""><b>o</b></div>","null","","","","forget_cue","","","","","","","","","","","","","","","",""
"html-keyboard-response","139","442847","0.0-4.0-1.0-0.5","q6tdcdvp5mq90a0","prime","5f46e4a6f5b7ba0bcc5a9d99","5f60e3c0a3b16e07647b2ff9","5f60ee6aa3526a00085ce025","false","null","<span style=""color: black; font-size: 48px"">N + M</span>","null","","","","resp_prompt","","","","","","","","","","","","","","","",""
"categorize-image","140","443425","0.0-4.0-1.0-1.5","q6tdcdvp5mq90a0","prime","5f46e4a6f5b7ba0bcc5a9d99","5f60e3c0a3b16e07647b2ff9","5f60ee6aa3526a00085ce025","true","574.1099999868311","./Stimuli/SelectedImages/SN/SN18.bmp","83","","","","test","true","N + M","83","switch","SN","SN18.bmp","forget","","54","3","prime1","left","","","",""
"html-keyboard-response","141","445430","0.0-4.0-1.0-3.5","q6tdcdvp5mq90a0","prime","5f46e4a6f5b7ba0bcc5a9d99","5f60e3c0a3b16e07647b2ff9","5f60ee6aa3526a00085ce025","false","null","<div style=""align-items: center; display: flex; color: darkorange; font-size: 90px""><b>ø</b></div>","null","","","","forget_cue","","","","","","","","","","","","","","","",""
"html-keyboard-response","142","446134","0.0-4.0-1.0-0.6","q6tdcdvp5mq90a0","prime","5f46e4a6f5b7ba0bcc5a9d99","5f60e3c0a3b16e07647b2ff9","5f60ee6aa3526a00085ce025","false","null","<span style=""color: black; font-size: 48px"">M + N</span>","null","","","","resp_prompt","","","","","","","","","","","","","","","",""
"categorize-image","143","446624","0.0-4.0-1.0-1.6","q6tdcdvp5mq90a0","prime","5f46e4a6f5b7ba0bcc5a9d99","5f60e3c0a3b16e07647b2ff9","5f60ee6aa3526a00085ce025","true","484.5149999600835","./Stimuli/SelectedImages/SN/SN27.bmp","76","","","","test","true","M + N","76","switch","SN","SN27.bmp","remember","","55","3","prime1","right","","","",""
"html-keyboard-response","144","448628","0.0-4.0-1.0-3.6","q6tdcdvp5mq90a0","prime","5f46e4a6f5b7ba0bcc5a9d99","5f60e3c0a3b16e07647b2ff9","5f60ee6aa3526a00085ce025","false","null","<div style=""align-items: center; display: flex; color: dodgerblue; font-size: 90px""><b>o</b></div>","null","","","","forget_cue","","","","","","","","","","","","","","","",""
"html-keyboard-response","145","449334","0.0-4.0-1.0-0.7","q6tdcdvp5mq90a0","prime","5f46e4a6f5b7ba0bcc5a9d99","5f60e3c0a3b16e07647b2ff9","5f60ee6aa3526a00085ce025","false","null","<span style=""color: black; font-size: 48px"">N + M</span>","null","","","","resp_prompt","","","","","","","","","","","","","","","",""
"categorize-image","146","449818","0.0-4.0-1.0-1.7","q6tdcdvp5mq90a0","prime","5f46e4a6f5b7ba0bcc5a9d99","5f60e3c0a3b16e07647b2ff9","5f60ee6aa3526a00085ce025","true","479.38999999314547","./Stimuli/SelectedImages/LM/LM235.bmp","76","","","","test","true","N + M","76","repetition","LM","LM235.bmp","forget","","56","3","prime1","right","","","",""
"html-keyboard-response","147","451822","0.0-4.0-1.0-3.7","q6tdcdvp5mq90a0","prime","5f46e4a6f5b7ba0bcc5a9d99","5f60e3c0a3b16e07647b2ff9","5f60ee6aa3526a00085ce025","false","null","<div style=""align-items: center; display: flex; color: darkorange; font-size: 90px""><b>ø</b></div>","null","","","","forget_cue","","","","","","","","","","","","","","","",""
"html-keyboard-response","148","452526","0.0-4.0-1.0-0.8","q6tdcdvp5mq90a0","prime","5f46e4a6f5b7ba0bcc5a9d99","5f60e3c0a3b16e07647b2ff9","5f60ee6aa3526a00085ce025","false","null","<span style=""color: black; font-size: 48px"">M + N</span>","null","","","","resp_prompt","","","","","","","","","","","","","","","",""
"categorize-image","149","453112","0.0-4.0-1.0-1.8","q6tdcdvp5mq90a0","prime","5f46e4a6f5b7ba0bcc5a9d99","5f60e3c0a3b16e07647b2ff9","5f60ee6aa3526a00085ce025","true","582.8800000017509","./Stimuli/SelectedImages/LN/LN131.bmp","76","","","","test","true","M + N","76","repetition","LN","LN131.bmp","remember","","57","3","prime1","right","","","",""
"html-keyboard-response","150","455117","0.0-4.0-1.0-3.8","q6tdcdvp5mq90a0","prime","5f46e4a6f5b7ba0bcc5a9d99","5f60e3c0a3b16e07647b2ff9","5f60ee6aa3526a00085ce025","false","null","<div style=""align-items: center; display: flex; color: dodgerblue; font-size: 90px""><b>o</b></div>","null","","","","forget_cue","","","","","","","","","","","","","","","",""
"html-keyboard-response","151","455821","0.0-4.0-1.0-0.9","q6tdcdvp5mq90a0","prime","5f46e4a6f5b7ba0bcc5a9d99","5f60e3c0a3b16e07647b2ff9","5f60ee6aa3526a00085ce025","false","null","<span style=""color: black; font-size: 48px"">M + N</span>","null","","","","resp_prompt","","","","","","","","","","","","","","","",""
"categorize-image","152","456443","0.0-4.0-1.0-1.9","q6tdcdvp5mq90a0","prime","5f46e4a6f5b7ba0bcc5a9d99","5f60e3c0a3b16e07647b2ff9","5f60ee6aa3526a00085ce025","true","617.5200000288896","./Stimuli/SelectedImages/LN/LN12.bmp","76","","","","test","true","M + N","76","repetition","LN","LN12.bmp","forget","","58","3","prime1","right","","","",""
"html-keyboard-response","153","458445","0.0-4.0-1.0-3.9","q6tdcdvp5mq90a0","prime","5f46e4a6f5b7ba0bcc5a9d99","5f60e3c0a3b16e07647b2ff9","5f60ee6aa3526a00085ce025","false","null","<div style=""align-items: center; display: flex; color: darkorange; font-size: 90px""><b>ø</b></div>","null","","","","forget_cue","","","","","","","","","","","","","","","",""
"html-keyboard-response","154","459150","0.0-4.0-1.0-0.10","q6tdcdvp5mq90a0","prime","5f46e4a6f5b7ba0bcc5a9d99","5f60e3c0a3b16e07647b2ff9","5f60ee6aa3526a00085ce025","false","null","<span style=""color: black; font-size: 48px"">M + N</span>","null","","","","resp_prompt","","","","","","","","","","","","","","","",""
"categorize-image","155","459653","0.0-4.0-1.0-1.10","q6tdcdvp5mq90a0","prime","5f46e4a6f5b7ba0bcc5a9d99","5f60e3c0a3b16e07647b2ff9","5f60ee6aa3526a00085ce025","true","497.32000002404675","./Stimuli/SelectedImages/LN/LN28.bmp","76","","","","test","true","M + N","76","switch","LN","LN28.bmp","forget","","59","3","prime1","right","","","",""
"html-keyboard-response","156","461656","0.0-4.0-1.0-3.10","q6tdcdvp5mq90a0","prime","5f46e4a6f5b7ba0bcc5a9d99","5f60e3c0a3b16e07647b2ff9","5f60ee6aa3526a00085ce025","false","null","<div style=""align-items: center; display: flex; color: darkorange; font-size: 90px""><b>ø</b></div>","null","","","","forget_cue","","","","","","","","","","","","","","","",""
"html-keyboard-response","157","462359","0.0-4.0-1.0-0.11","q6tdcdvp5mq90a0","prime","5f46e4a6f5b7ba0bcc5a9d99","5f60e3c0a3b16e07647b2ff9","5f60ee6aa3526a00085ce025","false","null","<span style=""color: black; font-size: 48px"">N + M</span>","null","","","","resp_prompt","","","","","","","","","","","","","","","",""
"categorize-image","158","463126","0.0-4.0-1.0-1.11","q6tdcdvp5mq90a0","prime","5f46e4a6f5b7ba0bcc5a9d99","5f60e3c0a3b16e07647b2ff9","5f60ee6aa3526a00085ce025","true","763.1549999932759","./Stimuli/SelectedImages/LM/LM129.bmp","76","","","","test","true","N + M","76","repetition","LM","LM129.bmp","remember","","60","3","prime1","right","","","",""
"html-keyboard-response","159","465129","0.0-4.0-1.0-3.11","q6tdcdvp5mq90a0","prime","5f46e4a6f5b7ba0bcc5a9d99","5f60e3c0a3b16e07647b2ff9","5f60ee6aa3526a00085ce025","false","null","<div style=""align-items: center; display: flex; color: dodgerblue; font-size: 90px""><b>o</b></div>","null","","","","forget_cue","","","","","","","","","","","","","","","",""
"html-keyboard-response","160","465830","0.0-4.0-1.0-0.12","q6tdcdvp5mq90a0","prime","5f46e4a6f5b7ba0bcc5a9d99","5f60e3c0a3b16e07647b2ff9","5f60ee6aa3526a00085ce025","false","null","<span style=""color: black; font-size: 48px"">N + M</span>","null","","","","resp_prompt","","","","","","","","","","","","","","","",""
"categorize-image","161","466451","0.0-4.0-1.0-1.12","q6tdcdvp5mq90a0","prime","5f46e4a6f5b7ba0bcc5a9d99","5f60e3c0a3b16e07647b2ff9","5f60ee6aa3526a00085ce025","true","617.3849999904633","./Stimuli/SelectedImages/SN/SN187.bmp","76","","","","test","false","N + M","83","switch","SN","SN187.bmp","forget","","61","3","prime1","right","","","",""
"html-keyboard-response","162","466955","0.0-4.0-1.0-2.12-0.12","q6tdcdvp5mq90a0","prime","5f46e4a6f5b7ba0bcc5a9d99","5f60e3c0a3b16e07647b2ff9","5f60ee6aa3526a00085ce025","false","null","<span style=""color: red; font-size: 48px"">Error!</span>","null","","","","feedback","","","","","","","","","","","","","","","",""
"html-keyboard-response","163","468955","0.0-4.0-1.0-3.12","q6tdcdvp5mq90a0","prime","5f46e4a6f5b7ba0bcc5a9d99","5f60e3c0a3b16e07647b2ff9","5f60ee6aa3526a00085ce025","false","null","<div style=""align-items: center; display: flex; color: darkorange; font-size: 90px""><b>ø</b></div>","null","","","","forget_cue","","","","","","","","","","","","","","","",""
"html-keyboard-response","164","469659","0.0-4.0-1.0-0.13","q6tdcdvp5mq90a0","prime","5f46e4a6f5b7ba0bcc5a9d99","5f60e3c0a3b16e07647b2ff9","5f60ee6aa3526a00085ce025","false","null","<span style=""color: black; font-size: 48px"">N + M</span>","null","","","","resp_prompt","","","","","","","","","","","","","","","",""
"categorize-image","165","470310","0.0-4.0-1.0-1.13","q6tdcdvp5mq90a0","prime","5f46e4a6f5b7ba0bcc5a9d99","5f60e3c0a3b16e07647b2ff9","5f60ee6aa3526a00085ce025","true","647.3899999982677","./Stimuli/SelectedImages/SN/SN155.bmp","83","","","","test","true","N + M","83","switch","SN","SN155.bmp","remember","","62","3","prime1","left","","","",""
"html-keyboard-response","166","472313","0.0-4.0-1.0-3.13","q6tdcdvp5mq90a0","prime","5f46e4a6f5b7ba0bcc5a9d99","5f60e3c0a3b16e07647b2ff9","5f60ee6aa3526a00085ce025","false","null","<div style=""align-items: center; display: flex; color: dodgerblue; font-size: 90px""><b>o</b></div>","null","","","","forget_cue","","","","","","","","","","","","","","","",""
"html-keyboard-response","167","473018","0.0-4.0-1.0-0.14","q6tdcdvp5mq90a0","prime","5f46e4a6f5b7ba0bcc5a9d99","5f60e3c0a3b16e07647b2ff9","5f60ee6aa3526a00085ce025","false","null","<span style=""color: black; font-size: 48px"">M + N</span>","null","","","","resp_prompt","","","","","","","","","","","","","","","",""
"categorize-image","168","473834","0.0-4.0-1.0-1.14","q6tdcdvp5mq90a0","prime","5f46e4a6f5b7ba0bcc5a9d99","5f60e3c0a3b16e07647b2ff9","5f60ee6aa3526a00085ce025","true","812.8699999651872","./Stimuli/SelectedImages/SN/SN111.bmp","83","","","","test","false","M + N","76","repetition","SN","SN111.bmp","forget","","63","3","prime1","left","","","",""
"html-keyboard-response","169","474339","0.0-4.0-1.0-2.14-0.14","q6tdcdvp5mq90a0","prime","5f46e4a6f5b7ba0bcc5a9d99","5f60e3c0a3b16e07647b2ff9","5f60ee6aa3526a00085ce025","false","null","<span style=""color: red; font-size: 48px"">Error!</span>","null","","","","feedback","","","","","","","","","","","","","","","",""
"html-keyboard-response","170","476342","0.0-4.0-1.0-3.14","q6tdcdvp5mq90a0","prime","5f46e4a6f5b7ba0bcc5a9d99","5f60e3c0a3b16e07647b2ff9","5f60ee6aa3526a00085ce025","false","null","<div style=""align-items: center; display: flex; color: darkorange; font-size: 90px""><b>ø</b></div>","null","","","","forget_cue","","","","","","","","","","","","","","","",""
"html-keyboard-response","171","477044","0.0-4.0-1.0-0.15","q6tdcdvp5mq90a0","prime","5f46e4a6f5b7ba0bcc5a9d99","5f60e3c0a3b16e07647b2ff9","5f60ee6aa3526a00085ce025","false","null","<span style=""color: black; font-size: 48px"">N + M</span>","null","","","","resp_prompt","","","","","","","","","","","","","","","",""
"categorize-image","172","477630","0.0-4.0-1.0-1.15","q6tdcdvp5mq90a0","prime","5f46e4a6f5b7ba0bcc5a9d99","5f60e3c0a3b16e07647b2ff9","5f60ee6aa3526a00085ce025","true","581.2900000018999","./Stimuli/SelectedImages/LM/LM59.bmp","76","","","","test","true","N + M","76","switch","LM","LM59.bmp","forget","","64","3","prime1","right","","","",""
"html-keyboard-response","173","479634","0.0-4.0-1.0-3.15","q6tdcdvp5mq90a0","prime","5f46e4a6f5b7ba0bcc5a9d99","5f60e3c0a3b16e07647b2ff9","5f60ee6aa3526a00085ce025","false","null","<div style=""align-items: center; display: flex; color: darkorange; font-size: 90px""><b>ø</b></div>","null","","","","forget_cue","","","","","","","","","","","","","","","",""
"html-keyboard-response","174","480339","0.0-4.0-1.0-0.16","q6tdcdvp5mq90a0","prime","5f46e4a6f5b7ba0bcc5a9d99","5f60e3c0a3b16e07647b2ff9","5f60ee6aa3526a00085ce025","false","null","<span style=""color: black; font-size: 48px"">M + N</span>","null","","","","resp_prompt","","","","","","","","","","","","","","","",""
"categorize-image","175","481477","0.0-4.0-1.0-1.16","q6tdcdvp5mq90a0","prime","5f46e4a6f5b7ba0bcc5a9d99","5f60e3c0a3b16e07647b2ff9","5f60ee6aa3526a00085ce025","true","1134.4999999855645","./Stimuli/SelectedImages/SM/SM128.bmp","83","","","","test","true","M + N","83","repetition","SM","SM128.bmp","remember","","65","3","prime1","left","","","",""
"html-keyboard-response","176","483482","0.0-4.0-1.0-3.16","q6tdcdvp5mq90a0","prime","5f46e4a6f5b7ba0bcc5a9d99","5f60e3c0a3b16e07647b2ff9","5f60ee6aa3526a00085ce025","false","null","<div style=""align-items: center; display: flex; color: dodgerblue; font-size: 90px""><b>o</b></div>","null","","","","forget_cue","","","","","","","","","","","","","","","",""
"html-keyboard-response","177","484186","0.0-4.0-1.0-0.17","q6tdcdvp5mq90a0","prime","5f46e4a6f5b7ba0bcc5a9d99","5f60e3c0a3b16e07647b2ff9","5f60ee6aa3526a00085ce025","false","null","<span style=""color: black; font-size: 48px"">M + N</span>","null","","","","resp_prompt","","","","","","","","","","","","","","","",""
"categorize-image","178","484962","0.0-4.0-1.0-1.17","q6tdcdvp5mq90a0","prime","5f46e4a6f5b7ba0bcc5a9d99","5f60e3c0a3b16e07647b2ff9","5f60ee6aa3526a00085ce025","true","771.439999982249","./Stimuli/SelectedImages/LM/LM216.bmp","76","","","","test","false","M + N","83","switch","LM","LM216.bmp","forget","","66","3","prime1","right","","","",""
"html-keyboard-response","179","485465","0.0-4.0-1.0-2.17-0.17","q6tdcdvp5mq90a0","prime","5f46e4a6f5b7ba0bcc5a9d99","5f60e3c0a3b16e07647b2ff9","5f60ee6aa3526a00085ce025","false","null","<span style=""color: red; font-size: 48px"">Error!</span>","null","","","","feedback","","","","","","","","","","","","","","","",""
"html-keyboard-response","180","487468","0.0-4.0-1.0-3.17","q6tdcdvp5mq90a0","prime","5f46e4a6f5b7ba0bcc5a9d99","5f60e3c0a3b16e07647b2ff9","5f60ee6aa3526a00085ce025","false","null","<div style=""align-items: center; display: flex; color: darkorange; font-size: 90px""><b>ø</b></div>","null","","","","forget_cue","","","","","","","","","","","","","","","",""
"html-keyboard-response","181","488171","0.0-4.0-1.0-0.18","q6tdcdvp5mq90a0","prime","5f46e4a6f5b7ba0bcc5a9d99","5f60e3c0a3b16e07647b2ff9","5f60ee6aa3526a00085ce025","false","null","<span style=""color: black; font-size: 48px"">M + N</span>","null","","","","resp_prompt","","","","","","","","","","","","","","","",""
"categorize-image","182","488648","0.0-4.0-1.0-1.18","q6tdcdvp5mq90a0","prime","5f46e4a6f5b7ba0bcc5a9d99","5f60e3c0a3b16e07647b2ff9","5f60ee6aa3526a00085ce025","true","474.18499999912456","./Stimuli/SelectedImages/SM/SM76.bmp","83","","","","test","true","M + N","83","repetition","SM","SM76.bmp","forget","","67","3","prime1","left","","","",""
"html-keyboard-response","183","490650","0.0-4.0-1.0-3.18","q6tdcdvp5mq90a0","prime","5f46e4a6f5b7ba0bcc5a9d99","5f60e3c0a3b16e07647b2ff9","5f60ee6aa3526a00085ce025","false","null","<div style=""align-items: center; display: flex; color: darkorange; font-size: 90px""><b>ø</b></div>","null","","","","forget_cue","","","","","","","","","","","","","","","",""
"html-keyboard-response","184","491354","0.0-4.0-1.0-0.19","q6tdcdvp5mq90a0","prime","5f46e4a6f5b7ba0bcc5a9d99","5f60e3c0a3b16e07647b2ff9","5f60ee6aa3526a00085ce025","false","null","<span style=""color: black; font-size: 48px"">N + M</span>","null","","","","resp_prompt","","","","","","","","","","","","","","","",""
"categorize-image","185","491847","0.0-4.0-1.0-1.19","q6tdcdvp5mq90a0","prime","5f46e4a6f5b7ba0bcc5a9d99","5f60e3c0a3b16e07647b2ff9","5f60ee6aa3526a00085ce025","true","488.64499997580424","./Stimuli/SelectedImages/SM/SM24.bmp","76","","","","test","true","N + M","76","switch","SM","SM24.bmp","remember","","68","3","prime1","right","","","",""
"html-keyboard-response","186","493850","0.0-4.0-1.0-3.19","q6tdcdvp5mq90a0","prime","5f46e4a6f5b7ba0bcc5a9d99","5f60e3c0a3b16e07647b2ff9","5f60ee6aa3526a00085ce025","false","null","<div style=""align-items: center; display: flex; color: dodgerblue; font-size: 90px""><b>o</b></div>","null","","","","forget_cue","","","","","","","","","","","","","","","",""
"html-keyboard-response","187","494554","0.0-4.0-1.0-0.20","q6tdcdvp5mq90a0","prime","5f46e4a6f5b7ba0bcc5a9d99","5f60e3c0a3b16e07647b2ff9","5f60ee6aa3526a00085ce025","false","null","<span style=""color: black; font-size: 48px"">M + N</span>","null","","","","resp_prompt","","","","","","","","","","","","","","","",""
"categorize-image","188","495142","0.0-4.0-1.0-1.20","q6tdcdvp5mq90a0","prime","5f46e4a6f5b7ba0bcc5a9d99","5f60e3c0a3b16e07647b2ff9","5f60ee6aa3526a00085ce025","true","583.5300000035204","./Stimuli/SelectedImages/SN/SN181.bmp","76","","","","test","true","M + N","76","repetition","SN","SN181.bmp","remember","","69","3","prime1","right","","","",""
"html-keyboard-response","189","497144","0.0-4.0-1.0-3.20","q6tdcdvp5mq90a0","prime","5f46e4a6f5b7ba0bcc5a9d99","5f60e3c0a3b16e07647b2ff9","5f60ee6aa3526a00085ce025","false","null","<div style=""align-items: center; display: flex; color: dodgerblue; font-size: 90px""><b>o</b></div>","null","","","","forget_cue","","","","","","","","","","","","","","","",""
"html-keyboard-response","190","497846","0.0-4.0-1.0-0.21","q6tdcdvp5mq90a0","prime","5f46e4a6f5b7ba0bcc5a9d99","5f60e3c0a3b16e07647b2ff9","5f60ee6aa3526a00085ce025","false","null","<span style=""color: black; font-size: 48px"">N + M</span>","null","","","","resp_prompt","","","","","","","","","","","","","","","",""
"categorize-image","191","498629","0.0-4.0-1.0-1.21","q6tdcdvp5mq90a0","prime","5f46e4a6f5b7ba0bcc5a9d99","5f60e3c0a3b16e07647b2ff9","5f60ee6aa3526a00085ce025","true","778.649999992922","./Stimuli/SelectedImages/SM/SM205.bmp","76","","","","test","true","N + M","76","repetition","SM","SM205.bmp","forget","","70","3","prime1","right","","","",""
"html-keyboard-response","192","500634","0.0-4.0-1.0-3.21","q6tdcdvp5mq90a0","prime","5f46e4a6f5b7ba0bcc5a9d99","5f60e3c0a3b16e07647b2ff9","5f60ee6aa3526a00085ce025","false","null","<div style=""align-items: center; display: flex; color: darkorange; font-size: 90px""><b>ø</b></div>","null","","","","forget_cue","","","","","","","","","","","","","","","",""
"html-keyboard-response","193","501337","0.0-4.0-1.0-0.22","q6tdcdvp5mq90a0","prime","5f46e4a6f5b7ba0bcc5a9d99","5f60e3c0a3b16e07647b2ff9","5f60ee6aa3526a00085ce025","false","null","<span style=""color: black; font-size: 48px"">N + M</span>","null","","","","resp_prompt","","","","","","","","","","","","","","","",""
"categorize-image","194","501832","0.0-4.0-1.0-1.22","q6tdcdvp5mq90a0","prime","5f46e4a6f5b7ba0bcc5a9d99","5f60e3c0a3b16e07647b2ff9","5f60ee6aa3526a00085ce025","true","489.9250000016764","./Stimuli/SelectedImages/SN/SN182.bmp","83","","","","test","true","N + M","83","switch","SN","SN182.bmp","remember","","71","3","prime1","left","","","",""
"html-keyboard-response","195","503835","0.0-4.0-1.0-3.22","q6tdcdvp5mq90a0","prime","5f46e4a6f5b7ba0bcc5a9d99","5f60e3c0a3b16e07647b2ff9","5f60ee6aa3526a00085ce025","false","null","<div style=""align-items: center; display: flex; color: dodgerblue; font-size: 90px""><b>o</b></div>","null","","","","forget_cue","","","","","","","","","","","","","","","",""
"html-keyboard-response","196","504537","0.0-4.0-1.0-0.23","q6tdcdvp5mq90a0","prime","5f46e4a6f5b7ba0bcc5a9d99","5f60e3c0a3b16e07647b2ff9","5f60ee6aa3526a00085ce025","false","null","<span style=""color: black; font-size: 48px"">M + N</span>","null","","","","resp_prompt","","","","","","","","","","","","","","","",""
"categorize-image","197","504967","0.0-4.0-1.0-1.23","q6tdcdvp5mq90a0","prime","5f46e4a6f5b7ba0bcc5a9d99","5f60e3c0a3b16e07647b2ff9","5f60ee6aa3526a00085ce025","true","426.2849999940954","./Stimuli/SelectedImages/LM/LM51.bmp","83","","","","test","true","M + N","83","repetition","LM","LM51.bmp","remember","","72","3","prime1","left","","","",""
"html-keyboard-response","198","506971","0.0-4.0-1.0-3.23","q6tdcdvp5mq90a0","prime","5f46e4a6f5b7ba0bcc5a9d99","5f60e3c0a3b16e07647b2ff9","5f60ee6aa3526a00085ce025","false","null","<div style=""align-items: center; display: flex; color: dodgerblue; font-size: 90px""><b>o</b></div>","null","","","","forget_cue","","","","","","","","","","","","","","","",""
"html-keyboard-response","199","507679","0.0-4.0-1.0-0.24","q6tdcdvp5mq90a0","prime","5f46e4a6f5b7ba0bcc5a9d99","5f60e3c0a3b16e07647b2ff9","5f60ee6aa3526a00085ce025","false","null","<span style=""color: black; font-size: 48px"">N + M</span>","null","","","","resp_prompt","","","","","","","","","","","","","","","",""
"categorize-image","200","508589","0.0-4.0-1.0-1.24","q6tdcdvp5mq90a0","prime","5f46e4a6f5b7ba0bcc5a9d99","5f60e3c0a3b16e07647b2ff9","5f60ee6aa3526a00085ce025","true","904.6350000426173","./Stimuli/SelectedImages/LN/LN177.bmp","83","","","","test","true","N + M","83","switch","LN","LN177.bmp","forget","","73","3","prime1","left","","","",""
"html-keyboard-response","201","510594","0.0-4.0-1.0-3.24","q6tdcdvp5mq90a0","prime","5f46e4a6f5b7ba0bcc5a9d99","5f60e3c0a3b16e07647b2ff9","5f60ee6aa3526a00085ce025","false","null","<div style=""align-items: center; display: flex; color: darkorange; font-size: 90px""><b>ø</b></div>","null","","","","forget_cue","","","","","","","","","","","","","","","",""
"html-keyboard-response","202","511297","0.0-4.0-1.0-0.25","q6tdcdvp5mq90a0","prime","5f46e4a6f5b7ba0bcc5a9d99","5f60e3c0a3b16e07647b2ff9","5f60ee6aa3526a00085ce025","false","null","<span style=""color: black; font-size: 48px"">M + N</span>","null","","","","resp_prompt","","","","","","","","","","","","","","","",""
"categorize-image","203","511903","0.0-4.0-1.0-1.25","q6tdcdvp5mq90a0","prime","5f46e4a6f5b7ba0bcc5a9d99","5f60e3c0a3b16e07647b2ff9","5f60ee6aa3526a00085ce025","true","602.0950000383891","./Stimuli/SelectedImages/SM/SM184.bmp","83","","","","test","true","M + N","83","switch","SM","SM184.bmp","remember","","74","3","prime1","left","","","",""
"html-keyboard-response","204","513904","0.0-4.0-1.0-3.25","q6tdcdvp5mq90a0","prime","5f46e4a6f5b7ba0bcc5a9d99","5f60e3c0a3b16e07647b2ff9","5f60ee6aa3526a00085ce025","false","null","<div style=""align-items: center; display: flex; color: dodgerblue; font-size: 90px""><b>o</b></div>","null","","","","forget_cue","","","","","","","","","","","","","","","",""
"html-keyboard-response","205","514607","0.0-4.0-1.0-0.26","q6tdcdvp5mq90a0","prime","5f46e4a6f5b7ba0bcc5a9d99","5f60e3c0a3b16e07647b2ff9","5f60ee6aa3526a00085ce025","false","null","<span style=""color: black; font-size: 48px"">M + N</span>","null","","","","resp_prompt","","","","","","","","","","","","","","","",""
"categorize-image","206","515508","0.0-4.0-1.0-1.26","q6tdcdvp5mq90a0","prime","5f46e4a6f5b7ba0bcc5a9d99","5f60e3c0a3b16e07647b2ff9","5f60ee6aa3526a00085ce025","true","898.3399999560788","./Stimuli/SelectedImages/LN/LN59.bmp","76","","","","test","true","M + N","76","repetition","LN","LN59.bmp","forget","","75","3","prime1","right","","","",""
"html-keyboard-response","207","517510","0.0-4.0-1.0-3.26","q6tdcdvp5mq90a0","prime","5f46e4a6f5b7ba0bcc5a9d99","5f60e3c0a3b16e07647b2ff9","5f60ee6aa3526a00085ce025","false","null","<div style=""align-items: center; display: flex; color: darkorange; font-size: 90px""><b>ø</b></div>","null","","","","forget_cue","","","","","","","","","","","","","","","",""
"html-keyboard-response","208","518215","0.0-4.0-1.0-0.27","q6tdcdvp5mq90a0","prime","5f46e4a6f5b7ba0bcc5a9d99","5f60e3c0a3b16e07647b2ff9","5f60ee6aa3526a00085ce025","false","null","<span style=""color: black; font-size: 48px"">N + M</span>","null","","","","resp_prompt","","","","","","","","","","","","","","","",""
"categorize-image","209","519076","0.0-4.0-1.0-1.27","q6tdcdvp5mq90a0","prime","5f46e4a6f5b7ba0bcc5a9d99","5f60e3c0a3b16e07647b2ff9","5f60ee6aa3526a00085ce025","true","857.5950000085868","./Stimuli/SelectedImages/LM/LM48.bmp","76","","","","test","true","N + M","76","switch","LM","LM48.bmp","forget","","76","3","prime1","right","","","",""
"html-keyboard-response","210","521082","0.0-4.0-1.0-3.27","q6tdcdvp5mq90a0","prime","5f46e4a6f5b7ba0bcc5a9d99","5f60e3c0a3b16e07647b2ff9","5f60ee6aa3526a00085ce025","false","null","<div style=""align-items: center; display: flex; color: darkorange; font-size: 90px""><b>ø</b></div>","null","","","","forget_cue","","","","","","","","","","","","","","","",""
"html-keyboard-response","211","521785","0.0-4.0-1.0-0.28","q6tdcdvp5mq90a0","prime","5f46e4a6f5b7ba0bcc5a9d99","5f60e3c0a3b16e07647b2ff9","5f60ee6aa3526a00085ce025","false","null","<span style=""color: black; font-size: 48px"">M + N</span>","null","","","","resp_prompt","","","","","","","","","","","","","","","",""
"categorize-image","212","522301","0.0-4.0-1.0-1.28","q6tdcdvp5mq90a0","prime","5f46e4a6f5b7ba0bcc5a9d99","5f60e3c0a3b16e07647b2ff9","5f60ee6aa3526a00085ce025","true","511.23000000370666","./Stimuli/SelectedImages/SM/SM73.bmp","83","","","","test","true","M + N","83","switch","SM","SM73.bmp","remember","","77","3","prime1","left","","","",""
"html-keyboard-response","213","524306","0.0-4.0-1.0-3.28","q6tdcdvp5mq90a0","prime","5f46e4a6f5b7ba0bcc5a9d99","5f60e3c0a3b16e07647b2ff9","5f60ee6aa3526a00085ce025","false","null","<div style=""align-items: center; display: flex; color: dodgerblue; font-size: 90px""><b>o</b></div>","null","","","","forget_cue","","","","","","","","","","","","","","","",""
"html-keyboard-response","214","525008","0.0-4.0-1.0-0.29","q6tdcdvp5mq90a0","prime","5f46e4a6f5b7ba0bcc5a9d99","5f60e3c0a3b16e07647b2ff9","5f60ee6aa3526a00085ce025","false","null","<span style=""color: black; font-size: 48px"">N + M</span>","null","","","","resp_prompt","","","","","","","","","","","","","","","",""
"categorize-image","215","525506","0.0-4.0-1.0-1.29","q6tdcdvp5mq90a0","prime","5f46e4a6f5b7ba0bcc5a9d99","5f60e3c0a3b16e07647b2ff9","5f60ee6aa3526a00085ce025","true","495.0400000088848","./Stimuli/SelectedImages/LM/LM57.bmp","76","","","","test","true","N + M","76","switch","LM","LM57.bmp","remember","","78","3","prime1","right","","","",""
"html-keyboard-response","216","527511","0.0-4.0-1.0-3.29","q6tdcdvp5mq90a0","prime","5f46e4a6f5b7ba0bcc5a9d99","5f60e3c0a3b16e07647b2ff9","5f60ee6aa3526a00085ce025","false","null","<div style=""align-items: center; display: flex; color: dodgerblue; font-size: 90px""><b>o</b></div>","null","","","","forget_cue","","","","","","","","","","","","","","","",""
"html-keyboard-response","217","528214","0.0-4.0-1.0-0.30","q6tdcdvp5mq90a0","prime","5f46e4a6f5b7ba0bcc5a9d99","5f60e3c0a3b16e07647b2ff9","5f60ee6aa3526a00085ce025","false","null","<span style=""color: black; font-size: 48px"">M + N</span>","null","","","","resp_prompt","","","","","","","","","","","","","","","",""
"categorize-image","218","529392","0.0-4.0-1.0-1.30","q6tdcdvp5mq90a0","prime","5f46e4a6f5b7ba0bcc5a9d99","5f60e3c0a3b16e07647b2ff9","5f60ee6aa3526a00085ce025","true","1172.5500000175089","./Stimuli/SelectedImages/SN/SN60.bmp","76","","","","test","true","M + N","76","switch","SN","SN60.bmp","remember","","79","3","prime1","right","","","",""
"html-keyboard-response","219","531396","0.0-4.0-1.0-3.30","q6tdcdvp5mq90a0","prime","5f46e4a6f5b7ba0bcc5a9d99","5f60e3c0a3b16e07647b2ff9","5f60ee6aa3526a00085ce025","false","null","<div style=""align-items: center; display: flex; color: dodgerblue; font-size: 90px""><b>o</b></div>","null","","","","forget_cue","","","","","","","","","","","","","","","",""
"html-keyboard-response","220","532101","0.0-4.0-1.0-0.31","q6tdcdvp5mq90a0","prime","5f46e4a6f5b7ba0bcc5a9d99","5f60e3c0a3b16e07647b2ff9","5f60ee6aa3526a00085ce025","false","null","<span style=""color: black; font-size: 48px"">N + M</span>","null","","","","resp_prompt","","","","","","","","","","","","","","","",""
"categorize-image","221","532694","0.0-4.0-1.0-1.31","q6tdcdvp5mq90a0","prime","5f46e4a6f5b7ba0bcc5a9d99","5f60e3c0a3b16e07647b2ff9","5f60ee6aa3526a00085ce025","true","591.3150000269525","./Stimuli/SelectedImages/LN/LN9.bmp","83","","","","test","true","N + M","83","repetition","LN","LN9.bmp","forget","","80","3","prime1","left","","","",""
"html-keyboard-response","222","534696","0.0-4.0-1.0-3.31","q6tdcdvp5mq90a0","prime","5f46e4a6f5b7ba0bcc5a9d99","5f60e3c0a3b16e07647b2ff9","5f60ee6aa3526a00085ce025","false","null","<div style=""align-items: center; display: flex; color: darkorange; font-size: 90px""><b>ø</b></div>","null","","","","forget_cue","","","","","","","","","","","","","","","",""
"html-keyboard-response","223","535401","0.0-4.0-1.0-0.32","q6tdcdvp5mq90a0","prime","5f46e4a6f5b7ba0bcc5a9d99","5f60e3c0a3b16e07647b2ff9","5f60ee6aa3526a00085ce025","false","null","<span style=""color: black; font-size: 48px"">M + N</span>","null","","","","resp_prompt","","","","","","","","","","","","","","","",""
"categorize-image","224","536225","0.0-4.0-1.0-1.32","q6tdcdvp5mq90a0","prime","5f46e4a6f5b7ba0bcc5a9d99","5f60e3c0a3b16e07647b2ff9","5f60ee6aa3526a00085ce025","true","820.2750000054948","./Stimuli/SelectedImages/LN/LN101.bmp","76","","","","test","true","M + N","76","switch","LN","LN101.bmp","remember","","81","3","prime1","right","","","",""
"html-keyboard-response","225","538228","0.0-4.0-1.0-3.32","q6tdcdvp5mq90a0","prime","5f46e4a6f5b7ba0bcc5a9d99","5f60e3c0a3b16e07647b2ff9","5f60ee6aa3526a00085ce025","false","null","<div style=""align-items: center; display: flex; color: dodgerblue; font-size: 90px""><b>o</b></div>","null","","","","forget_cue","","","","","","","","","","","","","","","",""
"html-keyboard-response","226","538933","0.0-4.0-1.0-0.33","q6tdcdvp5mq90a0","prime","5f46e4a6f5b7ba0bcc5a9d99","5f60e3c0a3b16e07647b2ff9","5f60ee6aa3526a00085ce025","false","null","<span style=""color: black; font-size: 48px"">M + N</span>","null","","","","resp_prompt","","","","","","","","","","","","","","","",""
"categorize-image","227","540019","0.0-4.0-1.0-1.33","q6tdcdvp5mq90a0","prime","5f46e4a6f5b7ba0bcc5a9d99","5f60e3c0a3b16e07647b2ff9","5f60ee6aa3526a00085ce025","true","1083.8649999932386","./Stimuli/SelectedImages/LN/LN149.bmp","76","","","","test","true","M + N","76","switch","LN","LN149.bmp","forget","","82","3","prime1","right","","","",""
"html-keyboard-response","228","542024","0.0-4.0-1.0-3.33","q6tdcdvp5mq90a0","prime","5f46e4a6f5b7ba0bcc5a9d99","5f60e3c0a3b16e07647b2ff9","5f60ee6aa3526a00085ce025","false","null","<div style=""align-items: center; display: flex; color: darkorange; font-size: 90px""><b>ø</b></div>","null","","","","forget_cue","","","","","","","","","","","","","","","",""
"html-keyboard-response","229","542725","0.0-4.0-1.0-0.34","q6tdcdvp5mq90a0","prime","5f46e4a6f5b7ba0bcc5a9d99","5f60e3c0a3b16e07647b2ff9","5f60ee6aa3526a00085ce025","false","null","<span style=""color: black; font-size: 48px"">N + M</span>","null","","","","resp_prompt","","","","","","","","","","","","","","","",""
"categorize-image","230","543219","0.0-4.0-1.0-1.34","q6tdcdvp5mq90a0","prime","5f46e4a6f5b7ba0bcc5a9d99","5f60e3c0a3b16e07647b2ff9","5f60ee6aa3526a00085ce025","true","489.0649999724701","./Stimuli/SelectedImages/LM/LM150.bmp","76","","","","test","true","N + M","76","repetition","LM","LM150.bmp","remember","","83","3","prime1","right","","","",""
"html-keyboard-response","231","545224","0.0-4.0-1.0-3.34","q6tdcdvp5mq90a0","prime","5f46e4a6f5b7ba0bcc5a9d99","5f60e3c0a3b16e07647b2ff9","5f60ee6aa3526a00085ce025","false","null","<div style=""align-items: center; display: flex; color: dodgerblue; font-size: 90px""><b>o</b></div>","null","","","","forget_cue","","","","","","","","","","","","","","","",""
"html-keyboard-response","232","545929","0.0-4.0-1.0-0.35","q6tdcdvp5mq90a0","prime","5f46e4a6f5b7ba0bcc5a9d99","5f60e3c0a3b16e07647b2ff9","5f60ee6aa3526a00085ce025","false","null","<span style=""color: black; font-size: 48px"">N + M</span>","null","","","","resp_prompt","","","","","","","","","","","","","","","",""
"categorize-image","233","546823","0.0-4.0-1.0-1.35","q6tdcdvp5mq90a0","prime","5f46e4a6f5b7ba0bcc5a9d99","5f60e3c0a3b16e07647b2ff9","5f60ee6aa3526a00085ce025","true","890.3249999857508","./Stimuli/SelectedImages/LN/LN150.bmp","83","","","","test","true","N + M","83","switch","LN","LN150.bmp","forget","","84","3","prime1","left","","","",""
"html-keyboard-response","234","548827","0.0-4.0-1.0-3.35","q6tdcdvp5mq90a0","prime","5f46e4a6f5b7ba0bcc5a9d99","5f60e3c0a3b16e07647b2ff9","5f60ee6aa3526a00085ce025","false","null","<div style=""align-items: center; display: flex; color: darkorange; font-size: 90px""><b>ø</b></div>","null","","","","forget_cue","","","","","","","","","","","","","","","",""
"html-keyboard-response","235","549534","0.0-4.0-1.0-0.36","q6tdcdvp5mq90a0","prime","5f46e4a6f5b7ba0bcc5a9d99","5f60e3c0a3b16e07647b2ff9","5f60ee6aa3526a00085ce025","false","null","<span style=""color: black; font-size: 48px"">N + M</span>","null","","","","resp_prompt","","","","","","","","","","","","","","","",""
"categorize-image","236","550517","0.0-4.0-1.0-1.36","q6tdcdvp5mq90a0","prime","5f46e4a6f5b7ba0bcc5a9d99","5f60e3c0a3b16e07647b2ff9","5f60ee6aa3526a00085ce025","true","978.739999991376","./Stimuli/SelectedImages/LN/LN82.bmp","83","","","","test","true","N + M","83","repetition","LN","LN82.bmp","remember","","85","3","prime1","left","","","",""
"html-keyboard-response","237","552520","0.0-4.0-1.0-3.36","q6tdcdvp5mq90a0","prime","5f46e4a6f5b7ba0bcc5a9d99","5f60e3c0a3b16e07647b2ff9","5f60ee6aa3526a00085ce025","false","null","<div style=""align-items: center; display: flex; color: dodgerblue; font-size: 90px""><b>o</b></div>","null","","","","forget_cue","","","","","","","","","","","","","","","",""
"html-keyboard-response","238","553225","0.0-4.0-1.0-0.37","q6tdcdvp5mq90a0","prime","5f46e4a6f5b7ba0bcc5a9d99","5f60e3c0a3b16e07647b2ff9","5f60ee6aa3526a00085ce025","false","null","<span style=""color: black; font-size: 48px"">N + M</span>","null","","","","resp_prompt","","","","","","","","","","","","","","","",""
"categorize-image","239","554066","0.0-4.0-1.0-1.37","q6tdcdvp5mq90a0","prime","5f46e4a6f5b7ba0bcc5a9d99","5f60e3c0a3b16e07647b2ff9","5f60ee6aa3526a00085ce025","true","837.9249999998137","./Stimuli/SelectedImages/SN/SN128.bmp","76","","","","test","false","N + M","83","repetition","SN","SN128.bmp","forget","","86","3","prime1","right","","","",""
"html-keyboard-response","240","554573","0.0-4.0-1.0-2.37-0.37","q6tdcdvp5mq90a0","prime","5f46e4a6f5b7ba0bcc5a9d99","5f60e3c0a3b16e07647b2ff9","5f60ee6aa3526a00085ce025","false","null","<span style=""color: red; font-size: 48px"">Error!</span>","null","","","","feedback","","","","","","","","","","","","","","","",""
"html-keyboard-response","241","556578","0.0-4.0-1.0-3.37","q6tdcdvp5mq90a0","prime","5f46e4a6f5b7ba0bcc5a9d99","5f60e3c0a3b16e07647b2ff9","5f60ee6aa3526a00085ce025","false","null","<div style=""align-items: center; display: flex; color: darkorange; font-size: 90px""><b>ø</b></div>","null","","","","forget_cue","","","","","","","","","","","","","","","",""
"html-keyboard-response","242","557283","0.0-4.0-1.0-0.38","q6tdcdvp5mq90a0","prime","5f46e4a6f5b7ba0bcc5a9d99","5f60e3c0a3b16e07647b2ff9","5f60ee6aa3526a00085ce025","false","null","<span style=""color: black; font-size: 48px"">M + N</span>","null","","","","resp_prompt","","","","","","","","","","","","","","","",""
"categorize-image","243","557889","0.0-4.0-1.0-1.38","q6tdcdvp5mq90a0","prime","5f46e4a6f5b7ba0bcc5a9d99","5f60e3c0a3b16e07647b2ff9","5f60ee6aa3526a00085ce025","true","602.1100000361912","./Stimuli/SelectedImages/SM/SM106.bmp","83","","","","test","true","M + N","83","switch","SM","SM106.bmp","forget","","87","3","prime1","left","","","",""
"html-keyboard-response","244","559893","0.0-4.0-1.0-3.38","q6tdcdvp5mq90a0","prime","5f46e4a6f5b7ba0bcc5a9d99","5f60e3c0a3b16e07647b2ff9","5f60ee6aa3526a00085ce025","false","null","<div style=""align-items: center; display: flex; color: darkorange; font-size: 90px""><b>ø</b></div>","null","","","","forget_cue","","","","","","","","","","","","","","","",""
"html-keyboard-response","245","560596","0.0-4.0-1.0-0.39","q6tdcdvp5mq90a0","prime","5f46e4a6f5b7ba0bcc5a9d99","5f60e3c0a3b16e07647b2ff9","5f60ee6aa3526a00085ce025","false","null","<span style=""color: black; font-size: 48px"">M + N</span>","null","","","","resp_prompt","","","","","","","","","","","","","","","",""
"categorize-image","246","561172","0.0-4.0-1.0-1.39","q6tdcdvp5mq90a0","prime","5f46e4a6f5b7ba0bcc5a9d99","5f60e3c0a3b16e07647b2ff9","5f60ee6aa3526a00085ce025","true","572.089999972377","./Stimuli/SelectedImages/SN/SN49.bmp","76","","","","test","true","M + N","76","switch","SN","SN49.bmp","forget","","88","3","prime1","right","","","",""
"html-keyboard-response","247","563174","0.0-4.0-1.0-3.39","q6tdcdvp5mq90a0","prime","5f46e4a6f5b7ba0bcc5a9d99","5f60e3c0a3b16e07647b2ff9","5f60ee6aa3526a00085ce025","false","null","<div style=""align-items: center; display: flex; color: darkorange; font-size: 90px""><b>ø</b></div>","null","","","","forget_cue","","","","","","","","","","","","","","","",""
"html-keyboard-response","248","563879","0.0-4.0-1.0-0.40","q6tdcdvp5mq90a0","prime","5f46e4a6f5b7ba0bcc5a9d99","5f60e3c0a3b16e07647b2ff9","5f60ee6aa3526a00085ce025","false","null","<span style=""color: black; font-size: 48px"">M + N</span>","null","","","","resp_prompt","","","","","","","","","","","","","","","",""
"categorize-image","249","564354","0.0-4.0-1.0-1.40","q6tdcdvp5mq90a0","prime","5f46e4a6f5b7ba0bcc5a9d99","5f60e3c0a3b16e07647b2ff9","5f60ee6aa3526a00085ce025","true","471.1700000334531","./Stimuli/SelectedImages/SM/SM78.bmp","83","","","","test","true","M + N","83","repetition","SM","SM78.bmp","remember","","89","3","prime1","left","","","",""
"html-keyboard-response","250","566357","0.0-4.0-1.0-3.40","q6tdcdvp5mq90a0","prime","5f46e4a6f5b7ba0bcc5a9d99","5f60e3c0a3b16e07647b2ff9","5f60ee6aa3526a00085ce025","false","null","<div style=""align-items: center; display: flex; color: dodgerblue; font-size: 90px""><b>o</b></div>","null","","","","forget_cue","","","","","","","","","","","","","","","",""
"html-keyboard-response","251","567063","0.0-4.0-1.0-0.41","q6tdcdvp5mq90a0","prime","5f46e4a6f5b7ba0bcc5a9d99","5f60e3c0a3b16e07647b2ff9","5f60ee6aa3526a00085ce025","false","null","<span style=""color: black; font-size: 48px"">M + N</span>","null","","","","resp_prompt","","","","","","","","","","","","","","","",""
"categorize-image","252","567592","0.0-4.0-1.0-1.41","q6tdcdvp5mq90a0","prime","5f46e4a6f5b7ba0bcc5a9d99","5f60e3c0a3b16e07647b2ff9","5f60ee6aa3526a00085ce025","true","525.3050000173971","./Stimuli/SelectedImages/SN/SN240.bmp","76","","","","test","true","M + N","76","switch","SN","SN240.bmp","forget","","90","3","prime1","right","","","",""
"html-keyboard-response","253","569594","0.0-4.0-1.0-3.41","q6tdcdvp5mq90a0","prime","5f46e4a6f5b7ba0bcc5a9d99","5f60e3c0a3b16e07647b2ff9","5f60ee6aa3526a00085ce025","false","null","<div style=""align-items: center; display: flex; color: darkorange; font-size: 90px""><b>ø</b></div>","null","","","","forget_cue","","","","","","","","","","","","","","","",""
