"trial_type","trial_index","time_elapsed","internal_node_id","subject","exp_part","prolific_PID","study_ID","session_ID","use","rt","stimulus","key_press","button_pressed","responses","question_order","trial_part","correct","resp_map","correct_resp","probe_condition","category","image","forget_condition","list","trial_num","block_num","block","response","test_part","n_span","sequence","num_spaces"
"pavlovia","0","17","0.0-0.0","3hdlgfpgkxrt1gb","","5f5cd3d605e4674df915ef5e","5f60e3c0a3b16e07647b2ff9","5f648be155127e00087ff78a","false","","","","","","","","","","","","","","","","","","","","","","",""
"html-keyboard-response","1","18580","0.0-1.0-0.0-0.0","3hdlgfpgkxrt1gb","welcome","5f5cd3d605e4674df915ef5e","5f60e3c0a3b16e07647b2ff9","5f648be155127e00087ff78a","false","18548.000000002503","<div align=left>Dear participant, <br> thank you for participating in an online study of the Cognition, Action, and Sustainability Unit of the University of Freiburg! <br> <br>The aim of this study is to examine our ability to remember previously learned information. <br>Our goal is to find out, whether our memory improves, when we only remember information that is relevant to us. <br>The experiment will take about 35 minutes to complete. <br> <br>Please, note that you can only participate in this study if you are using a device with a keyboard (PC, Laptop etc.) <br>and not if you are using a mobile device such as a tablet or smartphone.<br> <br>Press 'SPACE' to proceed to the experiment. </div>","32","","","","","","","","","","","","","","","","","","","",""
"html-keyboard-response","2","44855","0.0-1.0-0.0-1.0","3hdlgfpgkxrt1gb","welcome","5f5cd3d605e4674df915ef5e","5f60e3c0a3b16e07647b2ff9","5f648be155127e00087ff78a","false","26269.9999999968","<div align=left><strong> Time Course of this experiment: </strong> <br><br> <strong> 1.</strong>  First, please fill in some information regarding your demographic data. <br><br> <strong> 2.</strong>  Next, your task will be to classify everyday objects. <br>In addition, you will be asked to remember certain objects and recall them later. <br>Working on these tasks requires your undivided attention and concentration.<br>It is therefore essential that you eliminate any sources of distraction in your  <br>environment and ensure that you will not be disturbed. <br><br><strong> 3.</strong>  At the end of the experiment, you will be asked to answer a few additional questions. <br> <br><strong> Important:</strong> After finishing the experiment, only close the browser window <br> by clicking on the 'end the experiment'-button when you are asked to do so. <br>Closing the browser window prematurely will make the allocation of your participation credit impossible. <br><br> Press 'SPACE' to start the experiment. </div>","32","","","","","","","","","","","","","","","","","","","",""
"html-button-response","3","50094","0.0-1.0-0.0-2.0","3hdlgfpgkxrt1gb","welcome","5f5cd3d605e4674df915ef5e","5f60e3c0a3b16e07647b2ff9","5f648be155127e00087ff78a","true","5233.000000000175","<div align=left><strong> Informed consent </strong>  <br>The aim of our research is to better understand human behavior and mental processes. <br>In the following study your behavior (e.g. choices, reaction times) will be studied. <br> <br><strong> Voluntariness and Anonymity </strong> <br>Your participation in this study is  <strong> voluntary</strong>.<br>You may withdraw your consent to participate at any time without providing a reason for doing so and without fear of prejudice. <br><br>As no personal data will be collected, <strong>your data and your person cannot be connected after data collection</strong> – the data-set is anonymous. <br>Respectively, deletion of your data will not be possible after data collection has been completed, as we cannot retrace your data-set.<br>The results and anonymized data collected in this study will be published as a scientific publication. <br>This will happen in an <strong>anonymized format</strong>, so that no data can be traced back to a specific person. <br> <br>The anonymized data of this study will be made available to other researchers and/or in a data archive on the Internet as a means of transparency and to enable subsequent re-use. By doing so, this study follows the recommendations of the Deutsche Forschungsgemeinschaft (DFG, German Research Foundation) and Deutsche Gesellschaft für Psychologie (DGPS, German Psychological Society) regarding quality assurance in research.<br>If you have any questions now or after the experiment, please contact our team (experiments@cs.uni-freiburg.de).<br><br><br>I hereby declare, that I understand the above described conditions of participation and I agree to participate under these conditions. <br><br> </div>","","0","","","","","","","","","","","","","","","","","","",""
"html-keyboard-response","4","71008","0.0-1.0-0.0-3.0","3hdlgfpgkxrt1gb","welcome","5f5cd3d605e4674df915ef5e","5f60e3c0a3b16e07647b2ff9","5f648be155127e00087ff78a","false","20908.000000003085","<div align=left><strong> General information concerning the experiment </strong>  <br> <br>Please follow the instructions:<ol> <li><strong> Do not leave this tab (your browser window) during the experiment and do not reload this tab! </strong>  <br>If you do switch tabs/windows during the experiment (to check your mail or visit another website, for example), <br>the experiment will end automatically and you will <strong>not receive credit</strong> for your participation. <br>Repeated participation or resumption of the experiment is impossible.</li> <br><li>Please close all other programs for the duration of your participation. </li> <br><li>Please mute or turn off your phone and put it out of your reach. </li> <br><li>Please also take off any disturbing accessories (such as wristwatches, bracelets, etc.). </li> <br><li>If you have music playing in the background, please turn it off now. </li> <br></ol>Thank you! <br>Press 'SPACE' to continue. </div>","32","","","","","","","","","","","","","","","","","","","",""
"survey-text","5","112896","0.0-1.0-1.0-0.0","3hdlgfpgkxrt1gb","demographics","5f5cd3d605e4674df915ef5e","5f60e3c0a3b16e07647b2ff9","5f648be155127e00087ff78a","true","41864.0000000014","","","","{""age"":""28""}","","","","","","","","","","","","","","","","","",""
"survey-multi-choice","6","148100","0.0-1.0-1.0-1.0","3hdlgfpgkxrt1gb","demographics","5f5cd3d605e4674df915ef5e","5f60e3c0a3b16e07647b2ff9","5f648be155127e00087ff78a","true","35194.99999999971","","","","{""gender"":""female"",""school"":""others"",""education"":""Completed university degree or equivalent""}","[0,1,2]","","","","","","","","","","","","","","","","",""
"html-keyboard-response","7","198246","0.0-1.0-2.0","3hdlgfpgkxrt1gb","instructions","5f5cd3d605e4674df915ef5e","5f60e3c0a3b16e07647b2ff9","5f648be155127e00087ff78a","false","50139.99999999942","<div align=left> The experiment is now about to start: <br> <br>In the following part, you will be presented pictures of everyday objects. <br>Your first task is to <strong>classify these objects. </strong> <br> <br> You will classify them either as mechanical or non-mechanical objects. <br> <br>Objects that include any kind of technical mechanism (for example, wheels, switches, levers, <br> electronic components) fall under the category of <strong>mechanical</strong> objects. <br>Only objects without any kind of technical mechanism should be classified as <strong>non-mechanical</strong>. <br><br>Press 'SPACE' to continue. </div>","32","","","","","","","","","","","","","","","","","","","",""
"html-keyboard-response","8","332132","0.0-2.0-0.0","3hdlgfpgkxrt1gb","instructions","5f5cd3d605e4674df915ef5e","5f60e3c0a3b16e07647b2ff9","5f648be155127e00087ff78a","false","133881.9999999978","<div align=justify>You will classify the objects using the <strong>'S'</strong> and the <strong>'L'</strong> keys on your keyboard.<br>For doing so, please place your <strong>left index finger</strong> on the <strong>'S'</strong> key and place your <strong>right index finger</strong> on the <strong>'L'</strong> key. <br><br> Each trial starts with an instruction, indicating which key ('S'/'L') you need to press to classify <br>the object as mechanical (letter M) or non-mechanical (letter N).<br>The instruction <strong>M + N</strong> indicates that, in the current trial, by pressing the left key ('S') you classify the displayed object as mechanical (M) <br> and by pressing the right key ('L') you classify the object as non-mechanical (N). <br>The instruction <strong>N + M</strong> on the other hand indicates that by pressing the left key ('S') you classify the displayed object as non-mechanical (N) <br> and by pressing the right key ('L') you classify the object as mechanical (M). <br><br>Please press the key corresponding to the correct classification as fast as possible as soon as the object is displayed and try to avoid making mistakes.<br>If you do not respond within a 2 second window, a corresponding feedback will be displayed and the next trial will start.<br> The experiment is divided into multiple blocks to give you the opportunity to take a break after each block. <br>First, you can now practice this task. <br><br>Please place your <strong>LEFT INDEX FINGER</strong> on the 'S' key and your <strong>RIGHT INDEX FINGER</strong> on the 'L' key now. <br><br>Press SPACE to continue.</div>","32","","","","","","","","","","","","","","","","","","","",""
"html-keyboard-response","9","353223","0.0-2.0-1.0","3hdlgfpgkxrt1gb","instructions","5f5cd3d605e4674df915ef5e","5f60e3c0a3b16e07647b2ff9","5f648be155127e00087ff78a","false","21086.999999999534","<div align=left> You will now have time to practice this task.<br><br>Remember: <br> <br><li>Please place your index fingers on the <strong>'S'</strong> and <strong>'L'</strong> keys <br>to respond as fast and accurately as possible.</li><li>Every picture can be classified as either mechanical or non-mechanical.</li><li>If you do not respond in time or commit an error, you will receive a corresponding feedback. </li><li> Please try to respond as <strong> fast </strong> and as <strong> accurately as possible </strong> .<br><li>To ensure optimal results, please minimize distractions and stay focused. </li><br><br>Press SPACE to continue.</div>","32","","","","","","","","","","","","","","","","","","","",""
"html-keyboard-response","10","353929","0.0-2.0-2.0-0.0","3hdlgfpgkxrt1gb","practice_no_cue","5f5cd3d605e4674df915ef5e","5f60e3c0a3b16e07647b2ff9","5f648be155127e00087ff78a","false","null","<span style=""color: black; font-size: 48px"">N + M</span>","null","","","","resp_prompt","","","","","","","","","","","","","","","",""
"categorize-image","11","356437","0.0-2.0-2.0-1.0","3hdlgfpgkxrt1gb","practice_no_cue","5f5cd3d605e4674df915ef5e","5f60e3c0a3b16e07647b2ff9","5f648be155127e00087ff78a","true","null","./Stimuli/ImagesPractice/SM98.jpg","null","","","","test","false","N + M","76","","SM","SM98.jpg","forget","old","1","1","start","too_slow","","","",""
"html-keyboard-response","12","357140","0.0-2.0-2.0-0.1","3hdlgfpgkxrt1gb","practice_no_cue","5f5cd3d605e4674df915ef5e","5f60e3c0a3b16e07647b2ff9","5f648be155127e00087ff78a","false","null","<span style=""color: black; font-size: 48px"">N + M</span>","null","","","","resp_prompt","","","","","","","","","","","","","","","",""
"categorize-image","13","358477","0.0-2.0-2.0-1.1","3hdlgfpgkxrt1gb","practice_no_cue","5f5cd3d605e4674df915ef5e","5f60e3c0a3b16e07647b2ff9","5f648be155127e00087ff78a","true","832.9999999987194","./Stimuli/ImagesPractice/LM55.jpg","83","","","","test","false","N + M","76","","LM","LM55.jpg","forget","old","2","1","start","left","","","",""
"html-keyboard-response","14","359188","0.0-2.0-2.0-0.2","3hdlgfpgkxrt1gb","practice_no_cue","5f5cd3d605e4674df915ef5e","5f60e3c0a3b16e07647b2ff9","5f648be155127e00087ff78a","false","null","<span style=""color: black; font-size: 48px"">M + N</span>","null","","","","resp_prompt","","","","","","","","","","","","","","","",""
"categorize-image","15","360589","0.0-2.0-2.0-1.2","3hdlgfpgkxrt1gb","practice_no_cue","5f5cd3d605e4674df915ef5e","5f60e3c0a3b16e07647b2ff9","5f648be155127e00087ff78a","true","855.9999999997672","./Stimuli/ImagesPractice/LM147.jpg","83","","","","test","true","M + N","83","","LM","LM147.jpg","remember","old","3","1","start","left","","","",""
"html-keyboard-response","16","361290","0.0-2.0-2.0-0.3","3hdlgfpgkxrt1gb","practice_no_cue","5f5cd3d605e4674df915ef5e","5f60e3c0a3b16e07647b2ff9","5f648be155127e00087ff78a","false","null","<span style=""color: black; font-size: 48px"">N + M</span>","null","","","","resp_prompt","","","","","","","","","","","","","","","",""
"categorize-image","17","362733","0.0-2.0-2.0-1.3","3hdlgfpgkxrt1gb","practice_no_cue","5f5cd3d605e4674df915ef5e","5f60e3c0a3b16e07647b2ff9","5f648be155127e00087ff78a","true","938.0000000019209","./Stimuli/ImagesPractice/LN72.jpg","83","","","","test","true","N + M","83","","LN","LN72.jpg","remember","old","4","1","start","left","","","",""
"html-keyboard-response","18","363435","0.0-2.0-2.0-0.4","3hdlgfpgkxrt1gb","practice_no_cue","5f5cd3d605e4674df915ef5e","5f60e3c0a3b16e07647b2ff9","5f648be155127e00087ff78a","false","null","<span style=""color: black; font-size: 48px"">M + N</span>","null","","","","resp_prompt","","","","","","","","","","","","","","","",""
"categorize-image","19","364840","0.0-2.0-2.0-1.4","3hdlgfpgkxrt1gb","practice_no_cue","5f5cd3d605e4674df915ef5e","5f60e3c0a3b16e07647b2ff9","5f648be155127e00087ff78a","true","902.0000000018626","./Stimuli/ImagesPractice/LM224.jpg","76","","","","test","false","M + N","83","","LM","LM224.jpg","remember","old","5","1","start","right","","","",""
"html-keyboard-response","20","365541","0.0-2.0-2.0-0.5","3hdlgfpgkxrt1gb","practice_no_cue","5f5cd3d605e4674df915ef5e","5f60e3c0a3b16e07647b2ff9","5f648be155127e00087ff78a","false","null","<span style=""color: black; font-size: 48px"">M + N</span>","null","","","","resp_prompt","","","","","","","","","","","","","","","",""
"categorize-image","21","366684","0.0-2.0-2.0-1.5","3hdlgfpgkxrt1gb","practice_no_cue","5f5cd3d605e4674df915ef5e","5f60e3c0a3b16e07647b2ff9","5f648be155127e00087ff78a","true","639.9999999994179","./Stimuli/ImagesPractice/LM143.jpg","83","","","","test","true","M + N","83","","LM","LM143.jpg","forget","old","6","1","start","left","","","",""
"html-keyboard-response","22","367385","0.0-2.0-2.0-0.6","3hdlgfpgkxrt1gb","practice_no_cue","5f5cd3d605e4674df915ef5e","5f60e3c0a3b16e07647b2ff9","5f648be155127e00087ff78a","false","null","<span style=""color: black; font-size: 48px"">N + M</span>","null","","","","resp_prompt","","","","","","","","","","","","","","","",""
"categorize-image","23","368477","0.0-2.0-2.0-1.6","3hdlgfpgkxrt1gb","practice_no_cue","5f5cd3d605e4674df915ef5e","5f60e3c0a3b16e07647b2ff9","5f648be155127e00087ff78a","true","588.9999999999418","./Stimuli/ImagesPractice/LN15.jpg","76","","","","test","false","N + M","83","","LN","LN15.jpg","remember","old","7","1","start","right","","","",""
"html-keyboard-response","24","369187","0.0-2.0-2.0-0.7","3hdlgfpgkxrt1gb","practice_no_cue","5f5cd3d605e4674df915ef5e","5f60e3c0a3b16e07647b2ff9","5f648be155127e00087ff78a","false","null","<span style=""color: black; font-size: 48px"">N + M</span>","null","","","","resp_prompt","","","","","","","","","","","","","","","",""
"categorize-image","25","370116","0.0-2.0-2.0-1.7","3hdlgfpgkxrt1gb","practice_no_cue","5f5cd3d605e4674df915ef5e","5f60e3c0a3b16e07647b2ff9","5f648be155127e00087ff78a","true","425.99999999947613","./Stimuli/ImagesPractice/SM62.jpg","76","","","","test","true","N + M","76","","SM","SM62.jpg","forget","old","8","1","start","right","","","",""
"html-keyboard-response","26","370824","0.0-2.0-2.0-0.8","3hdlgfpgkxrt1gb","practice_no_cue","5f5cd3d605e4674df915ef5e","5f60e3c0a3b16e07647b2ff9","5f648be155127e00087ff78a","false","null","<span style=""color: black; font-size: 48px"">N + M</span>","null","","","","resp_prompt","","","","","","","","","","","","","","","",""
"categorize-image","27","371961","0.0-2.0-2.0-1.8","3hdlgfpgkxrt1gb","practice_no_cue","5f5cd3d605e4674df915ef5e","5f60e3c0a3b16e07647b2ff9","5f648be155127e00087ff78a","true","634.0000000054715","./Stimuli/ImagesPractice/LM230.jpg","83","","","","test","false","N + M","76","","LM","LM230.jpg","forget","old","9","1","start","left","","","",""
"html-keyboard-response","28","372662","0.0-2.0-2.0-0.9","3hdlgfpgkxrt1gb","practice_no_cue","5f5cd3d605e4674df915ef5e","5f60e3c0a3b16e07647b2ff9","5f648be155127e00087ff78a","false","null","<span style=""color: black; font-size: 48px"">M + N</span>","null","","","","resp_prompt","","","","","","","","","","","","","","","",""
"categorize-image","29","373594","0.0-2.0-2.0-1.9","3hdlgfpgkxrt1gb","practice_no_cue","5f5cd3d605e4674df915ef5e","5f60e3c0a3b16e07647b2ff9","5f648be155127e00087ff78a","true","428.99999999644933","./Stimuli/ImagesPractice/SN221.jpg","83","","","","test","false","M + N","76","","SN","SN221.jpg","remember","old","10","1","start","left","","","",""
"html-keyboard-response","30","374295","0.0-2.0-2.0-0.10","3hdlgfpgkxrt1gb","practice_no_cue","5f5cd3d605e4674df915ef5e","5f60e3c0a3b16e07647b2ff9","5f648be155127e00087ff78a","false","null","<span style=""color: black; font-size: 48px"">N + M</span>","null","","","","resp_prompt","","","","","","","","","","","","","","","",""
"categorize-image","31","375188","0.0-2.0-2.0-1.10","3hdlgfpgkxrt1gb","practice_no_cue","5f5cd3d605e4674df915ef5e","5f60e3c0a3b16e07647b2ff9","5f648be155127e00087ff78a","true","389.9999999994179","./Stimuli/ImagesPractice/LN17.jpg","76","","","","test","false","N + M","83","","LN","LN17.jpg","remember","old","11","1","start","right","","","",""
"html-keyboard-response","32","375889","0.0-2.0-2.0-0.11","3hdlgfpgkxrt1gb","practice_no_cue","5f5cd3d605e4674df915ef5e","5f60e3c0a3b16e07647b2ff9","5f648be155127e00087ff78a","false","null","<span style=""color: black; font-size: 48px"">M + N</span>","null","","","","resp_prompt","","","","","","","","","","","","","","","",""
"categorize-image","33","376967","0.0-2.0-2.0-1.11","3hdlgfpgkxrt1gb","practice_no_cue","5f5cd3d605e4674df915ef5e","5f60e3c0a3b16e07647b2ff9","5f648be155127e00087ff78a","true","576.0000000009313","./Stimuli/ImagesPractice/LN2.jpg","83","","","","test","false","M + N","76","","LN","LN2.jpg","forget","old","12","1","start","left","","","",""
"html-keyboard-response","34","377668","0.0-2.0-2.0-0.12","3hdlgfpgkxrt1gb","practice_no_cue","5f5cd3d605e4674df915ef5e","5f60e3c0a3b16e07647b2ff9","5f648be155127e00087ff78a","false","null","<span style=""color: black; font-size: 48px"">M + N</span>","null","","","","resp_prompt","","","","","","","","","","","","","","","",""
"categorize-image","35","378570","0.0-2.0-2.0-1.12","3hdlgfpgkxrt1gb","practice_no_cue","5f5cd3d605e4674df915ef5e","5f60e3c0a3b16e07647b2ff9","5f648be155127e00087ff78a","true","398.9999999976135","./Stimuli/ImagesPractice/SM35.jpg","76","","","","test","false","M + N","83","","SM","SM35.jpg","forget","old","13","1","start","right","","","",""
"html-keyboard-response","36","379271","0.0-2.0-2.0-0.13","3hdlgfpgkxrt1gb","practice_no_cue","5f5cd3d605e4674df915ef5e","5f60e3c0a3b16e07647b2ff9","5f648be155127e00087ff78a","false","null","<span style=""color: black; font-size: 48px"">M + N</span>","null","","","","resp_prompt","","","","","","","","","","","","","","","",""
"categorize-image","37","380470","0.0-2.0-2.0-1.13","3hdlgfpgkxrt1gb","practice_no_cue","5f5cd3d605e4674df915ef5e","5f60e3c0a3b16e07647b2ff9","5f648be155127e00087ff78a","true","697.0000000001164","./Stimuli/ImagesPractice/LM239.jpg","83","","","","test","true","M + N","83","","LM","LM239.jpg","forget","old","14","1","start","left","","","",""
"html-keyboard-response","38","381171","0.0-2.0-2.0-0.14","3hdlgfpgkxrt1gb","practice_no_cue","5f5cd3d605e4674df915ef5e","5f60e3c0a3b16e07647b2ff9","5f648be155127e00087ff78a","false","null","<span style=""color: black; font-size: 48px"">M + N</span>","null","","","","resp_prompt","","","","","","","","","","","","","","","",""
"categorize-image","39","382213","0.0-2.0-2.0-1.14","3hdlgfpgkxrt1gb","practice_no_cue","5f5cd3d605e4674df915ef5e","5f60e3c0a3b16e07647b2ff9","5f648be155127e00087ff78a","true","538.0000000004657","./Stimuli/ImagesPractice/SM61.jpg","83","","","","test","true","M + N","83","","SM","SM61.jpg","remember","old","15","1","start","left","","","",""
"html-keyboard-response","40","382915","0.0-2.0-2.0-0.15","3hdlgfpgkxrt1gb","practice_no_cue","5f5cd3d605e4674df915ef5e","5f60e3c0a3b16e07647b2ff9","5f648be155127e00087ff78a","false","null","<span style=""color: black; font-size: 48px"">N + M</span>","null","","","","resp_prompt","","","","","","","","","","","","","","","",""
"categorize-image","41","384076","0.0-2.0-2.0-1.15","3hdlgfpgkxrt1gb","practice_no_cue","5f5cd3d605e4674df915ef5e","5f60e3c0a3b16e07647b2ff9","5f648be155127e00087ff78a","true","651.0000000052969","./Stimuli/ImagesPractice/SN220.jpg","83","","","","test","true","N + M","83","","SN","SN220.jpg","remember","old","16","1","start","left","","","",""
"html-keyboard-response","42","413484","0.0-2.0-3.0","3hdlgfpgkxrt1gb","break","5f5cd3d605e4674df915ef5e","5f60e3c0a3b16e07647b2ff9","5f648be155127e00087ff78a","false","29377.000000000407","<p style='font-size: 32px;'>Break</><br><br><br><br><br><p style='font-size: 24px;'>In the last block, you committed 8 errors and did not respond in time on 1 trials.
</p><p style='font-size: 24px;'>Try to respond as fast and accurately as possible in the next block as well! </p><p style='font-size: 24px;'>Press SPACE to continue.</p>","32","","","","","","","","","","","","","","","","","","","",""
"html-keyboard-response","43","424665","0.0-2.0-4.0","3hdlgfpgkxrt1gb","instructions","5f5cd3d605e4674df915ef5e","5f60e3c0a3b16e07647b2ff9","5f648be155127e00087ff78a","false","11176.999999996042","<div align=left> Great!<br><br>Are you ready to continue?<br><br>If you want to reread the instructions and redo the practice trials, <br>please press „Z“. <br><br>Press SPACE to CONTINUE with the experiment when you are ready. </div>","32","","","","","","","","","","","","","","","","","","","",""
"html-keyboard-response","44","484253","0.0-3.0-0.0","3hdlgfpgkxrt1gb","instructions","5f5cd3d605e4674df915ef5e","5f60e3c0a3b16e07647b2ff9","5f648be155127e00087ff78a","false","59580.99999999831","<div align=left>Great!<br> <strong>Attention</strong>! You will now receive a second, additional task! <br><br>To this point it was you <strong>first task</strong> to correctly <strong>classify objects</strong>. <br><br>As mentioned in the beginning, we aim to examine how well humans can remember previously learned information.<br>We would like to find out whether our memory improves if we only remember information that is relevant to us. <br><br>Therefore, your <strong>second task</strong> will be to <strong>remember</strong> the pictures you are to categorize. <br> After the learning phase, there will be a memory test phase, in which you will be asked to indicate whether you have seen a picture before or not. <br>Some, but not all pictures shown in the learning phase will appear in the memory test phase.<br>After classifying a picture, you will be told whether you should remember it for the memory test phase or not. <br>Thus, some pictures can be forgotten, whereas others have to be remembered. <br><br>Note: From now on, feedback will only be displayed if you responded incorrectly or not in time.<br><br>Press SPACE to continue.</div>","32","","","","","","","","","","","","","","","","","","","",""
"html-keyboard-response","45","509367","0.0-3.0-1.0","3hdlgfpgkxrt1gb","instructions","5f5cd3d605e4674df915ef5e","5f60e3c0a3b16e07647b2ff9","5f648be155127e00087ff78a","false","25110.999999997206","<div align=left>In the following part, you will thus have to remember only some pictures. <br>Immediately after seeing and classifying the picture, a symbol will be displayed, indicating whether you should remember or forget the previous picture. <br><br>A <span style='color: dodgerblue; font-size: 28px'>O</span> indicates REMEMBER. That means, you have to remember this picture, because it will be tested later. <br><br>A <span style='color: darkorange; font-size:28px'>Ø</span> indicates FORGET. You do not have to remember this picture. <br><br> As you will have to remember a lot of pictures, it will be hard for you to remember all of them. <br>It will put you at an advantage if you instantly forget the pictures you are not asked to remember. <br> This will make it easier for you to remember the pictures that will be tested afterwards. <br><br>Press SPACE to continue.</div>","32","","","","","","","","","","","","","","","","","","","",""
"html-keyboard-response","46","534114","0.0-3.0-2.0","3hdlgfpgkxrt1gb","instructions","5f5cd3d605e4674df915ef5e","5f60e3c0a3b16e07647b2ff9","5f648be155127e00087ff78a","false","24743.999999998836","<div align=left> Now you have the chance to practice both tasks together.<br><br>Remember: <br> <br><li>Please place your index fingers on the <strong>'S'</strong> and <strong>'L'</strong> keys <br>to respond as fast and accurately as possible.</li><li>Every picture can be classified as either mechanical or non-mechanical.</li><li>If you do not respond in time or commit an error, you will receive a corresponding feedback. <br>Please try to respond as <strong> fast </strong> and as <strong> accurately as possible </strong>.</li><li> Please remember only the to-be-remembered <span style='color: dodgerblue; font-size: 28px'>O</span> pictures. <br></li><li> Please minimize distractions and stay focused. </li><br><br>Press SPACE to START</div>","32","","","","","","","","","","","","","","","","","","","",""
"html-keyboard-response","47","534816","0.0-3.0-3.0-0.0","3hdlgfpgkxrt1gb","practice_cue","5f5cd3d605e4674df915ef5e","5f60e3c0a3b16e07647b2ff9","5f648be155127e00087ff78a","false","null","<span style=""color: black; font-size: 48px"">N + M</span>","null","","","","resp_prompt","","","","","","","","","","","","","","","",""
"categorize-image","48","535679","0.0-3.0-3.0-1.0","3hdlgfpgkxrt1gb","practice_cue","5f5cd3d605e4674df915ef5e","5f60e3c0a3b16e07647b2ff9","5f648be155127e00087ff78a","true","852.9999999955762","./Stimuli/ImagesPractice/LN72.jpg","83","","","","test","true","N + M","83","","LN","LN72.jpg","remember","old","17","2","practice_forget","left","","","",""
"html-keyboard-response","49","537681","0.0-3.0-3.0-3.0","3hdlgfpgkxrt1gb","practice_cue","5f5cd3d605e4674df915ef5e","5f60e3c0a3b16e07647b2ff9","5f648be155127e00087ff78a","false","null","<div style=""align-items: center; display: flex; color: dodgerblue; font-size: 90px""><b>o</b></div>","null","","","","forget_cue","","","","","","","","","","","","","","","",""
"html-keyboard-response","50","538382","0.0-3.0-3.0-0.1","3hdlgfpgkxrt1gb","practice_cue","5f5cd3d605e4674df915ef5e","5f60e3c0a3b16e07647b2ff9","5f648be155127e00087ff78a","false","null","<span style=""color: black; font-size: 48px"">M + N</span>","null","","","","resp_prompt","","","","","","","","","","","","","","","",""
"categorize-image","51","539608","0.0-3.0-3.0-1.1","3hdlgfpgkxrt1gb","practice_cue","5f5cd3d605e4674df915ef5e","5f60e3c0a3b16e07647b2ff9","5f648be155127e00087ff78a","true","1219.0000000046566","./Stimuli/ImagesPractice/LN2.jpg","76","","","","test","true","M + N","76","","LN","LN2.jpg","forget","old","18","2","practice_forget","right","","","",""
"html-keyboard-response","52","541609","0.0-3.0-3.0-3.1","3hdlgfpgkxrt1gb","practice_cue","5f5cd3d605e4674df915ef5e","5f60e3c0a3b16e07647b2ff9","5f648be155127e00087ff78a","false","null","<div style=""align-items: center; display: flex; color: darkorange; font-size: 90px""><b>ø</b></div>","null","","","","forget_cue","","","","","","","","","","","","","","","",""
"html-keyboard-response","53","542310","0.0-3.0-3.0-0.2","3hdlgfpgkxrt1gb","practice_cue","5f5cd3d605e4674df915ef5e","5f60e3c0a3b16e07647b2ff9","5f648be155127e00087ff78a","false","null","<span style=""color: black; font-size: 48px"">M + N</span>","null","","","","resp_prompt","","","","","","","","","","","","","","","",""
"categorize-image","54","543288","0.0-3.0-3.0-1.2","3hdlgfpgkxrt1gb","practice_cue","5f5cd3d605e4674df915ef5e","5f60e3c0a3b16e07647b2ff9","5f648be155127e00087ff78a","true","970.0000000011642","./Stimuli/ImagesPractice/SN221.jpg","76","","","","test","true","M + N","76","","SN","SN221.jpg","remember","old","19","2","practice_forget","right","","","",""
"html-keyboard-response","55","545290","0.0-3.0-3.0-3.2","3hdlgfpgkxrt1gb","practice_cue","5f5cd3d605e4674df915ef5e","5f60e3c0a3b16e07647b2ff9","5f648be155127e00087ff78a","false","null","<div style=""align-items: center; display: flex; color: dodgerblue; font-size: 90px""><b>o</b></div>","null","","","","forget_cue","","","","","","","","","","","","","","","",""
"html-keyboard-response","56","545992","0.0-3.0-3.0-0.3","3hdlgfpgkxrt1gb","practice_cue","5f5cd3d605e4674df915ef5e","5f60e3c0a3b16e07647b2ff9","5f648be155127e00087ff78a","false","null","<span style=""color: black; font-size: 48px"">M + N</span>","null","","","","resp_prompt","","","","","","","","","","","","","","","",""
"categorize-image","57","547026","0.0-3.0-3.0-1.3","3hdlgfpgkxrt1gb","practice_cue","5f5cd3d605e4674df915ef5e","5f60e3c0a3b16e07647b2ff9","5f648be155127e00087ff78a","true","1026.999999994645","./Stimuli/ImagesPractice/LM239.jpg","83","","","","test","true","M + N","83","","LM","LM239.jpg","forget","old","20","2","practice_forget","left","","","",""
"html-keyboard-response","58","549027","0.0-3.0-3.0-3.3","3hdlgfpgkxrt1gb","practice_cue","5f5cd3d605e4674df915ef5e","5f60e3c0a3b16e07647b2ff9","5f648be155127e00087ff78a","false","null","<div style=""align-items: center; display: flex; color: darkorange; font-size: 90px""><b>ø</b></div>","null","","","","forget_cue","","","","","","","","","","","","","","","",""
"html-keyboard-response","59","549729","0.0-3.0-3.0-0.4","3hdlgfpgkxrt1gb","practice_cue","5f5cd3d605e4674df915ef5e","5f60e3c0a3b16e07647b2ff9","5f648be155127e00087ff78a","false","null","<span style=""color: black; font-size: 48px"">M + N</span>","null","","","","resp_prompt","","","","","","","","","","","","","","","",""
"categorize-image","60","550752","0.0-3.0-3.0-1.4","3hdlgfpgkxrt1gb","practice_cue","5f5cd3d605e4674df915ef5e","5f60e3c0a3b16e07647b2ff9","5f648be155127e00087ff78a","true","1014.9999999995343","./Stimuli/ImagesPractice/SM61.jpg","83","","","","test","true","M + N","83","","SM","SM61.jpg","remember","old","21","2","practice_forget","left","","","",""
"html-keyboard-response","61","552754","0.0-3.0-3.0-3.4","3hdlgfpgkxrt1gb","practice_cue","5f5cd3d605e4674df915ef5e","5f60e3c0a3b16e07647b2ff9","5f648be155127e00087ff78a","false","null","<div style=""align-items: center; display: flex; color: dodgerblue; font-size: 90px""><b>o</b></div>","null","","","","forget_cue","","","","","","","","","","","","","","","",""
"html-keyboard-response","62","553455","0.0-3.0-3.0-0.5","3hdlgfpgkxrt1gb","practice_cue","5f5cd3d605e4674df915ef5e","5f60e3c0a3b16e07647b2ff9","5f648be155127e00087ff78a","false","null","<span style=""color: black; font-size: 48px"">M + N</span>","null","","","","resp_prompt","","","","","","","","","","","","","","","",""
"categorize-image","63","554370","0.0-3.0-3.0-1.5","3hdlgfpgkxrt1gb","practice_cue","5f5cd3d605e4674df915ef5e","5f60e3c0a3b16e07647b2ff9","5f648be155127e00087ff78a","true","906.9999999993015","./Stimuli/ImagesPractice/LM143.jpg","83","","","","test","true","M + N","83","","LM","LM143.jpg","forget","old","22","2","practice_forget","left","","","",""
"html-keyboard-response","64","556371","0.0-3.0-3.0-3.5","3hdlgfpgkxrt1gb","practice_cue","5f5cd3d605e4674df915ef5e","5f60e3c0a3b16e07647b2ff9","5f648be155127e00087ff78a","false","null","<div style=""align-items: center; display: flex; color: darkorange; font-size: 90px""><b>ø</b></div>","null","","","","forget_cue","","","","","","","","","","","","","","","",""
"html-keyboard-response","65","557073","0.0-3.0-3.0-0.6","3hdlgfpgkxrt1gb","practice_cue","5f5cd3d605e4674df915ef5e","5f60e3c0a3b16e07647b2ff9","5f648be155127e00087ff78a","false","null","<span style=""color: black; font-size: 48px"">N + M</span>","null","","","","resp_prompt","","","","","","","","","","","","","","","",""
"categorize-image","66","558067","0.0-3.0-3.0-1.6","3hdlgfpgkxrt1gb","practice_cue","5f5cd3d605e4674df915ef5e","5f60e3c0a3b16e07647b2ff9","5f648be155127e00087ff78a","true","987.0000000010477","./Stimuli/ImagesPractice/LN15.jpg","83","","","","test","true","N + M","83","","LN","LN15.jpg","remember","old","23","2","practice_forget","left","","","",""
"html-keyboard-response","67","560068","0.0-3.0-3.0-3.6","3hdlgfpgkxrt1gb","practice_cue","5f5cd3d605e4674df915ef5e","5f60e3c0a3b16e07647b2ff9","5f648be155127e00087ff78a","false","null","<div style=""align-items: center; display: flex; color: dodgerblue; font-size: 90px""><b>o</b></div>","null","","","","forget_cue","","","","","","","","","","","","","","","",""
"html-keyboard-response","68","560770","0.0-3.0-3.0-0.7","3hdlgfpgkxrt1gb","practice_cue","5f5cd3d605e4674df915ef5e","5f60e3c0a3b16e07647b2ff9","5f648be155127e00087ff78a","false","null","<span style=""color: black; font-size: 48px"">N + M</span>","null","","","","resp_prompt","","","","","","","","","","","","","","","",""
"categorize-image","69","561674","0.0-3.0-3.0-1.7","3hdlgfpgkxrt1gb","practice_cue","5f5cd3d605e4674df915ef5e","5f60e3c0a3b16e07647b2ff9","5f648be155127e00087ff78a","true","898.0000000011642","./Stimuli/ImagesPractice/SM62.jpg","76","","","","test","true","N + M","76","","SM","SM62.jpg","forget","old","24","2","practice_forget","right","","","",""
"html-keyboard-response","70","563675","0.0-3.0-3.0-3.7","3hdlgfpgkxrt1gb","practice_cue","5f5cd3d605e4674df915ef5e","5f60e3c0a3b16e07647b2ff9","5f648be155127e00087ff78a","false","null","<div style=""align-items: center; display: flex; color: darkorange; font-size: 90px""><b>ø</b></div>","null","","","","forget_cue","","","","","","","","","","","","","","","",""
"html-keyboard-response","71","564376","0.0-3.0-3.0-0.8","3hdlgfpgkxrt1gb","practice_cue","5f5cd3d605e4674df915ef5e","5f60e3c0a3b16e07647b2ff9","5f648be155127e00087ff78a","false","null","<span style=""color: black; font-size: 48px"">M + N</span>","null","","","","resp_prompt","","","","","","","","","","","","","","","",""
"categorize-image","72","566364","0.0-3.0-3.0-1.8","3hdlgfpgkxrt1gb","practice_cue","5f5cd3d605e4674df915ef5e","5f60e3c0a3b16e07647b2ff9","5f648be155127e00087ff78a","true","1980.9999999997672","./Stimuli/ImagesPractice/SM35.jpg","83","","","","test","true","M + N","83","","SM","SM35.jpg","forget","old","25","2","practice_forget","left","","","",""
"html-keyboard-response","73","568366","0.0-3.0-3.0-3.8","3hdlgfpgkxrt1gb","practice_cue","5f5cd3d605e4674df915ef5e","5f60e3c0a3b16e07647b2ff9","5f648be155127e00087ff78a","false","null","<div style=""align-items: center; display: flex; color: darkorange; font-size: 90px""><b>ø</b></div>","null","","","","forget_cue","","","","","","","","","","","","","","","",""
"html-keyboard-response","74","569067","0.0-3.0-3.0-0.9","3hdlgfpgkxrt1gb","practice_cue","5f5cd3d605e4674df915ef5e","5f60e3c0a3b16e07647b2ff9","5f648be155127e00087ff78a","false","null","<span style=""color: black; font-size: 48px"">N + M</span>","null","","","","resp_prompt","","","","","","","","","","","","","","","",""
"categorize-image","75","570041","0.0-3.0-3.0-1.9","3hdlgfpgkxrt1gb","practice_cue","5f5cd3d605e4674df915ef5e","5f60e3c0a3b16e07647b2ff9","5f648be155127e00087ff78a","true","966.0000000003492","./Stimuli/ImagesPractice/SM98.jpg","76","","","","test","true","N + M","76","","SM","SM98.jpg","forget","old","26","2","practice_forget","right","","","",""
"html-keyboard-response","76","572043","0.0-3.0-3.0-3.9","3hdlgfpgkxrt1gb","practice_cue","5f5cd3d605e4674df915ef5e","5f60e3c0a3b16e07647b2ff9","5f648be155127e00087ff78a","false","null","<div style=""align-items: center; display: flex; color: darkorange; font-size: 90px""><b>ø</b></div>","null","","","","forget_cue","","","","","","","","","","","","","","","",""
"html-keyboard-response","77","572744","0.0-3.0-3.0-0.10","3hdlgfpgkxrt1gb","practice_cue","5f5cd3d605e4674df915ef5e","5f60e3c0a3b16e07647b2ff9","5f648be155127e00087ff78a","false","null","<span style=""color: black; font-size: 48px"">N + M</span>","null","","","","resp_prompt","","","","","","","","","","","","","","","",""
"categorize-image","78","573782","0.0-3.0-3.0-1.10","3hdlgfpgkxrt1gb","practice_cue","5f5cd3d605e4674df915ef5e","5f60e3c0a3b16e07647b2ff9","5f648be155127e00087ff78a","true","1026.000000005355","./Stimuli/ImagesPractice/SN220.jpg","83","","","","test","true","N + M","83","","SN","SN220.jpg","remember","old","27","2","practice_forget","left","","","",""
"html-keyboard-response","79","575783","0.0-3.0-3.0-3.10","3hdlgfpgkxrt1gb","practice_cue","5f5cd3d605e4674df915ef5e","5f60e3c0a3b16e07647b2ff9","5f648be155127e00087ff78a","false","null","<div style=""align-items: center; display: flex; color: dodgerblue; font-size: 90px""><b>o</b></div>","null","","","","forget_cue","","","","","","","","","","","","","","","",""
"html-keyboard-response","80","576484","0.0-3.0-3.0-0.11","3hdlgfpgkxrt1gb","practice_cue","5f5cd3d605e4674df915ef5e","5f60e3c0a3b16e07647b2ff9","5f648be155127e00087ff78a","false","null","<span style=""color: black; font-size: 48px"">N + M</span>","null","","","","resp_prompt","","","","","","","","","","","","","","","",""
"categorize-image","81","577224","0.0-3.0-3.0-1.11","3hdlgfpgkxrt1gb","practice_cue","5f5cd3d605e4674df915ef5e","5f60e3c0a3b16e07647b2ff9","5f648be155127e00087ff78a","true","733.0000000001164","./Stimuli/ImagesPractice/LM55.jpg","76","","","","test","true","N + M","76","","LM","LM55.jpg","forget","old","28","2","practice_forget","right","","","",""
"html-keyboard-response","82","579226","0.0-3.0-3.0-3.11","3hdlgfpgkxrt1gb","practice_cue","5f5cd3d605e4674df915ef5e","5f60e3c0a3b16e07647b2ff9","5f648be155127e00087ff78a","false","null","<div style=""align-items: center; display: flex; color: darkorange; font-size: 90px""><b>ø</b></div>","null","","","","forget_cue","","","","","","","","","","","","","","","",""
"html-keyboard-response","83","579927","0.0-3.0-3.0-0.12","3hdlgfpgkxrt1gb","practice_cue","5f5cd3d605e4674df915ef5e","5f60e3c0a3b16e07647b2ff9","5f648be155127e00087ff78a","false","null","<span style=""color: black; font-size: 48px"">M + N</span>","null","","","","resp_prompt","","","","","","","","","","","","","","","",""
"categorize-image","84","580921","0.0-3.0-3.0-1.12","3hdlgfpgkxrt1gb","practice_cue","5f5cd3d605e4674df915ef5e","5f60e3c0a3b16e07647b2ff9","5f648be155127e00087ff78a","true","987.9999999976717","./Stimuli/ImagesPractice/LM224.jpg","83","","","","test","true","M + N","83","","LM","LM224.jpg","remember","old","29","2","practice_forget","left","","","",""
"html-keyboard-response","85","582924","0.0-3.0-3.0-3.12","3hdlgfpgkxrt1gb","practice_cue","5f5cd3d605e4674df915ef5e","5f60e3c0a3b16e07647b2ff9","5f648be155127e00087ff78a","false","null","<div style=""align-items: center; display: flex; color: dodgerblue; font-size: 90px""><b>o</b></div>","null","","","","forget_cue","","","","","","","","","","","","","","","",""
"html-keyboard-response","86","583625","0.0-3.0-3.0-0.13","3hdlgfpgkxrt1gb","practice_cue","5f5cd3d605e4674df915ef5e","5f60e3c0a3b16e07647b2ff9","5f648be155127e00087ff78a","false","null","<span style=""color: black; font-size: 48px"">N + M</span>","null","","","","resp_prompt","","","","","","","","","","","","","","","",""
"categorize-image","87","584491","0.0-3.0-3.0-1.13","3hdlgfpgkxrt1gb","practice_cue","5f5cd3d605e4674df915ef5e","5f60e3c0a3b16e07647b2ff9","5f648be155127e00087ff78a","true","858.0000000001164","./Stimuli/ImagesPractice/LM230.jpg","76","","","","test","true","N + M","76","","LM","LM230.jpg","forget","old","30","2","practice_forget","right","","","",""
"html-keyboard-response","88","586492","0.0-3.0-3.0-3.13","3hdlgfpgkxrt1gb","practice_cue","5f5cd3d605e4674df915ef5e","5f60e3c0a3b16e07647b2ff9","5f648be155127e00087ff78a","false","null","<div style=""align-items: center; display: flex; color: darkorange; font-size: 90px""><b>ø</b></div>","null","","","","forget_cue","","","","","","","","","","","","","","","",""
"html-keyboard-response","89","587193","0.0-3.0-3.0-0.14","3hdlgfpgkxrt1gb","practice_cue","5f5cd3d605e4674df915ef5e","5f60e3c0a3b16e07647b2ff9","5f648be155127e00087ff78a","false","null","<span style=""color: black; font-size: 48px"">N + M</span>","null","","","","resp_prompt","","","","","","","","","","","","","","","",""
"categorize-image","90","587916","0.0-3.0-3.0-1.14","3hdlgfpgkxrt1gb","practice_cue","5f5cd3d605e4674df915ef5e","5f60e3c0a3b16e07647b2ff9","5f648be155127e00087ff78a","true","713.000000003376","./Stimuli/ImagesPractice/LN17.jpg","83","","","","test","true","N + M","83","","LN","LN17.jpg","remember","old","31","2","practice_forget","left","","","",""
"html-keyboard-response","91","589918","0.0-3.0-3.0-3.14","3hdlgfpgkxrt1gb","practice_cue","5f5cd3d605e4674df915ef5e","5f60e3c0a3b16e07647b2ff9","5f648be155127e00087ff78a","false","null","<div style=""align-items: center; display: flex; color: dodgerblue; font-size: 90px""><b>o</b></div>","null","","","","forget_cue","","","","","","","","","","","","","","","",""
"html-keyboard-response","92","590619","0.0-3.0-3.0-0.15","3hdlgfpgkxrt1gb","practice_cue","5f5cd3d605e4674df915ef5e","5f60e3c0a3b16e07647b2ff9","5f648be155127e00087ff78a","false","null","<span style=""color: black; font-size: 48px"">M + N</span>","null","","","","resp_prompt","","","","","","","","","","","","","","","",""
"categorize-image","93","591322","0.0-3.0-3.0-1.15","3hdlgfpgkxrt1gb","practice_cue","5f5cd3d605e4674df915ef5e","5f60e3c0a3b16e07647b2ff9","5f648be155127e00087ff78a","true","696.0000000036089","./Stimuli/ImagesPractice/LM147.jpg","83","","","","test","true","M + N","83","","LM","LM147.jpg","remember","old","32","2","practice_forget","left","","","",""
"html-keyboard-response","94","593323","0.0-3.0-3.0-3.15","3hdlgfpgkxrt1gb","practice_cue","5f5cd3d605e4674df915ef5e","5f60e3c0a3b16e07647b2ff9","5f648be155127e00087ff78a","false","null","<div style=""align-items: center; display: flex; color: dodgerblue; font-size: 90px""><b>o</b></div>","null","","","","forget_cue","","","","","","","","","","","","","","","",""
"html-keyboard-response","95","612906","0.0-3.0-4.0","3hdlgfpgkxrt1gb","break","5f5cd3d605e4674df915ef5e","5f60e3c0a3b16e07647b2ff9","5f648be155127e00087ff78a","false","19579.00000000524","<p style='font-size: 32px;'>Break</><br><br><br><br><br><p style='font-size: 24px;'>In the last block, you committed 0 errors and did not respond in time on 0 trials.
</p><p style='font-size: 24px;'>Try to respond as fast and accurately as possible in the next block as well! </p><p style='font-size: 24px;'>Press SPACE to continue.</p>","32","","","","","","","","","","","","","","","","","","","",""
"html-keyboard-response","96","656448","0.0-3.0-5.0","3hdlgfpgkxrt1gb","instructions","5f5cd3d605e4674df915ef5e","5f60e3c0a3b16e07647b2ff9","5f648be155127e00087ff78a","false","43538.000000000466","<div align=left> Now, to practice, we kindly ask you to remember as many of the to-be-remembered pictures<br>of the previous learning phase as possible.<br><br>The pictures you were instructed to remember were the pictures followed by a <span style='color: dodgerblue; font-size: 28px'>O</span>.<br><br>In this memory test phase, you will also see some new pictures.<br>It is your task to remember whether you were presented with this specific picture in this study so far or not.<br>If you recognize an object (you have already seen it in this study), it is an OLD object. <br>If you do not recognize an object (you have NOT seen it in this study), it is a NEW object. <br><strong> Attention</strong>: As already mentioned, <span style='color: darkorange; font-size:28px'>Ø</span>-pictures will <strong>never</strong> appear in this memory test (neither as new objects). <br><br>Press SPACE to continue. </div>","32","","","","","","","","","","","","","","","","","","","",""
"html-keyboard-response","97","714554","0.0-3.0-6.0","3hdlgfpgkxrt1gb","instructions","5f5cd3d605e4674df915ef5e","5f60e3c0a3b16e07647b2ff9","5f648be155127e00087ff78a","false","58102.00000000629","<div align=left> M and N no longer will appear on the left/right of the fixation cross. <br>Instead there will be a note at the bottom of the left or right side  <br>indicating which key you should press for an old or new object:  <br> <br>Press the <strong>right</strong> key to classify an object as <strong>old</strong> and press the <strong>left</strong>, to classify an object as <strong>new</strong>.<br>Please classify the objects as new/old by again placing your index finger on the 'S' and 'L' keys <br>and press them accordingly.<br><br><strong>Old:</strong> This object has been presented before. <br><strong>New:</strong> This object has <strong>not</strong> been presented.<br><br>Now please put your right and left index fingers on the 'S' and 'L' keys of your keyboard. <br>Please respond as fast and as accurately as possible!<br><br>Press SPACE to continue. </div>","32","","","","","","","","","","","","","","","","","","","",""
"categorize-image","98","716760","0.0-3.0-7.0-0.0","3hdlgfpgkxrt1gb","practice_recog","5f5cd3d605e4674df915ef5e","5f60e3c0a3b16e07647b2ff9","5f648be155127e00087ff78a","true","1699.9999999970896","./Stimuli/ImagesPractice/LM224.jpg","83","","","","test","true","","83","","LM","LM224.jpg","","old","33","3","practice_recog","left","","","",""
"categorize-image","99","718130","0.0-3.0-7.0-0.1","3hdlgfpgkxrt1gb","practice_recog","5f5cd3d605e4674df915ef5e","5f60e3c0a3b16e07647b2ff9","5f648be155127e00087ff78a","true","864.9999999980209","./Stimuli/ImagesPractice/SM37.jpg","76","","","","test","true","","76","","SM","SM37.jpg","","new","34","3","practice_recog","right","","","",""
"categorize-image","100","719327","0.0-3.0-7.0-0.2","3hdlgfpgkxrt1gb","practice_recog","5f5cd3d605e4674df915ef5e","5f60e3c0a3b16e07647b2ff9","5f648be155127e00087ff78a","true","692.9999999993015","./Stimuli/ImagesPractice/SN220.jpg","83","","","","test","true","","83","","SN","SN220.jpg","","old","35","3","practice_recog","left","","","",""
"categorize-image","101","720501","0.0-3.0-7.0-0.3","3hdlgfpgkxrt1gb","practice_recog","5f5cd3d605e4674df915ef5e","5f60e3c0a3b16e07647b2ff9","5f648be155127e00087ff78a","true","670.0000000054715","./Stimuli/ImagesPractice/SM97.jpg","83","","","","test","false","","76","","SM","SM97.jpg","","new","36","3","practice_recog","left","","","",""
"categorize-image","102","721676","0.0-3.0-7.0-0.4","3hdlgfpgkxrt1gb","practice_recog","5f5cd3d605e4674df915ef5e","5f60e3c0a3b16e07647b2ff9","5f648be155127e00087ff78a","true","671.0000000020955","./Stimuli/ImagesPractice/SN221.jpg","83","","","","test","true","","83","","SN","SN221.jpg","","old","37","3","practice_recog","left","","","",""
"categorize-image","103","723118","0.0-3.0-7.0-0.5","3hdlgfpgkxrt1gb","practice_recog","5f5cd3d605e4674df915ef5e","5f60e3c0a3b16e07647b2ff9","5f648be155127e00087ff78a","true","938.999999998603","./Stimuli/ImagesPractice/LN4.jpg","76","","","","test","true","","76","","LN","LN4.jpg","","new","38","3","practice_recog","right","","","",""
"categorize-image","104","724334","0.0-3.0-7.0-0.6","3hdlgfpgkxrt1gb","practice_recog","5f5cd3d605e4674df915ef5e","5f60e3c0a3b16e07647b2ff9","5f648be155127e00087ff78a","true","711.9999999995343","./Stimuli/ImagesPractice/SN76.jpg","76","","","","test","true","","76","","SN","SN76.jpg","","new","39","3","practice_recog","right","","","",""
"categorize-image","105","725709","0.0-3.0-7.0-0.7","3hdlgfpgkxrt1gb","practice_recog","5f5cd3d605e4674df915ef5e","5f60e3c0a3b16e07647b2ff9","5f648be155127e00087ff78a","true","871.9999999956926","./Stimuli/ImagesPractice/LN109.jpg","76","","","","test","true","","76","","LN","LN109.jpg","","new","40","3","practice_recog","right","","","",""
"categorize-image","106","726872","0.0-3.0-7.0-0.8","3hdlgfpgkxrt1gb","practice_recog","5f5cd3d605e4674df915ef5e","5f60e3c0a3b16e07647b2ff9","5f648be155127e00087ff78a","true","659.9999999961583","./Stimuli/ImagesPractice/LN72.jpg","83","","","","test","true","","83","","LN","LN72.jpg","","old","41","3","practice_recog","left","","","",""
"categorize-image","107","728050","0.0-3.0-7.0-0.9","3hdlgfpgkxrt1gb","practice_recog","5f5cd3d605e4674df915ef5e","5f60e3c0a3b16e07647b2ff9","5f648be155127e00087ff78a","true","673.9999999990687","./Stimuli/ImagesPractice/SN75.jpg","76","","","","test","true","","76","","SN","SN75.jpg","","new","42","3","practice_recog","right","","","",""
"categorize-image","108","729247","0.0-3.0-7.0-0.10","3hdlgfpgkxrt1gb","practice_recog","5f5cd3d605e4674df915ef5e","5f60e3c0a3b16e07647b2ff9","5f648be155127e00087ff78a","true","692.9999999993015","./Stimuli/ImagesPractice/LN17.jpg","83","","","","test","true","","83","","LN","LN17.jpg","","old","43","3","practice_recog","left","","","",""
"categorize-image","109","730461","0.0-3.0-7.0-0.11","3hdlgfpgkxrt1gb","practice_recog","5f5cd3d605e4674df915ef5e","5f60e3c0a3b16e07647b2ff9","5f648be155127e00087ff78a","true","709.9999999991851","./Stimuli/ImagesPractice/SM61.jpg","83","","","","test","true","","83","","SM","SM61.jpg","","old","44","3","practice_recog","left","","","",""
"categorize-image","110","731550","0.0-3.0-7.0-0.12","3hdlgfpgkxrt1gb","practice_recog","5f5cd3d605e4674df915ef5e","5f60e3c0a3b16e07647b2ff9","5f648be155127e00087ff78a","true","585.999999995809","./Stimuli/ImagesPractice/SN222.jpg","76","","","","test","true","","76","","SN","SN222.jpg","","new","45","3","practice_recog","right","","","",""
"categorize-image","111","732749","0.0-3.0-7.0-0.13","3hdlgfpgkxrt1gb","practice_recog","5f5cd3d605e4674df915ef5e","5f60e3c0a3b16e07647b2ff9","5f648be155127e00087ff78a","true","694.9999999997672","./Stimuli/ImagesPractice/SN205.jpg","76","","","","test","true","","76","","SN","SN205.jpg","","new","46","3","practice_recog","right","","","",""
"categorize-image","112","733898","0.0-3.0-7.0-0.14","3hdlgfpgkxrt1gb","practice_recog","5f5cd3d605e4674df915ef5e","5f60e3c0a3b16e07647b2ff9","5f648be155127e00087ff78a","true","645.0000000040745","./Stimuli/ImagesPractice/LM147.jpg","83","","","","test","true","","83","","LM","LM147.jpg","","old","47","3","practice_recog","left","","","",""
"categorize-image","113","735080","0.0-3.0-7.0-0.15","3hdlgfpgkxrt1gb","practice_recog","5f5cd3d605e4674df915ef5e","5f60e3c0a3b16e07647b2ff9","5f648be155127e00087ff78a","true","678.9999999965075","./Stimuli/ImagesPractice/LN15.jpg","83","","","","test","true","","83","","LN","LN15.jpg","","old","48","3","practice_recog","left","","","",""
"html-keyboard-response","114","764640","0.0-3.0-8.0","3hdlgfpgkxrt1gb","instructions","5f5cd3d605e4674df915ef5e","5f60e3c0a3b16e07647b2ff9","5f648be155127e00087ff78a","false","29557.0000000007","<div align=left> Great!<br><br>Are you ready to continue?<br>If you want to reread the instructions and redo the practice trials, please <br>press „Z“.<br><br>You can proceed when you are ready.<br><br>After the presentation of each object, you will receive an instruction whether to <br>remember or to forget the object.<br>We will test your memory of the following pictures only at the very end of <br>the experiment after all learning blocks are completed. <br><br>Press SPACE to CONTINUE when you are ready. </div>","32","","","","","","","","","","","","","","","","","","","",""
"html-keyboard-response","115","789512","0.0-4.0-0.0","3hdlgfpgkxrt1gb","instructions","5f5cd3d605e4674df915ef5e","5f60e3c0a3b16e07647b2ff9","5f648be155127e00087ff78a","false","24868.99999999872","<div align=left> The actual experiment is about to start.<br>The practice trials are over!<br><br>Please always respond both fast and accurately!<br><br>Remember: <br> <br><li> Please place your index fingers on the <strong>'S'</strong> and <strong>'L'</strong> keys <br>to respond as fast and accurately as possible.</li><li> Every picture can be classified as either mechanical or non-mechanical.</li><li> If you do not respond in time or commit an error, you will receive a corresponding feedback.<br> Please try to respond as <strong> fast </strong> and as <strong> accurately as possible </strong>.</li><li> Remember the <span style='color: dodgerblue; font-size: 28px'>O</span> pictures. <br></li><li> Please minimize distractions and stay focused. </li><br><br>Press SPACE to START.</div>","32","","","","","","","","","","","","","","","","","","","",""
"html-keyboard-response","116","790215","0.0-4.0-1.0-0.0","3hdlgfpgkxrt1gb","prime","5f5cd3d605e4674df915ef5e","5f60e3c0a3b16e07647b2ff9","5f648be155127e00087ff78a","false","null","<span style=""color: black; font-size: 48px"">M + N</span>","null","","","","resp_prompt","","","","","","","","","","","","","","","",""
"categorize-image","117","790988","0.0-4.0-1.0-1.0","3hdlgfpgkxrt1gb","prime","5f5cd3d605e4674df915ef5e","5f60e3c0a3b16e07647b2ff9","5f648be155127e00087ff78a","true","765.9999999960419","./Stimuli/SelectedImages/SM/SM200.bmp","83","","","","test","true","M + N","83","repetition","SM","SM200.bmp","remember","","49","3","prime1","left","","","",""
"html-keyboard-response","118","792990","0.0-4.0-1.0-3.0","3hdlgfpgkxrt1gb","prime","5f5cd3d605e4674df915ef5e","5f60e3c0a3b16e07647b2ff9","5f648be155127e00087ff78a","false","null","<div style=""align-items: center; display: flex; color: dodgerblue; font-size: 90px""><b>o</b></div>","null","","","","forget_cue","","","","","","","","","","","","","","","",""
"html-keyboard-response","119","793691","0.0-4.0-1.0-0.1","3hdlgfpgkxrt1gb","prime","5f5cd3d605e4674df915ef5e","5f60e3c0a3b16e07647b2ff9","5f648be155127e00087ff78a","false","null","<span style=""color: black; font-size: 48px"">M + N</span>","null","","","","resp_prompt","","","","","","","","","","","","","","","",""
"categorize-image","120","794574","0.0-4.0-1.0-1.1","3hdlgfpgkxrt1gb","prime","5f5cd3d605e4674df915ef5e","5f60e3c0a3b16e07647b2ff9","5f648be155127e00087ff78a","true","875","./Stimuli/SelectedImages/LM/LM48.bmp","83","","","","test","true","M + N","83","switch","LM","LM48.bmp","remember","","50","3","prime1","left","","","",""
"html-keyboard-response","121","796575","0.0-4.0-1.0-3.1","3hdlgfpgkxrt1gb","prime","5f5cd3d605e4674df915ef5e","5f60e3c0a3b16e07647b2ff9","5f648be155127e00087ff78a","false","null","<div style=""align-items: center; display: flex; color: dodgerblue; font-size: 90px""><b>o</b></div>","null","","","","forget_cue","","","","","","","","","","","","","","","",""
"html-keyboard-response","122","797278","0.0-4.0-1.0-0.2","3hdlgfpgkxrt1gb","prime","5f5cd3d605e4674df915ef5e","5f60e3c0a3b16e07647b2ff9","5f648be155127e00087ff78a","false","null","<span style=""color: black; font-size: 48px"">N + M</span>","null","","","","resp_prompt","","","","","","","","","","","","","","","",""
"categorize-image","123","798190","0.0-4.0-1.0-1.2","3hdlgfpgkxrt1gb","prime","5f5cd3d605e4674df915ef5e","5f60e3c0a3b16e07647b2ff9","5f648be155127e00087ff78a","true","905.9999999954598","./Stimuli/SelectedImages/LM/LM216.bmp","83","","","","test","false","N + M","76","repetition","LM","LM216.bmp","remember","","51","3","prime1","left","","","",""
"html-keyboard-response","124","798691","0.0-4.0-1.0-2.2-0.2","3hdlgfpgkxrt1gb","prime","5f5cd3d605e4674df915ef5e","5f60e3c0a3b16e07647b2ff9","5f648be155127e00087ff78a","false","null","<span style=""color: red; font-size: 48px"">Error!</span>","null","","","","feedback","","","","","","","","","","","","","","","",""
"html-keyboard-response","125","800693","0.0-4.0-1.0-3.2","3hdlgfpgkxrt1gb","prime","5f5cd3d605e4674df915ef5e","5f60e3c0a3b16e07647b2ff9","5f648be155127e00087ff78a","false","null","<div style=""align-items: center; display: flex; color: dodgerblue; font-size: 90px""><b>o</b></div>","null","","","","forget_cue","","","","","","","","","","","","","","","",""
"html-keyboard-response","126","801394","0.0-4.0-1.0-0.3","3hdlgfpgkxrt1gb","prime","5f5cd3d605e4674df915ef5e","5f60e3c0a3b16e07647b2ff9","5f648be155127e00087ff78a","false","null","<span style=""color: black; font-size: 48px"">N + M</span>","null","","","","resp_prompt","","","","","","","","","","","","","","","",""
"categorize-image","127","802226","0.0-4.0-1.0-1.3","3hdlgfpgkxrt1gb","prime","5f5cd3d605e4674df915ef5e","5f60e3c0a3b16e07647b2ff9","5f648be155127e00087ff78a","true","825.0000000043074","./Stimuli/SelectedImages/LM/LM129.bmp","76","","","","test","true","N + M","76","switch","LM","LM129.bmp","forget","","52","3","prime1","right","","","",""
"html-keyboard-response","128","804228","0.0-4.0-1.0-3.3","3hdlgfpgkxrt1gb","prime","5f5cd3d605e4674df915ef5e","5f60e3c0a3b16e07647b2ff9","5f648be155127e00087ff78a","false","null","<div style=""align-items: center; display: flex; color: darkorange; font-size: 90px""><b>ø</b></div>","null","","","","forget_cue","","","","","","","","","","","","","","","",""
"html-keyboard-response","129","804929","0.0-4.0-1.0-0.4","3hdlgfpgkxrt1gb","prime","5f5cd3d605e4674df915ef5e","5f60e3c0a3b16e07647b2ff9","5f648be155127e00087ff78a","false","null","<span style=""color: black; font-size: 48px"">M + N</span>","null","","","","resp_prompt","","","","","","","","","","","","","","","",""
"categorize-image","130","805948","0.0-4.0-1.0-1.4","3hdlgfpgkxrt1gb","prime","5f5cd3d605e4674df915ef5e","5f60e3c0a3b16e07647b2ff9","5f648be155127e00087ff78a","true","1010.0000000020955","./Stimuli/SelectedImages/SN/SN64.bmp","76","","","","test","true","M + N","76","switch","SN","SN64.bmp","remember","","53","3","prime1","right","","","",""
"html-keyboard-response","131","807949","0.0-4.0-1.0-3.4","3hdlgfpgkxrt1gb","prime","5f5cd3d605e4674df915ef5e","5f60e3c0a3b16e07647b2ff9","5f648be155127e00087ff78a","false","null","<div style=""align-items: center; display: flex; color: dodgerblue; font-size: 90px""><b>o</b></div>","null","","","","forget_cue","","","","","","","","","","","","","","","",""
"html-keyboard-response","132","808650","0.0-4.0-1.0-0.5","3hdlgfpgkxrt1gb","prime","5f5cd3d605e4674df915ef5e","5f60e3c0a3b16e07647b2ff9","5f648be155127e00087ff78a","false","null","<span style=""color: black; font-size: 48px"">N + M</span>","null","","","","resp_prompt","","","","","","","","","","","","","","","",""
"categorize-image","133","809564","0.0-4.0-1.0-1.5","3hdlgfpgkxrt1gb","prime","5f5cd3d605e4674df915ef5e","5f60e3c0a3b16e07647b2ff9","5f648be155127e00087ff78a","true","906.0000000026776","./Stimuli/SelectedImages/LM/LM150.bmp","76","","","","test","true","N + M","76","repetition","LM","LM150.bmp","forget","","54","3","prime1","right","","","",""
"html-keyboard-response","134","811565","0.0-4.0-1.0-3.5","3hdlgfpgkxrt1gb","prime","5f5cd3d605e4674df915ef5e","5f60e3c0a3b16e07647b2ff9","5f648be155127e00087ff78a","false","null","<div style=""align-items: center; display: flex; color: darkorange; font-size: 90px""><b>ø</b></div>","null","","","","forget_cue","","","","","","","","","","","","","","","",""
"html-keyboard-response","135","812266","0.0-4.0-1.0-0.6","3hdlgfpgkxrt1gb","prime","5f5cd3d605e4674df915ef5e","5f60e3c0a3b16e07647b2ff9","5f648be155127e00087ff78a","false","null","<span style=""color: black; font-size: 48px"">M + N</span>","null","","","","resp_prompt","","","","","","","","","","","","","","","",""
"categorize-image","136","813227","0.0-4.0-1.0-1.6","3hdlgfpgkxrt1gb","prime","5f5cd3d605e4674df915ef5e","5f60e3c0a3b16e07647b2ff9","5f648be155127e00087ff78a","true","953.0000000012806","./Stimuli/SelectedImages/LN/LN131.bmp","83","","","","test","false","M + N","76","switch","LN","LN131.bmp","forget","","55","3","prime1","left","","","",""
"html-keyboard-response","137","813728","0.0-4.0-1.0-2.6-0.6","3hdlgfpgkxrt1gb","prime","5f5cd3d605e4674df915ef5e","5f60e3c0a3b16e07647b2ff9","5f648be155127e00087ff78a","false","null","<span style=""color: red; font-size: 48px"">Error!</span>","null","","","","feedback","","","","","","","","","","","","","","","",""
"html-keyboard-response","138","815730","0.0-4.0-1.0-3.6","3hdlgfpgkxrt1gb","prime","5f5cd3d605e4674df915ef5e","5f60e3c0a3b16e07647b2ff9","5f648be155127e00087ff78a","false","null","<div style=""align-items: center; display: flex; color: darkorange; font-size: 90px""><b>ø</b></div>","null","","","","forget_cue","","","","","","","","","","","","","","","",""
"html-keyboard-response","139","816432","0.0-4.0-1.0-0.7","3hdlgfpgkxrt1gb","prime","5f5cd3d605e4674df915ef5e","5f60e3c0a3b16e07647b2ff9","5f648be155127e00087ff78a","false","null","<span style=""color: black; font-size: 48px"">N + M</span>","null","","","","resp_prompt","","","","","","","","","","","","","","","",""
"categorize-image","140","817692","0.0-4.0-1.0-1.7","3hdlgfpgkxrt1gb","prime","5f5cd3d605e4674df915ef5e","5f60e3c0a3b16e07647b2ff9","5f648be155127e00087ff78a","true","1251.0000000037253","./Stimuli/SelectedImages/LN/LN82.bmp","83","","","","test","true","N + M","83","switch","LN","LN82.bmp","remember","","56","3","prime1","left","","","",""
"html-keyboard-response","141","819693","0.0-4.0-1.0-3.7","3hdlgfpgkxrt1gb","prime","5f5cd3d605e4674df915ef5e","5f60e3c0a3b16e07647b2ff9","5f648be155127e00087ff78a","false","null","<div style=""align-items: center; display: flex; color: dodgerblue; font-size: 90px""><b>o</b></div>","null","","","","forget_cue","","","","","","","","","","","","","","","",""
"html-keyboard-response","142","820394","0.0-4.0-1.0-0.8","3hdlgfpgkxrt1gb","prime","5f5cd3d605e4674df915ef5e","5f60e3c0a3b16e07647b2ff9","5f648be155127e00087ff78a","false","null","<span style=""color: black; font-size: 48px"">N + M</span>","null","","","","resp_prompt","","","","","","","","","","","","","","","",""
"categorize-image","143","821430","0.0-4.0-1.0-1.8","3hdlgfpgkxrt1gb","prime","5f5cd3d605e4674df915ef5e","5f60e3c0a3b16e07647b2ff9","5f648be155127e00087ff78a","true","1028.000000005588","./Stimuli/SelectedImages/LN/LN177.bmp","76","","","","test","false","N + M","83","repetition","LN","LN177.bmp","remember","","57","3","prime1","right","","","",""
"html-keyboard-response","144","821931","0.0-4.0-1.0-2.8-0.8","3hdlgfpgkxrt1gb","prime","5f5cd3d605e4674df915ef5e","5f60e3c0a3b16e07647b2ff9","5f648be155127e00087ff78a","false","null","<span style=""color: red; font-size: 48px"">Error!</span>","null","","","","feedback","","","","","","","","","","","","","","","",""
"html-keyboard-response","145","823932","0.0-4.0-1.0-3.8","3hdlgfpgkxrt1gb","prime","5f5cd3d605e4674df915ef5e","5f60e3c0a3b16e07647b2ff9","5f648be155127e00087ff78a","false","null","<div style=""align-items: center; display: flex; color: dodgerblue; font-size: 90px""><b>o</b></div>","null","","","","forget_cue","","","","","","","","","","","","","","","",""
"html-keyboard-response","146","824633","0.0-4.0-1.0-0.9","3hdlgfpgkxrt1gb","prime","5f5cd3d605e4674df915ef5e","5f60e3c0a3b16e07647b2ff9","5f648be155127e00087ff78a","false","null","<span style=""color: black; font-size: 48px"">M + N</span>","null","","","","resp_prompt","","","","","","","","","","","","","","","",""
"categorize-image","147","825430","0.0-4.0-1.0-1.9","3hdlgfpgkxrt1gb","prime","5f5cd3d605e4674df915ef5e","5f60e3c0a3b16e07647b2ff9","5f648be155127e00087ff78a","true","791.0000000046566","./Stimuli/SelectedImages/SN/SN18.bmp","76","","","","test","true","M + N","76","repetition","SN","SN18.bmp","remember","","58","3","prime1","right","","","",""
"html-keyboard-response","148","827432","0.0-4.0-1.0-3.9","3hdlgfpgkxrt1gb","prime","5f5cd3d605e4674df915ef5e","5f60e3c0a3b16e07647b2ff9","5f648be155127e00087ff78a","false","null","<div style=""align-items: center; display: flex; color: dodgerblue; font-size: 90px""><b>o</b></div>","null","","","","forget_cue","","","","","","","","","","","","","","","",""
"html-keyboard-response","149","828133","0.0-4.0-1.0-0.10","3hdlgfpgkxrt1gb","prime","5f5cd3d605e4674df915ef5e","5f60e3c0a3b16e07647b2ff9","5f648be155127e00087ff78a","false","null","<span style=""color: black; font-size: 48px"">M + N</span>","null","","","","resp_prompt","","","","","","","","","","","","","","","",""
"categorize-image","150","828831","0.0-4.0-1.0-1.10","3hdlgfpgkxrt1gb","prime","5f5cd3d605e4674df915ef5e","5f60e3c0a3b16e07647b2ff9","5f648be155127e00087ff78a","true","692.9999999993015","./Stimuli/SelectedImages/LN/LN128.bmp","76","","","","test","true","M + N","76","repetition","LN","LN128.bmp","forget","","59","3","prime1","right","","","",""
"html-keyboard-response","151","830832","0.0-4.0-1.0-3.10","3hdlgfpgkxrt1gb","prime","5f5cd3d605e4674df915ef5e","5f60e3c0a3b16e07647b2ff9","5f648be155127e00087ff78a","false","null","<div style=""align-items: center; display: flex; color: darkorange; font-size: 90px""><b>ø</b></div>","null","","","","forget_cue","","","","","","","","","","","","","","","",""
"html-keyboard-response","152","831533","0.0-4.0-1.0-0.11","3hdlgfpgkxrt1gb","prime","5f5cd3d605e4674df915ef5e","5f60e3c0a3b16e07647b2ff9","5f648be155127e00087ff78a","false","null","<span style=""color: black; font-size: 48px"">N + M</span>","null","","","","resp_prompt","","","","","","","","","","","","","","","",""
"categorize-image","153","832454","0.0-4.0-1.0-1.11","3hdlgfpgkxrt1gb","prime","5f5cd3d605e4674df915ef5e","5f60e3c0a3b16e07647b2ff9","5f648be155127e00087ff78a","true","914.9999999934807","./Stimuli/SelectedImages/SN/SN179.bmp","83","","","","test","true","N + M","83","repetition","SN","SN179.bmp","remember","","60","3","prime1","left","","","",""
"html-keyboard-response","154","834455","0.0-4.0-1.0-3.11","3hdlgfpgkxrt1gb","prime","5f5cd3d605e4674df915ef5e","5f60e3c0a3b16e07647b2ff9","5f648be155127e00087ff78a","false","null","<div style=""align-items: center; display: flex; color: dodgerblue; font-size: 90px""><b>o</b></div>","null","","","","forget_cue","","","","","","","","","","","","","","","",""
"html-keyboard-response","155","835156","0.0-4.0-1.0-0.12","3hdlgfpgkxrt1gb","prime","5f5cd3d605e4674df915ef5e","5f60e3c0a3b16e07647b2ff9","5f648be155127e00087ff78a","false","null","<span style=""color: black; font-size: 48px"">N + M</span>","null","","","","resp_prompt","","","","","","","","","","","","","","","",""
"categorize-image","156","836010","0.0-4.0-1.0-1.12","3hdlgfpgkxrt1gb","prime","5f5cd3d605e4674df915ef5e","5f60e3c0a3b16e07647b2ff9","5f648be155127e00087ff78a","true","847.9999999981374","./Stimuli/SelectedImages/SM/SM78.bmp","76","","","","test","true","N + M","76","repetition","SM","SM78.bmp","forget","","61","3","prime1","right","","","",""
"html-keyboard-response","157","838012","0.0-4.0-1.0-3.12","3hdlgfpgkxrt1gb","prime","5f5cd3d605e4674df915ef5e","5f60e3c0a3b16e07647b2ff9","5f648be155127e00087ff78a","false","null","<div style=""align-items: center; display: flex; color: darkorange; font-size: 90px""><b>ø</b></div>","null","","","","forget_cue","","","","","","","","","","","","","","","",""
"html-keyboard-response","158","838713","0.0-4.0-1.0-0.13","3hdlgfpgkxrt1gb","prime","5f5cd3d605e4674df915ef5e","5f60e3c0a3b16e07647b2ff9","5f648be155127e00087ff78a","false","null","<span style=""color: black; font-size: 48px"">N + M</span>","null","","","","resp_prompt","","","","","","","","","","","","","","","",""
"categorize-image","159","839578","0.0-4.0-1.0-1.13","3hdlgfpgkxrt1gb","prime","5f5cd3d605e4674df915ef5e","5f60e3c0a3b16e07647b2ff9","5f648be155127e00087ff78a","true","856.9999999963911","./Stimuli/SelectedImages/LM/LM167.bmp","76","","","","test","true","N + M","76","switch","LM","LM167.bmp","remember","","62","3","prime1","right","","","",""
"html-keyboard-response","160","841579","0.0-4.0-1.0-3.13","3hdlgfpgkxrt1gb","prime","5f5cd3d605e4674df915ef5e","5f60e3c0a3b16e07647b2ff9","5f648be155127e00087ff78a","false","null","<div style=""align-items: center; display: flex; color: dodgerblue; font-size: 90px""><b>o</b></div>","null","","","","forget_cue","","","","","","","","","","","","","","","",""
"html-keyboard-response","161","842281","0.0-4.0-1.0-0.14","3hdlgfpgkxrt1gb","prime","5f5cd3d605e4674df915ef5e","5f60e3c0a3b16e07647b2ff9","5f648be155127e00087ff78a","false","null","<span style=""color: black; font-size: 48px"">M + N</span>","null","","","","resp_prompt","","","","","","","","","","","","","","","",""
"categorize-image","162","843146","0.0-4.0-1.0-1.14","3hdlgfpgkxrt1gb","prime","5f5cd3d605e4674df915ef5e","5f60e3c0a3b16e07647b2ff9","5f648be155127e00087ff78a","true","858.0000000002328","./Stimuli/SelectedImages/LN/LN150.bmp","76","","","","test","true","M + N","76","repetition","LN","LN150.bmp","remember","","63","3","prime1","right","","","",""
"html-keyboard-response","163","845148","0.0-4.0-1.0-3.14","3hdlgfpgkxrt1gb","prime","5f5cd3d605e4674df915ef5e","5f60e3c0a3b16e07647b2ff9","5f648be155127e00087ff78a","false","null","<div style=""align-items: center; display: flex; color: dodgerblue; font-size: 90px""><b>o</b></div>","null","","","","forget_cue","","","","","","","","","","","","","","","",""
"html-keyboard-response","164","845849","0.0-4.0-1.0-0.15","3hdlgfpgkxrt1gb","prime","5f5cd3d605e4674df915ef5e","5f60e3c0a3b16e07647b2ff9","5f648be155127e00087ff78a","false","null","<span style=""color: black; font-size: 48px"">M + N</span>","null","","","","resp_prompt","","","","","","","","","","","","","","","",""
"categorize-image","165","846538","0.0-4.0-1.0-1.15","3hdlgfpgkxrt1gb","prime","5f5cd3d605e4674df915ef5e","5f60e3c0a3b16e07647b2ff9","5f648be155127e00087ff78a","true","682.0000000006985","./Stimuli/SelectedImages/LM/LM58.bmp","83","","","","test","true","M + N","83","repetition","LM","LM58.bmp","remember","","64","3","prime1","left","","","",""
"html-keyboard-response","166","848539","0.0-4.0-1.0-3.15","3hdlgfpgkxrt1gb","prime","5f5cd3d605e4674df915ef5e","5f60e3c0a3b16e07647b2ff9","5f648be155127e00087ff78a","false","null","<div style=""align-items: center; display: flex; color: dodgerblue; font-size: 90px""><b>o</b></div>","null","","","","forget_cue","","","","","","","","","","","","","","","",""
"html-keyboard-response","167","849240","0.0-4.0-1.0-0.16","3hdlgfpgkxrt1gb","prime","5f5cd3d605e4674df915ef5e","5f60e3c0a3b16e07647b2ff9","5f648be155127e00087ff78a","false","null","<span style=""color: black; font-size: 48px"">N + M</span>","null","","","","resp_prompt","","","","","","","","","","","","","","","",""
"categorize-image","168","850787","0.0-4.0-1.0-1.16","3hdlgfpgkxrt1gb","prime","5f5cd3d605e4674df915ef5e","5f60e3c0a3b16e07647b2ff9","5f648be155127e00087ff78a","true","1540.9999999974389","./Stimuli/SelectedImages/LN/LN42.bmp","83","","","","test","true","N + M","83","repetition","LN","LN42.bmp","forget","","65","3","prime1","left","","","",""
"html-keyboard-response","169","852789","0.0-4.0-1.0-3.16","3hdlgfpgkxrt1gb","prime","5f5cd3d605e4674df915ef5e","5f60e3c0a3b16e07647b2ff9","5f648be155127e00087ff78a","false","null","<div style=""align-items: center; display: flex; color: darkorange; font-size: 90px""><b>ø</b></div>","null","","","","forget_cue","","","","","","","","","","","","","","","",""
"html-keyboard-response","170","853490","0.0-4.0-1.0-0.17","3hdlgfpgkxrt1gb","prime","5f5cd3d605e4674df915ef5e","5f60e3c0a3b16e07647b2ff9","5f648be155127e00087ff78a","false","null","<span style=""color: black; font-size: 48px"">M + N</span>","null","","","","resp_prompt","","","","","","","","","","","","","","","",""
"categorize-image","171","854189","0.0-4.0-1.0-1.17","3hdlgfpgkxrt1gb","prime","5f5cd3d605e4674df915ef5e","5f60e3c0a3b16e07647b2ff9","5f648be155127e00087ff78a","true","690.9999999989523","./Stimuli/SelectedImages/LN/LN12.bmp","76","","","","test","true","M + N","76","switch","LN","LN12.bmp","remember","","66","3","prime1","right","","","",""
"html-keyboard-response","172","856190","0.0-4.0-1.0-3.17","3hdlgfpgkxrt1gb","prime","5f5cd3d605e4674df915ef5e","5f60e3c0a3b16e07647b2ff9","5f648be155127e00087ff78a","false","null","<div style=""align-items: center; display: flex; color: dodgerblue; font-size: 90px""><b>o</b></div>","null","","","","forget_cue","","","","","","","","","","","","","","","",""
"html-keyboard-response","173","856891","0.0-4.0-1.0-0.18","3hdlgfpgkxrt1gb","prime","5f5cd3d605e4674df915ef5e","5f60e3c0a3b16e07647b2ff9","5f648be155127e00087ff78a","false","null","<span style=""color: black; font-size: 48px"">N + M</span>","null","","","","resp_prompt","","","","","","","","","","","","","","","",""
"categorize-image","174","857687","0.0-4.0-1.0-1.18","3hdlgfpgkxrt1gb","prime","5f5cd3d605e4674df915ef5e","5f60e3c0a3b16e07647b2ff9","5f648be155127e00087ff78a","true","788.9999999970896","./Stimuli/SelectedImages/LM/LM103.bmp","76","","","","test","true","N + M","76","repetition","LM","LM103.bmp","remember","","67","3","prime1","right","","","",""
"html-keyboard-response","175","859688","0.0-4.0-1.0-3.18","3hdlgfpgkxrt1gb","prime","5f5cd3d605e4674df915ef5e","5f60e3c0a3b16e07647b2ff9","5f648be155127e00087ff78a","false","null","<div style=""align-items: center; display: flex; color: dodgerblue; font-size: 90px""><b>o</b></div>","null","","","","forget_cue","","","","","","","","","","","","","","","",""
"html-keyboard-response","176","860389","0.0-4.0-1.0-0.19","3hdlgfpgkxrt1gb","prime","5f5cd3d605e4674df915ef5e","5f60e3c0a3b16e07647b2ff9","5f648be155127e00087ff78a","false","null","<span style=""color: black; font-size: 48px"">N + M</span>","null","","","","resp_prompt","","","","","","","","","","","","","","","",""
"categorize-image","177","861084","0.0-4.0-1.0-1.19","3hdlgfpgkxrt1gb","prime","5f5cd3d605e4674df915ef5e","5f60e3c0a3b16e07647b2ff9","5f648be155127e00087ff78a","true","687.9999999946449","./Stimuli/SelectedImages/SN/SN140.bmp","83","","","","test","true","N + M","83","repetition","SN","SN140.bmp","forget","","68","3","prime1","left","","","",""
"html-keyboard-response","178","863085","0.0-4.0-1.0-3.19","3hdlgfpgkxrt1gb","prime","5f5cd3d605e4674df915ef5e","5f60e3c0a3b16e07647b2ff9","5f648be155127e00087ff78a","false","null","<div style=""align-items: center; display: flex; color: darkorange; font-size: 90px""><b>ø</b></div>","null","","","","forget_cue","","","","","","","","","","","","","","","",""
"html-keyboard-response","179","863786","0.0-4.0-1.0-0.20","3hdlgfpgkxrt1gb","prime","5f5cd3d605e4674df915ef5e","5f60e3c0a3b16e07647b2ff9","5f648be155127e00087ff78a","false","null","<span style=""color: black; font-size: 48px"">M + N</span>","null","","","","resp_prompt","","","","","","","","","","","","","","","",""
"categorize-image","180","864821","0.0-4.0-1.0-1.20","3hdlgfpgkxrt1gb","prime","5f5cd3d605e4674df915ef5e","5f60e3c0a3b16e07647b2ff9","5f648be155127e00087ff78a","true","1027.0000000018626","./Stimuli/SelectedImages/LM/LM51.bmp","83","","","","test","true","M + N","83","switch","LM","LM51.bmp","remember","","69","3","prime1","left","","","",""
"html-keyboard-response","181","866822","0.0-4.0-1.0-3.20","3hdlgfpgkxrt1gb","prime","5f5cd3d605e4674df915ef5e","5f60e3c0a3b16e07647b2ff9","5f648be155127e00087ff78a","false","null","<div style=""align-items: center; display: flex; color: dodgerblue; font-size: 90px""><b>o</b></div>","null","","","","forget_cue","","","","","","","","","","","","","","","",""
"html-keyboard-response","182","867523","0.0-4.0-1.0-0.21","3hdlgfpgkxrt1gb","prime","5f5cd3d605e4674df915ef5e","5f60e3c0a3b16e07647b2ff9","5f648be155127e00087ff78a","false","null","<span style=""color: black; font-size: 48px"">M + N</span>","null","","","","resp_prompt","","","","","","","","","","","","","","","",""
"categorize-image","183","868207","0.0-4.0-1.0-1.21","3hdlgfpgkxrt1gb","prime","5f5cd3d605e4674df915ef5e","5f60e3c0a3b16e07647b2ff9","5f648be155127e00087ff78a","true","675.9999999995343","./Stimuli/SelectedImages/LM/LM57.bmp","83","","","","test","true","M + N","83","switch","LM","LM57.bmp","forget","","70","3","prime1","left","","","",""
"html-keyboard-response","184","870208","0.0-4.0-1.0-3.21","3hdlgfpgkxrt1gb","prime","5f5cd3d605e4674df915ef5e","5f60e3c0a3b16e07647b2ff9","5f648be155127e00087ff78a","false","null","<div style=""align-items: center; display: flex; color: darkorange; font-size: 90px""><b>ø</b></div>","null","","","","forget_cue","","","","","","","","","","","","","","","",""
"html-keyboard-response","185","870909","0.0-4.0-1.0-0.22","3hdlgfpgkxrt1gb","prime","5f5cd3d605e4674df915ef5e","5f60e3c0a3b16e07647b2ff9","5f648be155127e00087ff78a","false","null","<span style=""color: black; font-size: 48px"">M + N</span>","null","","","","resp_prompt","","","","","","","","","","","","","","","",""
"categorize-image","186","871536","0.0-4.0-1.0-1.22","3hdlgfpgkxrt1gb","prime","5f5cd3d605e4674df915ef5e","5f60e3c0a3b16e07647b2ff9","5f648be155127e00087ff78a","true","620.9999999990687","./Stimuli/SelectedImages/SN/SN155.bmp","76","","","","test","true","M + N","76","switch","SN","SN155.bmp","remember","","71","3","prime1","right","","","",""
"html-keyboard-response","187","873537","0.0-4.0-1.0-3.22","3hdlgfpgkxrt1gb","prime","5f5cd3d605e4674df915ef5e","5f60e3c0a3b16e07647b2ff9","5f648be155127e00087ff78a","false","null","<div style=""align-items: center; display: flex; color: dodgerblue; font-size: 90px""><b>o</b></div>","null","","","","forget_cue","","","","","","","","","","","","","","","",""
"html-keyboard-response","188","874238","0.0-4.0-1.0-0.23","3hdlgfpgkxrt1gb","prime","5f5cd3d605e4674df915ef5e","5f60e3c0a3b16e07647b2ff9","5f648be155127e00087ff78a","false","null","<span style=""color: black; font-size: 48px"">M + N</span>","null","","","","resp_prompt","","","","","","","","","","","","","","","",""
"categorize-image","189","874969","0.0-4.0-1.0-1.23","3hdlgfpgkxrt1gb","prime","5f5cd3d605e4674df915ef5e","5f60e3c0a3b16e07647b2ff9","5f648be155127e00087ff78a","true","724.0000000019791","./Stimuli/SelectedImages/LN/LN28.bmp","76","","","","test","true","M + N","76","switch","LN","LN28.bmp","forget","","72","3","prime1","right","","","",""
"html-keyboard-response","190","876970","0.0-4.0-1.0-3.23","3hdlgfpgkxrt1gb","prime","5f5cd3d605e4674df915ef5e","5f60e3c0a3b16e07647b2ff9","5f648be155127e00087ff78a","false","null","<div style=""align-items: center; display: flex; color: darkorange; font-size: 90px""><b>ø</b></div>","null","","","","forget_cue","","","","","","","","","","","","","","","",""
"html-keyboard-response","191","877671","0.0-4.0-1.0-0.24","3hdlgfpgkxrt1gb","prime","5f5cd3d605e4674df915ef5e","5f60e3c0a3b16e07647b2ff9","5f648be155127e00087ff78a","false","null","<span style=""color: black; font-size: 48px"">N + M</span>","null","","","","resp_prompt","","","","","","","","","","","","","","","",""
"categorize-image","192","878416","0.0-4.0-1.0-1.24","3hdlgfpgkxrt1gb","prime","5f5cd3d605e4674df915ef5e","5f60e3c0a3b16e07647b2ff9","5f648be155127e00087ff78a","true","737.0000000009313","./Stimuli/SelectedImages/SN/SN182.bmp","83","","","","test","true","N + M","83","switch","SN","SN182.bmp","forget","","73","3","prime1","left","","","",""
"html-keyboard-response","193","880417","0.0-4.0-1.0-3.24","3hdlgfpgkxrt1gb","prime","5f5cd3d605e4674df915ef5e","5f60e3c0a3b16e07647b2ff9","5f648be155127e00087ff78a","false","null","<div style=""align-items: center; display: flex; color: darkorange; font-size: 90px""><b>ø</b></div>","null","","","","forget_cue","","","","","","","","","","","","","","","",""
"html-keyboard-response","194","881118","0.0-4.0-1.0-0.25","3hdlgfpgkxrt1gb","prime","5f5cd3d605e4674df915ef5e","5f60e3c0a3b16e07647b2ff9","5f648be155127e00087ff78a","false","null","<span style=""color: black; font-size: 48px"">M + N</span>","null","","","","resp_prompt","","","","","","","","","","","","","","","",""
"categorize-image","195","881992","0.0-4.0-1.0-1.25","3hdlgfpgkxrt1gb","prime","5f5cd3d605e4674df915ef5e","5f60e3c0a3b16e07647b2ff9","5f648be155127e00087ff78a","true","868.0000000022119","./Stimuli/SelectedImages/SM/SM17.bmp","83","","","","test","true","M + N","83","repetition","SM","SM17.bmp","forget","","74","3","prime1","left","","","",""
"html-keyboard-response","196","883993","0.0-4.0-1.0-3.25","3hdlgfpgkxrt1gb","prime","5f5cd3d605e4674df915ef5e","5f60e3c0a3b16e07647b2ff9","5f648be155127e00087ff78a","false","null","<div style=""align-items: center; display: flex; color: darkorange; font-size: 90px""><b>ø</b></div>","null","","","","forget_cue","","","","","","","","","","","","","","","",""
"html-keyboard-response","197","884694","0.0-4.0-1.0-0.26","3hdlgfpgkxrt1gb","prime","5f5cd3d605e4674df915ef5e","5f60e3c0a3b16e07647b2ff9","5f648be155127e00087ff78a","false","null","<span style=""color: black; font-size: 48px"">M + N</span>","null","","","","resp_prompt","","","","","","","","","","","","","","","",""
"categorize-image","198","885585","0.0-4.0-1.0-1.26","3hdlgfpgkxrt1gb","prime","5f5cd3d605e4674df915ef5e","5f60e3c0a3b16e07647b2ff9","5f648be155127e00087ff78a","true","883.0000000016298","./Stimuli/SelectedImages/SM/SM73.bmp","83","","","","test","true","M + N","83","repetition","SM","SM73.bmp","remember","","75","3","prime1","left","","","",""
"html-keyboard-response","199","887587","0.0-4.0-1.0-3.26","3hdlgfpgkxrt1gb","prime","5f5cd3d605e4674df915ef5e","5f60e3c0a3b16e07647b2ff9","5f648be155127e00087ff78a","false","null","<div style=""align-items: center; display: flex; color: dodgerblue; font-size: 90px""><b>o</b></div>","null","","","","forget_cue","","","","","","","","","","","","","","","",""
"html-keyboard-response","200","888289","0.0-4.0-1.0-0.27","3hdlgfpgkxrt1gb","prime","5f5cd3d605e4674df915ef5e","5f60e3c0a3b16e07647b2ff9","5f648be155127e00087ff78a","false","null","<span style=""color: black; font-size: 48px"">M + N</span>","null","","","","resp_prompt","","","","","","","","","","","","","","","",""
"categorize-image","201","888979","0.0-4.0-1.0-1.27","3hdlgfpgkxrt1gb","prime","5f5cd3d605e4674df915ef5e","5f60e3c0a3b16e07647b2ff9","5f648be155127e00087ff78a","true","684.0000000010477","./Stimuli/SelectedImages/SN/SN49.bmp","76","","","","test","true","M + N","76","repetition","SN","SN49.bmp","remember","","76","3","prime1","right","","","",""
"html-keyboard-response","202","890980","0.0-4.0-1.0-3.27","3hdlgfpgkxrt1gb","prime","5f5cd3d605e4674df915ef5e","5f60e3c0a3b16e07647b2ff9","5f648be155127e00087ff78a","false","null","<div style=""align-items: center; display: flex; color: dodgerblue; font-size: 90px""><b>o</b></div>","null","","","","forget_cue","","","","","","","","","","","","","","","",""
"html-keyboard-response","203","891681","0.0-4.0-1.0-0.28","3hdlgfpgkxrt1gb","prime","5f5cd3d605e4674df915ef5e","5f60e3c0a3b16e07647b2ff9","5f648be155127e00087ff78a","false","null","<span style=""color: black; font-size: 48px"">M + N</span>","null","","","","resp_prompt","","","","","","","","","","","","","","","",""
"categorize-image","204","892482","0.0-4.0-1.0-1.28","3hdlgfpgkxrt1gb","prime","5f5cd3d605e4674df915ef5e","5f60e3c0a3b16e07647b2ff9","5f648be155127e00087ff78a","true","792.9999999977881","./Stimuli/SelectedImages/SM/SM76.bmp","83","","","","test","true","M + N","83","switch","SM","SM76.bmp","forget","","77","3","prime1","left","","","",""
"html-keyboard-response","205","894483","0.0-4.0-1.0-3.28","3hdlgfpgkxrt1gb","prime","5f5cd3d605e4674df915ef5e","5f60e3c0a3b16e07647b2ff9","5f648be155127e00087ff78a","false","null","<div style=""align-items: center; display: flex; color: darkorange; font-size: 90px""><b>ø</b></div>","null","","","","forget_cue","","","","","","","","","","","","","","","",""
"html-keyboard-response","206","895184","0.0-4.0-1.0-0.29","3hdlgfpgkxrt1gb","prime","5f5cd3d605e4674df915ef5e","5f60e3c0a3b16e07647b2ff9","5f648be155127e00087ff78a","false","null","<span style=""color: black; font-size: 48px"">N + M</span>","null","","","","resp_prompt","","","","","","","","","","","","","","","",""
"categorize-image","207","896021","0.0-4.0-1.0-1.29","3hdlgfpgkxrt1gb","prime","5f5cd3d605e4674df915ef5e","5f60e3c0a3b16e07647b2ff9","5f648be155127e00087ff78a","true","831.0000000055879","./Stimuli/SelectedImages/SM/SM106.bmp","76","","","","test","true","N + M","76","switch","SM","SM106.bmp","forget","","78","3","prime1","right","","","",""
"html-keyboard-response","208","898022","0.0-4.0-1.0-3.29","3hdlgfpgkxrt1gb","prime","5f5cd3d605e4674df915ef5e","5f60e3c0a3b16e07647b2ff9","5f648be155127e00087ff78a","false","null","<div style=""align-items: center; display: flex; color: darkorange; font-size: 90px""><b>ø</b></div>","null","","","","forget_cue","","","","","","","","","","","","","","","",""
"html-keyboard-response","209","898723","0.0-4.0-1.0-0.30","3hdlgfpgkxrt1gb","prime","5f5cd3d605e4674df915ef5e","5f60e3c0a3b16e07647b2ff9","5f648be155127e00087ff78a","false","null","<span style=""color: black; font-size: 48px"">N + M</span>","null","","","","resp_prompt","","","","","","","","","","","","","","","",""
"categorize-image","210","899540","0.0-4.0-1.0-1.30","3hdlgfpgkxrt1gb","prime","5f5cd3d605e4674df915ef5e","5f60e3c0a3b16e07647b2ff9","5f648be155127e00087ff78a","true","809.0000000011642","./Stimuli/SelectedImages/LN/LN111.bmp","83","","","","test","true","N + M","83","switch","LN","LN111.bmp","forget","","79","3","prime1","left","","","",""
"html-keyboard-response","211","901541","0.0-4.0-1.0-3.30","3hdlgfpgkxrt1gb","prime","5f5cd3d605e4674df915ef5e","5f60e3c0a3b16e07647b2ff9","5f648be155127e00087ff78a","false","null","<div style=""align-items: center; display: flex; color: darkorange; font-size: 90px""><b>ø</b></div>","null","","","","forget_cue","","","","","","","","","","","","","","","",""
"html-keyboard-response","212","902242","0.0-4.0-1.0-0.31","3hdlgfpgkxrt1gb","prime","5f5cd3d605e4674df915ef5e","5f60e3c0a3b16e07647b2ff9","5f648be155127e00087ff78a","false","null","<span style=""color: black; font-size: 48px"">M + N</span>","null","","","","resp_prompt","","","","","","","","","","","","","","","",""
"categorize-image","213","902900","0.0-4.0-1.0-1.31","3hdlgfpgkxrt1gb","prime","5f5cd3d605e4674df915ef5e","5f60e3c0a3b16e07647b2ff9","5f648be155127e00087ff78a","true","650.9999999980209","./Stimuli/SelectedImages/LM/LM179.bmp","83","","","","test","true","M + N","83","switch","LM","LM179.bmp","forget","","80","3","prime1","left","","","",""
"html-keyboard-response","214","904901","0.0-4.0-1.0-3.31","3hdlgfpgkxrt1gb","prime","5f5cd3d605e4674df915ef5e","5f60e3c0a3b16e07647b2ff9","5f648be155127e00087ff78a","false","null","<div style=""align-items: center; display: flex; color: darkorange; font-size: 90px""><b>ø</b></div>","null","","","","forget_cue","","","","","","","","","","","","","","","",""
"html-keyboard-response","215","905602","0.0-4.0-1.0-0.32","3hdlgfpgkxrt1gb","prime","5f5cd3d605e4674df915ef5e","5f60e3c0a3b16e07647b2ff9","5f648be155127e00087ff78a","false","null","<span style=""color: black; font-size: 48px"">N + M</span>","null","","","","resp_prompt","","","","","","","","","","","","","","","",""
"categorize-image","216","906375","0.0-4.0-1.0-1.32","3hdlgfpgkxrt1gb","prime","5f5cd3d605e4674df915ef5e","5f60e3c0a3b16e07647b2ff9","5f648be155127e00087ff78a","true","764.9999999994179","./Stimuli/SelectedImages/SM/SM184.bmp","76","","","","test","true","N + M","76","repetition","SM","SM184.bmp","forget","","81","3","prime1","right","","","",""
"html-keyboard-response","217","908377","0.0-4.0-1.0-3.32","3hdlgfpgkxrt1gb","prime","5f5cd3d605e4674df915ef5e","5f60e3c0a3b16e07647b2ff9","5f648be155127e00087ff78a","false","null","<div style=""align-items: center; display: flex; color: darkorange; font-size: 90px""><b>ø</b></div>","null","","","","forget_cue","","","","","","","","","","","","","","","",""
"html-keyboard-response","218","909078","0.0-4.0-1.0-0.33","3hdlgfpgkxrt1gb","prime","5f5cd3d605e4674df915ef5e","5f60e3c0a3b16e07647b2ff9","5f648be155127e00087ff78a","false","null","<span style=""color: black; font-size: 48px"">N + M</span>","null","","","","resp_prompt","","","","","","","","","","","","","","","",""
"categorize-image","219","909812","0.0-4.0-1.0-1.33","3hdlgfpgkxrt1gb","prime","5f5cd3d605e4674df915ef5e","5f60e3c0a3b16e07647b2ff9","5f648be155127e00087ff78a","true","730.0000000031432","./Stimuli/SelectedImages/LN/LN9.bmp","83","","","","test","true","N + M","83","repetition","LN","LN9.bmp","remember","","82","3","prime1","left","","","",""
"html-keyboard-response","220","911813","0.0-4.0-1.0-3.33","3hdlgfpgkxrt1gb","prime","5f5cd3d605e4674df915ef5e","5f60e3c0a3b16e07647b2ff9","5f648be155127e00087ff78a","false","null","<div style=""align-items: center; display: flex; color: dodgerblue; font-size: 90px""><b>o</b></div>","null","","","","forget_cue","","","","","","","","","","","","","","","",""
"html-keyboard-response","221","912514","0.0-4.0-1.0-0.34","3hdlgfpgkxrt1gb","prime","5f5cd3d605e4674df915ef5e","5f60e3c0a3b16e07647b2ff9","5f648be155127e00087ff78a","false","null","<span style=""color: black; font-size: 48px"">N + M</span>","null","","","","resp_prompt","","","","","","","","","","","","","","","",""
"categorize-image","222","913480","0.0-4.0-1.0-1.34","3hdlgfpgkxrt1gb","prime","5f5cd3d605e4674df915ef5e","5f60e3c0a3b16e07647b2ff9","5f648be155127e00087ff78a","true","957.9999999987194","./Stimuli/SelectedImages/SM/SM213.bmp","76","","","","test","true","N + M","76","repetition","SM","SM213.bmp","remember","","83","3","prime1","right","","","",""
"html-keyboard-response","223","915481","0.0-4.0-1.0-3.34","3hdlgfpgkxrt1gb","prime","5f5cd3d605e4674df915ef5e","5f60e3c0a3b16e07647b2ff9","5f648be155127e00087ff78a","false","null","<div style=""align-items: center; display: flex; color: dodgerblue; font-size: 90px""><b>o</b></div>","null","","","","forget_cue","","","","","","","","","","","","","","","",""
"html-keyboard-response","224","916182","0.0-4.0-1.0-0.35","3hdlgfpgkxrt1gb","prime","5f5cd3d605e4674df915ef5e","5f60e3c0a3b16e07647b2ff9","5f648be155127e00087ff78a","false","null","<span style=""color: black; font-size: 48px"">N + M</span>","null","","","","resp_prompt","","","","","","","","","","","","","","","",""
"categorize-image","225","916785","0.0-4.0-1.0-1.35","3hdlgfpgkxrt1gb","prime","5f5cd3d605e4674df915ef5e","5f60e3c0a3b16e07647b2ff9","5f648be155127e00087ff78a","true","595.9999999977881","./Stimuli/SelectedImages/SM/SM207.bmp","76","","","","test","true","N + M","76","switch","SM","SM207.bmp","remember","","84","3","prime1","right","","","",""
"html-keyboard-response","226","918786","0.0-4.0-1.0-3.35","3hdlgfpgkxrt1gb","prime","5f5cd3d605e4674df915ef5e","5f60e3c0a3b16e07647b2ff9","5f648be155127e00087ff78a","false","null","<div style=""align-items: center; display: flex; color: dodgerblue; font-size: 90px""><b>o</b></div>","null","","","","forget_cue","","","","","","","","","","","","","","","",""
"html-keyboard-response","227","919487","0.0-4.0-1.0-0.36","3hdlgfpgkxrt1gb","prime","5f5cd3d605e4674df915ef5e","5f60e3c0a3b16e07647b2ff9","5f648be155127e00087ff78a","false","null","<span style=""color: black; font-size: 48px"">N + M</span>","null","","","","resp_prompt","","","","","","","","","","","","","","","",""
"categorize-image","228","920138","0.0-4.0-1.0-1.36","3hdlgfpgkxrt1gb","prime","5f5cd3d605e4674df915ef5e","5f60e3c0a3b16e07647b2ff9","5f648be155127e00087ff78a","true","645.000000004191","./Stimuli/SelectedImages/SM/SM24.bmp","76","","","","test","true","N + M","76","switch","SM","SM24.bmp","forget","","85","3","prime1","right","","","",""
"html-keyboard-response","229","922141","0.0-4.0-1.0-3.36","3hdlgfpgkxrt1gb","prime","5f5cd3d605e4674df915ef5e","5f60e3c0a3b16e07647b2ff9","5f648be155127e00087ff78a","false","null","<div style=""align-items: center; display: flex; color: darkorange; font-size: 90px""><b>ø</b></div>","null","","","","forget_cue","","","","","","","","","","","","","","","",""
"html-keyboard-response","230","922842","0.0-4.0-1.0-0.37","3hdlgfpgkxrt1gb","prime","5f5cd3d605e4674df915ef5e","5f60e3c0a3b16e07647b2ff9","5f648be155127e00087ff78a","false","null","<span style=""color: black; font-size: 48px"">M + N</span>","null","","","","resp_prompt","","","","","","","","","","","","","","","",""
"categorize-image","231","923643","0.0-4.0-1.0-1.37","3hdlgfpgkxrt1gb","prime","5f5cd3d605e4674df915ef5e","5f60e3c0a3b16e07647b2ff9","5f648be155127e00087ff78a","true","792.0000000011642","./Stimuli/SelectedImages/LN/LN92.bmp","76","","","","test","true","M + N","76","repetition","LN","LN92.bmp","remember","","86","3","prime1","right","","","",""
"html-keyboard-response","232","925644","0.0-4.0-1.0-3.37","3hdlgfpgkxrt1gb","prime","5f5cd3d605e4674df915ef5e","5f60e3c0a3b16e07647b2ff9","5f648be155127e00087ff78a","false","null","<div style=""align-items: center; display: flex; color: dodgerblue; font-size: 90px""><b>o</b></div>","null","","","","forget_cue","","","","","","","","","","","","","","","",""
"html-keyboard-response","233","926346","0.0-4.0-1.0-0.38","3hdlgfpgkxrt1gb","prime","5f5cd3d605e4674df915ef5e","5f60e3c0a3b16e07647b2ff9","5f648be155127e00087ff78a","false","null","<span style=""color: black; font-size: 48px"">N + M</span>","null","","","","resp_prompt","","","","","","","","","","","","","","","",""
"categorize-image","234","927242","0.0-4.0-1.0-1.38","3hdlgfpgkxrt1gb","prime","5f5cd3d605e4674df915ef5e","5f60e3c0a3b16e07647b2ff9","5f648be155127e00087ff78a","true","889.000000002794","./Stimuli/SelectedImages/LM/LM157.bmp","76","","","","test","true","N + M","76","switch","LM","LM157.bmp","remember","","87","3","prime1","right","","","",""
"html-keyboard-response","235","929244","0.0-4.0-1.0-3.38","3hdlgfpgkxrt1gb","prime","5f5cd3d605e4674df915ef5e","5f60e3c0a3b16e07647b2ff9","5f648be155127e00087ff78a","false","null","<div style=""align-items: center; display: flex; color: dodgerblue; font-size: 90px""><b>o</b></div>","null","","","","forget_cue","","","","","","","","","","","","","","","",""
"html-keyboard-response","236","929945","0.0-4.0-1.0-0.39","3hdlgfpgkxrt1gb","prime","5f5cd3d605e4674df915ef5e","5f60e3c0a3b16e07647b2ff9","5f648be155127e00087ff78a","false","null","<span style=""color: black; font-size: 48px"">M + N</span>","null","","","","resp_prompt","","","","","","","","","","","","","","","",""
"categorize-image","237","930588","0.0-4.0-1.0-1.39","3hdlgfpgkxrt1gb","prime","5f5cd3d605e4674df915ef5e","5f60e3c0a3b16e07647b2ff9","5f648be155127e00087ff78a","true","635.999999998603","./Stimuli/SelectedImages/SN/SN93.bmp","76","","","","test","true","M + N","76","switch","SN","SN93.bmp","forget","","88","3","prime1","right","","","",""
"html-keyboard-response","238","932589","0.0-4.0-1.0-3.39","3hdlgfpgkxrt1gb","prime","5f5cd3d605e4674df915ef5e","5f60e3c0a3b16e07647b2ff9","5f648be155127e00087ff78a","false","null","<div style=""align-items: center; display: flex; color: darkorange; font-size: 90px""><b>ø</b></div>","null","","","","forget_cue","","","","","","","","","","","","","","","",""
"html-keyboard-response","239","933290","0.0-4.0-1.0-0.40","3hdlgfpgkxrt1gb","prime","5f5cd3d605e4674df915ef5e","5f60e3c0a3b16e07647b2ff9","5f648be155127e00087ff78a","false","null","<span style=""color: black; font-size: 48px"">M + N</span>","null","","","","resp_prompt","","","","","","","","","","","","","","","",""
"categorize-image","240","934140","0.0-4.0-1.0-1.40","3hdlgfpgkxrt1gb","prime","5f5cd3d605e4674df915ef5e","5f60e3c0a3b16e07647b2ff9","5f648be155127e00087ff78a","true","844.0000000045402","./Stimuli/SelectedImages/LN/LN13.bmp","76","","","","test","true","M + N","76","repetition","LN","LN13.bmp","forget","","89","3","prime1","right","","","",""
"html-keyboard-response","241","936142","0.0-4.0-1.0-3.40","3hdlgfpgkxrt1gb","prime","5f5cd3d605e4674df915ef5e","5f60e3c0a3b16e07647b2ff9","5f648be155127e00087ff78a","false","null","<div style=""align-items: center; display: flex; color: darkorange; font-size: 90px""><b>ø</b></div>","null","","","","forget_cue","","","","","","","","","","","","","","","",""
"html-keyboard-response","242","936843","0.0-4.0-1.0-0.41","3hdlgfpgkxrt1gb","prime","5f5cd3d605e4674df915ef5e","5f60e3c0a3b16e07647b2ff9","5f648be155127e00087ff78a","false","null","<span style=""color: black; font-size: 48px"">N + M</span>","null","","","","resp_prompt","","","","","","","","","","","","","","","",""
"categorize-image","243","937626","0.0-4.0-1.0-1.41","3hdlgfpgkxrt1gb","prime","5f5cd3d605e4674df915ef5e","5f60e3c0a3b16e07647b2ff9","5f648be155127e00087ff78a","true","775.000000001397","./Stimuli/SelectedImages/SN/SN128.bmp","83","","","","test","true","N + M","83","switch","SN","SN128.bmp","remember","","90","3","prime1","left","","","",""
"html-keyboard-response","244","939628","0.0-4.0-1.0-3.41","3hdlgfpgkxrt1gb","prime","5f5cd3d605e4674df915ef5e","5f60e3c0a3b16e07647b2ff9","5f648be155127e00087ff78a","false","null","<div style=""align-items: center; display: flex; color: dodgerblue; font-size: 90px""><b>o</b></div>","null","","","","forget_cue","","","","","","","","","","","","","","","",""
"html-keyboard-response","245","940330","0.0-4.0-1.0-0.42","3hdlgfpgkxrt1gb","prime","5f5cd3d605e4674df915ef5e","5f60e3c0a3b16e07647b2ff9","5f648be155127e00087ff78a","false","null","<span style=""color: black; font-size: 48px"">N + M</span>","null","","","","resp_prompt","","","","","","","","","","","","","","","",""
"categorize-image","246","940998","0.0-4.0-1.0-1.42","3hdlgfpgkxrt1gb","prime","5f5cd3d605e4674df915ef5e","5f60e3c0a3b16e07647b2ff9","5f648be155127e00087ff78a","true","660.0000000034925","./Stimuli/SelectedImages/LM/LM235.bmp","76","","","","test","true","N + M","76","repetition","LM","LM235.bmp","forget","","91","3","prime1","right","","","",""
"html-keyboard-response","247","942999","0.0-4.0-1.0-3.42","3hdlgfpgkxrt1gb","prime","5f5cd3d605e4674df915ef5e","5f60e3c0a3b16e07647b2ff9","5f648be155127e00087ff78a","false","null","<div style=""align-items: center; display: flex; color: darkorange; font-size: 90px""><b>ø</b></div>","null","","","","forget_cue","","","","","","","","","","","","","","","",""
"html-keyboard-response","248","943700","0.0-4.0-1.0-0.43","3hdlgfpgkxrt1gb","prime","5f5cd3d605e4674df915ef5e","5f60e3c0a3b16e07647b2ff9","5f648be155127e00087ff78a","false","null","<span style=""color: black; font-size: 48px"">M + N</span>","null","","","","resp_prompt","","","","","","","","","","","","","","","",""
"categorize-image","249","944755","0.0-4.0-1.0-1.43","3hdlgfpgkxrt1gb","prime","5f5cd3d605e4674df915ef5e","5f60e3c0a3b16e07647b2ff9","5f648be155127e00087ff78a","true","1046.9999999987194","./Stimuli/SelectedImages/SM/SM195.bmp","83","","","","test","true","M + N","83","switch","SM","SM195.bmp","forget","","92","3","prime1","left","","","",""
"html-keyboard-response","250","946756","0.0-4.0-1.0-3.43","3hdlgfpgkxrt1gb","prime","5f5cd3d605e4674df915ef5e","5f60e3c0a3b16e07647b2ff9","5f648be155127e00087ff78a","false","null","<div style=""align-items: center; display: flex; color: darkorange; font-size: 90px""><b>ø</b></div>","null","","","","forget_cue","","","","","","","","","","","","","","","",""
"html-keyboard-response","251","947457","0.0-4.0-1.0-0.44","3hdlgfpgkxrt1gb","prime","5f5cd3d605e4674df915ef5e","5f60e3c0a3b16e07647b2ff9","5f648be155127e00087ff78a","false","null","<span style=""color: black; font-size: 48px"">M + N</span>","null","","","","resp_prompt","","","","","","","","","","","","","","","",""
"categorize-image","252","948166","0.0-4.0-1.0-1.44","3hdlgfpgkxrt1gb","prime","5f5cd3d605e4674df915ef5e","5f60e3c0a3b16e07647b2ff9","5f648be155127e00087ff78a","true","703.000000001397","./Stimuli/SelectedImages/LN/LN101.bmp","76","","","","test","true","M + N","76","switch","LN","LN101.bmp","remember","","93","3","prime1","right","","","",""
