"trial_type","trial_index","time_elapsed","internal_node_id","subject","exp_part","prolific_PID","study_ID","session_ID","use","rt","stimulus","key_press","button_pressed","responses","question_order","trial_part","correct","resp_map","correct_resp","probe_condition","category","image","forget_condition","list","trial_num","block_num","block","response","test_part","n_span","sequence","num_spaces"
"pavlovia","0","8","0.0-0.0","supvfjjr1yr6smw","","5ee379c2c1832e050bac5c14","5f60e3c0a3b16e07647b2ff9","5f61dbf3937bc11866ea51cf","false","","","","","","","","","","","","","","","","","","","","","","",""
"html-keyboard-response","1","18575","0.0-1.0-0.0-0.0","supvfjjr1yr6smw","welcome","5ee379c2c1832e050bac5c14","5f60e3c0a3b16e07647b2ff9","5f61dbf3937bc11866ea51cf","false","18565","<div align=left>Dear participant, <br> thank you for participating in an online study of the Cognition, Action, and Sustainability Unit of the University of Freiburg! <br> <br>The aim of this study is to examine our ability to remember previously learned information. <br>Our goal is to find out, whether our memory improves, when we only remember information that is relevant to us. <br>The experiment will take about 35 minutes to complete. <br> <br>Please, note that you can only participate in this study if you are using a device with a keyboard (PC, Laptop etc.) <br>and not if you are using a mobile device such as a tablet or smartphone.<br> <br>Press 'SPACE' to proceed to the experiment. </div>","32","","","","","","","","","","","","","","","","","","","",""
"html-keyboard-response","2","42238","0.0-1.0-0.0-1.0","supvfjjr1yr6smw","welcome","5ee379c2c1832e050bac5c14","5f60e3c0a3b16e07647b2ff9","5f61dbf3937bc11866ea51cf","false","23660","<div align=left><strong> Time Course of this experiment: </strong> <br><br> <strong> 1.</strong>  First, please fill in some information regarding your demographic data. <br><br> <strong> 2.</strong>  Next, your task will be to classify everyday objects. <br>In addition, you will be asked to remember certain objects and recall them later. <br>Working on these tasks requires your undivided attention and concentration.<br>It is therefore essential that you eliminate any sources of distraction in your  <br>environment and ensure that you will not be disturbed. <br><br><strong> 3.</strong>  At the end of the experiment, you will be asked to answer a few additional questions. <br> <br><strong> Important:</strong> After finishing the experiment, only close the browser window <br> by clicking on the 'end the experiment'-button when you are asked to do so. <br>Closing the browser window prematurely will make the allocation of your participation credit impossible. <br><br> Press 'SPACE' to start the experiment. </div>","32","","","","","","","","","","","","","","","","","","","",""
"html-button-response","3","52102","0.0-1.0-0.0-2.0","supvfjjr1yr6smw","welcome","5ee379c2c1832e050bac5c14","5f60e3c0a3b16e07647b2ff9","5f61dbf3937bc11866ea51cf","true","9859","<div align=left><strong> Informed consent </strong>  <br>The aim of our research is to better understand human behavior and mental processes. <br>In the following study your behavior (e.g. choices, reaction times) will be studied. <br> <br><strong> Voluntariness and Anonymity </strong> <br>Your participation in this study is  <strong> voluntary</strong>.<br>You may withdraw your consent to participate at any time without providing a reason for doing so and without fear of prejudice. <br><br>As no personal data will be collected, <strong>your data and your person cannot be connected after data collection</strong> – the data-set is anonymous. <br>Respectively, deletion of your data will not be possible after data collection has been completed, as we cannot retrace your data-set.<br>The results and anonymized data collected in this study will be published as a scientific publication. <br>This will happen in an <strong>anonymized format</strong>, so that no data can be traced back to a specific person. <br> <br>The anonymized data of this study will be made available to other researchers and/or in a data archive on the Internet as a means of transparency and to enable subsequent re-use. By doing so, this study follows the recommendations of the Deutsche Forschungsgemeinschaft (DFG, German Research Foundation) and Deutsche Gesellschaft für Psychologie (DGPS, German Psychological Society) regarding quality assurance in research.<br>If you have any questions now or after the experiment, please contact our team (experiments@cs.uni-freiburg.de).<br><br><br>I hereby declare, that I understand the above described conditions of participation and I agree to participate under these conditions. <br><br> </div>","","0","","","","","","","","","","","","","","","","","","",""
"html-keyboard-response","4","233221","0.0-1.0-0.0-3.0","supvfjjr1yr6smw","welcome","5ee379c2c1832e050bac5c14","5f60e3c0a3b16e07647b2ff9","5f61dbf3937bc11866ea51cf","false","181115","<div align=left><strong> General information concerning the experiment </strong>  <br> <br>Please follow the instructions:<ol> <li><strong> Do not leave this tab (your browser window) during the experiment and do not reload this tab! </strong>  <br>If you do switch tabs/windows during the experiment (to check your mail or visit another website, for example), <br>the experiment will end automatically and you will <strong>not receive credit</strong> for your participation. <br>Repeated participation or resumption of the experiment is impossible.</li> <br><li>Please close all other programs for the duration of your participation. </li> <br><li>Please mute or turn off your phone and put it out of your reach. </li> <br><li>Please also take off any disturbing accessories (such as wristwatches, bracelets, etc.). </li> <br><li>If you have music playing in the background, please turn it off now. </li> <br></ol>Thank you! <br>Press 'SPACE' to continue. </div>","32","","","","","","","","","","","","","","","","","","","",""
"survey-text","5","236971","0.0-1.0-1.0-0.0","supvfjjr1yr6smw","demographics","5ee379c2c1832e050bac5c14","5f60e3c0a3b16e07647b2ff9","5f61dbf3937bc11866ea51cf","true","3740","","","","{""age"":""36""}","","","","","","","","","","","","","","","","","",""
"survey-multi-choice","6","255301","0.0-1.0-1.0-1.0","supvfjjr1yr6smw","demographics","5ee379c2c1832e050bac5c14","5f60e3c0a3b16e07647b2ff9","5f61dbf3937bc11866ea51cf","true","18325","","","","{""gender"":""male"",""school"":""high school"",""education"":""High school graduate, diploma or equivalent""}","[0,1,2]","","","","","","","","","","","","","","","","",""
"html-keyboard-response","7","271648","0.0-1.0-2.0","supvfjjr1yr6smw","instructions","5ee379c2c1832e050bac5c14","5f60e3c0a3b16e07647b2ff9","5f61dbf3937bc11866ea51cf","false","16343","<div align=left> The experiment is now about to start: <br> <br>In the following part, you will be presented pictures of everyday objects. <br>Your first task is to <strong>classify these objects. </strong> <br> <br> You will classify them either as mechanical or non-mechanical objects. <br> <br>Objects that include any kind of technical mechanism (for example, wheels, switches, levers, <br> electronic components) fall under the category of <strong>mechanical</strong> objects. <br>Only objects without any kind of technical mechanism should be classified as <strong>non-mechanical</strong>. <br><br>Press 'SPACE' to continue. </div>","32","","","","","","","","","","","","","","","","","","","",""
"html-keyboard-response","8","329337","0.0-2.0-0.0","supvfjjr1yr6smw","instructions","5ee379c2c1832e050bac5c14","5f60e3c0a3b16e07647b2ff9","5f61dbf3937bc11866ea51cf","false","57686","<div align=justify>You will classify the objects using the <strong>'S'</strong> and the <strong>'L'</strong> keys on your keyboard.<br>For doing so, please place your <strong>left index finger</strong> on the <strong>'S'</strong> key and place your <strong>right index finger</strong> on the <strong>'L'</strong> key. <br><br> Each trial starts with an instruction, indicating which key ('S'/'L') you need to press to classify <br>the object as mechanical (letter M) or non-mechanical (letter N).<br>The instruction <strong>M + N</strong> indicates that, in the current trial, by pressing the left key ('S') you classify the displayed object as mechanical (M) <br> and by pressing the right key ('L') you classify the object as non-mechanical (N). <br>The instruction <strong>N + M</strong> on the other hand indicates that by pressing the left key ('S') you classify the displayed object as non-mechanical (N) <br> and by pressing the right key ('L') you classify the object as mechanical (M). <br><br>Please press the key corresponding to the correct classification as fast as possible as soon as the object is displayed and try to avoid making mistakes.<br>If you do not respond within a 2 second window, a corresponding feedback will be displayed and the next trial will start.<br> The experiment is divided into multiple blocks to give you the opportunity to take a break after each block. <br>First, you can now practice this task. <br><br>Please place your <strong>LEFT INDEX FINGER</strong> on the 'S' key and your <strong>RIGHT INDEX FINGER</strong> on the 'L' key now. <br><br>Press SPACE to continue.</div>","32","","","","","","","","","","","","","","","","","","","",""
"html-keyboard-response","9","339507","0.0-2.0-1.0","supvfjjr1yr6smw","instructions","5ee379c2c1832e050bac5c14","5f60e3c0a3b16e07647b2ff9","5f61dbf3937bc11866ea51cf","false","10168","<div align=left> You will now have time to practice this task.<br><br>Remember: <br> <br><li>Please place your index fingers on the <strong>'S'</strong> and <strong>'L'</strong> keys <br>to respond as fast and accurately as possible.</li><li>Every picture can be classified as either mechanical or non-mechanical.</li><li>If you do not respond in time or commit an error, you will receive a corresponding feedback. </li><li> Please try to respond as <strong> fast </strong> and as <strong> accurately as possible </strong> .<br><li>To ensure optimal results, please minimize distractions and stay focused. </li><br><br>Press SPACE to continue.</div>","32","","","","","","","","","","","","","","","","","","","",""
"html-keyboard-response","10","340212","0.0-2.0-2.0-0.0","supvfjjr1yr6smw","practice_no_cue","5ee379c2c1832e050bac5c14","5f60e3c0a3b16e07647b2ff9","5f61dbf3937bc11866ea51cf","false","null","<span style=""color: black; font-size: 48px"">M + N</span>","null","","","","resp_prompt","","","","","","","","","","","","","","","",""
"categorize-image","11","341556","0.0-2.0-2.0-1.0","supvfjjr1yr6smw","practice_no_cue","5ee379c2c1832e050bac5c14","5f60e3c0a3b16e07647b2ff9","5f61dbf3937bc11866ea51cf","true","839","./Stimuli/ImagesPractice/SN220.jpg","76","","","","test","true","M + N","76","","SN","SN220.jpg","remember","old","1","1","start","right","","","",""
"html-keyboard-response","12","342257","0.0-2.0-2.0-0.1","supvfjjr1yr6smw","practice_no_cue","5ee379c2c1832e050bac5c14","5f60e3c0a3b16e07647b2ff9","5f61dbf3937bc11866ea51cf","false","null","<span style=""color: black; font-size: 48px"">N + M</span>","null","","","","resp_prompt","","","","","","","","","","","","","","","",""
"categorize-image","13","343735","0.0-2.0-2.0-1.1","supvfjjr1yr6smw","practice_no_cue","5ee379c2c1832e050bac5c14","5f60e3c0a3b16e07647b2ff9","5f61dbf3937bc11866ea51cf","true","973","./Stimuli/ImagesPractice/LM143.jpg","76","","","","test","true","N + M","76","","LM","LM143.jpg","remember","old","2","1","start","right","","","",""
"html-keyboard-response","14","344438","0.0-2.0-2.0-0.2","supvfjjr1yr6smw","practice_no_cue","5ee379c2c1832e050bac5c14","5f60e3c0a3b16e07647b2ff9","5f61dbf3937bc11866ea51cf","false","null","<span style=""color: black; font-size: 48px"">M + N</span>","null","","","","resp_prompt","","","","","","","","","","","","","","","",""
"categorize-image","15","345787","0.0-2.0-2.0-1.2","supvfjjr1yr6smw","practice_no_cue","5ee379c2c1832e050bac5c14","5f60e3c0a3b16e07647b2ff9","5f61dbf3937bc11866ea51cf","true","846","./Stimuli/ImagesPractice/LN4.jpg","76","","","","test","true","M + N","76","","LN","LN4.jpg","remember","old","3","1","start","right","","","",""
"html-keyboard-response","16","346490","0.0-2.0-2.0-0.3","supvfjjr1yr6smw","practice_no_cue","5ee379c2c1832e050bac5c14","5f60e3c0a3b16e07647b2ff9","5f61dbf3937bc11866ea51cf","false","null","<span style=""color: black; font-size: 48px"">M + N</span>","null","","","","resp_prompt","","","","","","","","","","","","","","","",""
"categorize-image","17","347945","0.0-2.0-2.0-1.3","supvfjjr1yr6smw","practice_no_cue","5ee379c2c1832e050bac5c14","5f60e3c0a3b16e07647b2ff9","5f61dbf3937bc11866ea51cf","true","952","./Stimuli/ImagesPractice/SN75.jpg","76","","","","test","true","M + N","76","","SN","SN75.jpg","forget","old","4","1","start","right","","","",""
"html-keyboard-response","18","348647","0.0-2.0-2.0-0.4","supvfjjr1yr6smw","practice_no_cue","5ee379c2c1832e050bac5c14","5f60e3c0a3b16e07647b2ff9","5f61dbf3937bc11866ea51cf","false","null","<span style=""color: black; font-size: 48px"">N + M</span>","null","","","","resp_prompt","","","","","","","","","","","","","","","",""
"categorize-image","19","349999","0.0-2.0-2.0-1.4","supvfjjr1yr6smw","practice_no_cue","5ee379c2c1832e050bac5c14","5f60e3c0a3b16e07647b2ff9","5f61dbf3937bc11866ea51cf","true","848","./Stimuli/ImagesPractice/LN15.jpg","83","","","","test","true","N + M","83","","LN","LN15.jpg","forget","old","5","1","start","left","","","",""
"html-keyboard-response","20","350701","0.0-2.0-2.0-0.5","supvfjjr1yr6smw","practice_no_cue","5ee379c2c1832e050bac5c14","5f60e3c0a3b16e07647b2ff9","5f61dbf3937bc11866ea51cf","false","null","<span style=""color: black; font-size: 48px"">M + N</span>","null","","","","resp_prompt","","","","","","","","","","","","","","","",""
"categorize-image","21","352183","0.0-2.0-2.0-1.5","supvfjjr1yr6smw","practice_no_cue","5ee379c2c1832e050bac5c14","5f60e3c0a3b16e07647b2ff9","5f61dbf3937bc11866ea51cf","true","981","./Stimuli/ImagesPractice/LM230.jpg","83","","","","test","true","M + N","83","","LM","LM230.jpg","forget","old","6","1","start","left","","","",""
"html-keyboard-response","22","352886","0.0-2.0-2.0-0.6","supvfjjr1yr6smw","practice_no_cue","5ee379c2c1832e050bac5c14","5f60e3c0a3b16e07647b2ff9","5f61dbf3937bc11866ea51cf","false","null","<span style=""color: black; font-size: 48px"">N + M</span>","null","","","","resp_prompt","","","","","","","","","","","","","","","",""
"categorize-image","23","354522","0.0-2.0-2.0-1.6","supvfjjr1yr6smw","practice_no_cue","5ee379c2c1832e050bac5c14","5f60e3c0a3b16e07647b2ff9","5f61dbf3937bc11866ea51cf","true","1134","./Stimuli/ImagesPractice/SM35.jpg","83","","","","test","false","N + M","76","","SM","SM35.jpg","forget","old","7","1","start","left","","","",""
"html-keyboard-response","24","355223","0.0-2.0-2.0-0.7","supvfjjr1yr6smw","practice_no_cue","5ee379c2c1832e050bac5c14","5f60e3c0a3b16e07647b2ff9","5f61dbf3937bc11866ea51cf","false","null","<span style=""color: black; font-size: 48px"">M + N</span>","null","","","","resp_prompt","","","","","","","","","","","","","","","",""
"categorize-image","25","356428","0.0-2.0-2.0-1.7","supvfjjr1yr6smw","practice_no_cue","5ee379c2c1832e050bac5c14","5f60e3c0a3b16e07647b2ff9","5f61dbf3937bc11866ea51cf","true","704","./Stimuli/ImagesPractice/SN205.jpg","76","","","","test","true","M + N","76","","SN","SN205.jpg","forget","old","8","1","start","right","","","",""
"html-keyboard-response","26","357129","0.0-2.0-2.0-0.8","supvfjjr1yr6smw","practice_no_cue","5ee379c2c1832e050bac5c14","5f60e3c0a3b16e07647b2ff9","5f61dbf3937bc11866ea51cf","false","null","<span style=""color: black; font-size: 48px"">M + N</span>","null","","","","resp_prompt","","","","","","","","","","","","","","","",""
"categorize-image","27","358643","0.0-2.0-2.0-1.8","supvfjjr1yr6smw","practice_no_cue","5ee379c2c1832e050bac5c14","5f60e3c0a3b16e07647b2ff9","5f61dbf3937bc11866ea51cf","true","1012","./Stimuli/ImagesPractice/LN109.jpg","76","","","","test","true","M + N","76","","LN","LN109.jpg","remember","old","9","1","start","right","","","",""
"html-keyboard-response","28","359345","0.0-2.0-2.0-0.9","supvfjjr1yr6smw","practice_no_cue","5ee379c2c1832e050bac5c14","5f60e3c0a3b16e07647b2ff9","5f61dbf3937bc11866ea51cf","false","null","<span style=""color: black; font-size: 48px"">N + M</span>","null","","","","resp_prompt","","","","","","","","","","","","","","","",""
"categorize-image","29","360805","0.0-2.0-2.0-1.9","supvfjjr1yr6smw","practice_no_cue","5ee379c2c1832e050bac5c14","5f60e3c0a3b16e07647b2ff9","5f61dbf3937bc11866ea51cf","true","957","./Stimuli/ImagesPractice/LM239.jpg","83","","","","test","false","N + M","76","","LM","LM239.jpg","forget","old","10","1","start","left","","","",""
"html-keyboard-response","30","361508","0.0-2.0-2.0-0.10","supvfjjr1yr6smw","practice_no_cue","5ee379c2c1832e050bac5c14","5f60e3c0a3b16e07647b2ff9","5f61dbf3937bc11866ea51cf","false","null","<span style=""color: black; font-size: 48px"">N + M</span>","null","","","","resp_prompt","","","","","","","","","","","","","","","",""
"categorize-image","31","363244","0.0-2.0-2.0-1.10","supvfjjr1yr6smw","practice_no_cue","5ee379c2c1832e050bac5c14","5f60e3c0a3b16e07647b2ff9","5f61dbf3937bc11866ea51cf","true","1233","./Stimuli/ImagesPractice/LN2.jpg","83","","","","test","true","N + M","83","","LN","LN2.jpg","remember","old","11","1","start","left","","","",""
"html-keyboard-response","32","363945","0.0-2.0-2.0-0.11","supvfjjr1yr6smw","practice_no_cue","5ee379c2c1832e050bac5c14","5f60e3c0a3b16e07647b2ff9","5f61dbf3937bc11866ea51cf","false","null","<span style=""color: black; font-size: 48px"">M + N</span>","null","","","","resp_prompt","","","","","","","","","","","","","","","",""
"categorize-image","33","365408","0.0-2.0-2.0-1.11","supvfjjr1yr6smw","practice_no_cue","5ee379c2c1832e050bac5c14","5f60e3c0a3b16e07647b2ff9","5f61dbf3937bc11866ea51cf","true","960","./Stimuli/ImagesPractice/SM98.jpg","83","","","","test","true","M + N","83","","SM","SM98.jpg","remember","old","12","1","start","left","","","",""
"html-keyboard-response","34","366110","0.0-2.0-2.0-0.12","supvfjjr1yr6smw","practice_no_cue","5ee379c2c1832e050bac5c14","5f60e3c0a3b16e07647b2ff9","5f61dbf3937bc11866ea51cf","false","null","<span style=""color: black; font-size: 48px"">M + N</span>","null","","","","resp_prompt","","","","","","","","","","","","","","","",""
"categorize-image","35","367537","0.0-2.0-2.0-1.12","supvfjjr1yr6smw","practice_no_cue","5ee379c2c1832e050bac5c14","5f60e3c0a3b16e07647b2ff9","5f61dbf3937bc11866ea51cf","true","923","./Stimuli/ImagesPractice/SM62.jpg","76","","","","test","false","M + N","83","","SM","SM62.jpg","forget","old","13","1","start","right","","","",""
"html-keyboard-response","36","368239","0.0-2.0-2.0-0.13","supvfjjr1yr6smw","practice_no_cue","5ee379c2c1832e050bac5c14","5f60e3c0a3b16e07647b2ff9","5f61dbf3937bc11866ea51cf","false","null","<span style=""color: black; font-size: 48px"">N + M</span>","null","","","","resp_prompt","","","","","","","","","","","","","","","",""
"categorize-image","37","369916","0.0-2.0-2.0-1.13","supvfjjr1yr6smw","practice_no_cue","5ee379c2c1832e050bac5c14","5f60e3c0a3b16e07647b2ff9","5f61dbf3937bc11866ea51cf","true","1174","./Stimuli/ImagesPractice/SN222.jpg","83","","","","test","true","N + M","83","","SN","SN222.jpg","remember","old","14","1","start","left","","","",""
"html-keyboard-response","38","370619","0.0-2.0-2.0-0.14","supvfjjr1yr6smw","practice_no_cue","5ee379c2c1832e050bac5c14","5f60e3c0a3b16e07647b2ff9","5f61dbf3937bc11866ea51cf","false","null","<span style=""color: black; font-size: 48px"">N + M</span>","null","","","","resp_prompt","","","","","","","","","","","","","","","",""
"categorize-image","39","372064","0.0-2.0-2.0-1.14","supvfjjr1yr6smw","practice_no_cue","5ee379c2c1832e050bac5c14","5f60e3c0a3b16e07647b2ff9","5f61dbf3937bc11866ea51cf","true","942","./Stimuli/ImagesPractice/LM55.jpg","76","","","","test","true","N + M","76","","LM","LM55.jpg","remember","old","15","1","start","right","","","",""
"html-keyboard-response","40","372765","0.0-2.0-2.0-0.15","supvfjjr1yr6smw","practice_no_cue","5ee379c2c1832e050bac5c14","5f60e3c0a3b16e07647b2ff9","5f61dbf3937bc11866ea51cf","false","null","<span style=""color: black; font-size: 48px"">N + M</span>","null","","","","resp_prompt","","","","","","","","","","","","","","","",""
"categorize-image","41","374355","0.0-2.0-2.0-1.15","supvfjjr1yr6smw","practice_no_cue","5ee379c2c1832e050bac5c14","5f60e3c0a3b16e07647b2ff9","5f61dbf3937bc11866ea51cf","true","1089","./Stimuli/ImagesPractice/SN221.jpg","83","","","","test","true","N + M","83","","SN","SN221.jpg","forget","old","16","1","start","left","","","",""
"html-keyboard-response","42","380594","0.0-2.0-3.0","supvfjjr1yr6smw","break","5ee379c2c1832e050bac5c14","5f60e3c0a3b16e07647b2ff9","5f61dbf3937bc11866ea51cf","false","6235","<p style='font-size: 32px;'>Break</><br><br><br><br><br><p style='font-size: 24px;'>In the last block, you committed 3 errors and did not respond in time on 0 trials.
</p><p style='font-size: 24px;'>Try to respond as fast and accurately as possible in the next block as well! </p><p style='font-size: 24px;'>Press SPACE to continue.</p>","32","","","","","","","","","","","","","","","","","","","",""
"html-keyboard-response","43","385849","0.0-2.0-4.0","supvfjjr1yr6smw","instructions","5ee379c2c1832e050bac5c14","5f60e3c0a3b16e07647b2ff9","5f61dbf3937bc11866ea51cf","false","5253","<div align=left> Great!<br><br>Are you ready to continue?<br><br>If you want to reread the instructions and redo the practice trials, <br>please press „Z“. <br><br>Press SPACE to CONTINUE with the experiment when you are ready. </div>","32","","","","","","","","","","","","","","","","","","","",""
"html-keyboard-response","44","421186","0.0-3.0-0.0","supvfjjr1yr6smw","instructions","5ee379c2c1832e050bac5c14","5f60e3c0a3b16e07647b2ff9","5f61dbf3937bc11866ea51cf","false","35335","<div align=left>Great!<br> <strong>Attention</strong>! You will now receive a second, additional task! <br><br>To this point it was you <strong>first task</strong> to correctly <strong>classify objects</strong>. <br><br>As mentioned in the beginning, we aim to examine how well humans can remember previously learned information.<br>We would like to find out whether our memory improves if we only remember information that is relevant to us. <br><br>Therefore, your <strong>second task</strong> will be to <strong>remember</strong> the pictures you are to categorize. <br> After the learning phase, there will be a memory test phase, in which you will be asked to indicate whether you have seen a picture before or not. <br>Some, but not all pictures shown in the learning phase will appear in the memory test phase.<br>After classifying a picture, you will be told whether you should remember it for the memory test phase or not. <br>Thus, some pictures can be forgotten, whereas others have to be remembered. <br><br>Note: From now on, feedback will only be displayed if you responded incorrectly or not in time.<br><br>Press SPACE to continue.</div>","32","","","","","","","","","","","","","","","","","","","",""
"html-keyboard-response","45","448776","0.0-3.0-1.0","supvfjjr1yr6smw","instructions","5ee379c2c1832e050bac5c14","5f60e3c0a3b16e07647b2ff9","5f61dbf3937bc11866ea51cf","false","27588","<div align=left>In the following part, you will thus have to remember only some pictures. <br>Immediately after seeing and classifying the picture, a symbol will be displayed, indicating whether you should remember or forget the previous picture. <br><br>A <span style='color: dodgerblue; font-size: 28px'>O</span> indicates REMEMBER. That means, you have to remember this picture, because it will be tested later. <br><br>A <span style='color: darkorange; font-size:28px'>Ø</span> indicates FORGET. You do not have to remember this picture. <br><br> As you will have to remember a lot of pictures, it will be hard for you to remember all of them. <br>It will put you at an advantage if you instantly forget the pictures you are not asked to remember. <br> This will make it easier for you to remember the pictures that will be tested afterwards. <br><br>Press SPACE to continue.</div>","32","","","","","","","","","","","","","","","","","","","",""
"html-keyboard-response","46","451181","0.0-3.0-2.0","supvfjjr1yr6smw","instructions","5ee379c2c1832e050bac5c14","5f60e3c0a3b16e07647b2ff9","5f61dbf3937bc11866ea51cf","false","2403","<div align=left> Now you have the chance to practice both tasks together.<br><br>Remember: <br> <br><li>Please place your index fingers on the <strong>'S'</strong> and <strong>'L'</strong> keys <br>to respond as fast and accurately as possible.</li><li>Every picture can be classified as either mechanical or non-mechanical.</li><li>If you do not respond in time or commit an error, you will receive a corresponding feedback. <br>Please try to respond as <strong> fast </strong> and as <strong> accurately as possible </strong>.</li><li> Please remember only the to-be-remembered <span style='color: dodgerblue; font-size: 28px'>O</span> pictures. <br></li><li> Please minimize distractions and stay focused. </li><br><br>Press SPACE to START</div>","32","","","","","","","","","","","","","","","","","","","",""
"html-keyboard-response","47","451883","0.0-3.0-3.0-0.0","supvfjjr1yr6smw","practice_cue","5ee379c2c1832e050bac5c14","5f60e3c0a3b16e07647b2ff9","5f61dbf3937bc11866ea51cf","false","null","<span style=""color: black; font-size: 48px"">M + N</span>","null","","","","resp_prompt","","","","","","","","","","","","","","","",""
"categorize-image","48","452463","0.0-3.0-3.0-1.0","supvfjjr1yr6smw","practice_cue","5ee379c2c1832e050bac5c14","5f60e3c0a3b16e07647b2ff9","5f61dbf3937bc11866ea51cf","true","574","./Stimuli/ImagesPractice/SM62.jpg","83","","","","test","true","M + N","83","","SM","SM62.jpg","forget","old","17","2","practice_forget","left","","","",""
"html-keyboard-response","49","454465","0.0-3.0-3.0-3.0","supvfjjr1yr6smw","practice_cue","5ee379c2c1832e050bac5c14","5f60e3c0a3b16e07647b2ff9","5f61dbf3937bc11866ea51cf","false","null","<div style=""align-items: center; display: flex; color: darkorange; font-size: 90px""><b>ø</b></div>","null","","","","forget_cue","","","","","","","","","","","","","","","",""
"html-keyboard-response","50","455166","0.0-3.0-3.0-0.1","supvfjjr1yr6smw","practice_cue","5ee379c2c1832e050bac5c14","5f60e3c0a3b16e07647b2ff9","5f61dbf3937bc11866ea51cf","false","null","<span style=""color: black; font-size: 48px"">N + M</span>","null","","","","resp_prompt","","","","","","","","","","","","","","","",""
"categorize-image","51","456045","0.0-3.0-3.0-1.1","supvfjjr1yr6smw","practice_cue","5ee379c2c1832e050bac5c14","5f60e3c0a3b16e07647b2ff9","5f61dbf3937bc11866ea51cf","true","875","./Stimuli/ImagesPractice/LM143.jpg","76","","","","test","true","N + M","76","","LM","LM143.jpg","remember","old","18","2","practice_forget","right","","","",""
"html-keyboard-response","52","458047","0.0-3.0-3.0-3.1","supvfjjr1yr6smw","practice_cue","5ee379c2c1832e050bac5c14","5f60e3c0a3b16e07647b2ff9","5f61dbf3937bc11866ea51cf","false","null","<div style=""align-items: center; display: flex; color: dodgerblue; font-size: 90px""><b>o</b></div>","null","","","","forget_cue","","","","","","","","","","","","","","","",""
"html-keyboard-response","53","458749","0.0-3.0-3.0-0.2","supvfjjr1yr6smw","practice_cue","5ee379c2c1832e050bac5c14","5f60e3c0a3b16e07647b2ff9","5f61dbf3937bc11866ea51cf","false","null","<span style=""color: black; font-size: 48px"">N + M</span>","null","","","","resp_prompt","","","","","","","","","","","","","","","",""
"categorize-image","54","459732","0.0-3.0-3.0-1.2","supvfjjr1yr6smw","practice_cue","5ee379c2c1832e050bac5c14","5f60e3c0a3b16e07647b2ff9","5f61dbf3937bc11866ea51cf","true","979","./Stimuli/ImagesPractice/SN221.jpg","83","","","","test","true","N + M","83","","SN","SN221.jpg","forget","old","19","2","practice_forget","left","","","",""
"html-keyboard-response","55","461735","0.0-3.0-3.0-3.2","supvfjjr1yr6smw","practice_cue","5ee379c2c1832e050bac5c14","5f60e3c0a3b16e07647b2ff9","5f61dbf3937bc11866ea51cf","false","null","<div style=""align-items: center; display: flex; color: darkorange; font-size: 90px""><b>ø</b></div>","null","","","","forget_cue","","","","","","","","","","","","","","","",""
"html-keyboard-response","56","462437","0.0-3.0-3.0-0.3","supvfjjr1yr6smw","practice_cue","5ee379c2c1832e050bac5c14","5f60e3c0a3b16e07647b2ff9","5f61dbf3937bc11866ea51cf","false","null","<span style=""color: black; font-size: 48px"">N + M</span>","null","","","","resp_prompt","","","","","","","","","","","","","","","",""
"categorize-image","57","463414","0.0-3.0-3.0-1.3","supvfjjr1yr6smw","practice_cue","5ee379c2c1832e050bac5c14","5f60e3c0a3b16e07647b2ff9","5f61dbf3937bc11866ea51cf","true","972","./Stimuli/ImagesPractice/SM35.jpg","76","","","","test","true","N + M","76","","SM","SM35.jpg","forget","old","20","2","practice_forget","right","","","",""
"html-keyboard-response","58","465416","0.0-3.0-3.0-3.3","supvfjjr1yr6smw","practice_cue","5ee379c2c1832e050bac5c14","5f60e3c0a3b16e07647b2ff9","5f61dbf3937bc11866ea51cf","false","null","<div style=""align-items: center; display: flex; color: darkorange; font-size: 90px""><b>ø</b></div>","null","","","","forget_cue","","","","","","","","","","","","","","","",""
"html-keyboard-response","59","466116","0.0-3.0-3.0-0.4","supvfjjr1yr6smw","practice_cue","5ee379c2c1832e050bac5c14","5f60e3c0a3b16e07647b2ff9","5f61dbf3937bc11866ea51cf","false","null","<span style=""color: black; font-size: 48px"">M + N</span>","null","","","","resp_prompt","","","","","","","","","","","","","","","",""
"categorize-image","60","467056","0.0-3.0-3.0-1.4","supvfjjr1yr6smw","practice_cue","5ee379c2c1832e050bac5c14","5f60e3c0a3b16e07647b2ff9","5f61dbf3937bc11866ea51cf","true","937","./Stimuli/ImagesPractice/LN109.jpg","76","","","","test","true","M + N","76","","LN","LN109.jpg","remember","old","21","2","practice_forget","right","","","",""
"html-keyboard-response","61","469058","0.0-3.0-3.0-3.4","supvfjjr1yr6smw","practice_cue","5ee379c2c1832e050bac5c14","5f60e3c0a3b16e07647b2ff9","5f61dbf3937bc11866ea51cf","false","null","<div style=""align-items: center; display: flex; color: dodgerblue; font-size: 90px""><b>o</b></div>","null","","","","forget_cue","","","","","","","","","","","","","","","",""
"html-keyboard-response","62","469759","0.0-3.0-3.0-0.5","supvfjjr1yr6smw","practice_cue","5ee379c2c1832e050bac5c14","5f60e3c0a3b16e07647b2ff9","5f61dbf3937bc11866ea51cf","false","null","<span style=""color: black; font-size: 48px"">M + N</span>","null","","","","resp_prompt","","","","","","","","","","","","","","","",""
"categorize-image","63","470395","0.0-3.0-3.0-1.5","supvfjjr1yr6smw","practice_cue","5ee379c2c1832e050bac5c14","5f60e3c0a3b16e07647b2ff9","5f61dbf3937bc11866ea51cf","true","633","./Stimuli/ImagesPractice/SM98.jpg","83","","","","test","true","M + N","83","","SM","SM98.jpg","remember","old","22","2","practice_forget","left","","","",""
"html-keyboard-response","64","472398","0.0-3.0-3.0-3.5","supvfjjr1yr6smw","practice_cue","5ee379c2c1832e050bac5c14","5f60e3c0a3b16e07647b2ff9","5f61dbf3937bc11866ea51cf","false","null","<div style=""align-items: center; display: flex; color: dodgerblue; font-size: 90px""><b>o</b></div>","null","","","","forget_cue","","","","","","","","","","","","","","","",""
"html-keyboard-response","65","473099","0.0-3.0-3.0-0.6","supvfjjr1yr6smw","practice_cue","5ee379c2c1832e050bac5c14","5f60e3c0a3b16e07647b2ff9","5f61dbf3937bc11866ea51cf","false","null","<span style=""color: black; font-size: 48px"">N + M</span>","null","","","","resp_prompt","","","","","","","","","","","","","","","",""
"categorize-image","66","474452","0.0-3.0-3.0-1.6","supvfjjr1yr6smw","practice_cue","5ee379c2c1832e050bac5c14","5f60e3c0a3b16e07647b2ff9","5f61dbf3937bc11866ea51cf","true","1350","./Stimuli/ImagesPractice/LN2.jpg","83","","","","test","true","N + M","83","","LN","LN2.jpg","remember","old","23","2","practice_forget","left","","","",""
"html-keyboard-response","67","476454","0.0-3.0-3.0-3.6","supvfjjr1yr6smw","practice_cue","5ee379c2c1832e050bac5c14","5f60e3c0a3b16e07647b2ff9","5f61dbf3937bc11866ea51cf","false","null","<div style=""align-items: center; display: flex; color: dodgerblue; font-size: 90px""><b>o</b></div>","null","","","","forget_cue","","","","","","","","","","","","","","","",""
"html-keyboard-response","68","477155","0.0-3.0-3.0-0.7","supvfjjr1yr6smw","practice_cue","5ee379c2c1832e050bac5c14","5f60e3c0a3b16e07647b2ff9","5f61dbf3937bc11866ea51cf","false","null","<span style=""color: black; font-size: 48px"">M + N</span>","null","","","","resp_prompt","","","","","","","","","","","","","","","",""
"categorize-image","69","477872","0.0-3.0-3.0-1.7","supvfjjr1yr6smw","practice_cue","5ee379c2c1832e050bac5c14","5f60e3c0a3b16e07647b2ff9","5f61dbf3937bc11866ea51cf","true","714","./Stimuli/ImagesPractice/SN205.jpg","83","","","","test","false","M + N","76","","SN","SN205.jpg","forget","old","24","2","practice_forget","left","","","",""
"html-keyboard-response","70","478374","0.0-3.0-3.0-2.7-0.7","supvfjjr1yr6smw","practice_cue","5ee379c2c1832e050bac5c14","5f60e3c0a3b16e07647b2ff9","5f61dbf3937bc11866ea51cf","false","null","<span style=""color: red; font-size: 48px"">Error!</span>","null","","","","feedback","","","","","","","","","","","","","","","",""
"html-keyboard-response","71","480376","0.0-3.0-3.0-3.7","supvfjjr1yr6smw","practice_cue","5ee379c2c1832e050bac5c14","5f60e3c0a3b16e07647b2ff9","5f61dbf3937bc11866ea51cf","false","null","<div style=""align-items: center; display: flex; color: darkorange; font-size: 90px""><b>ø</b></div>","null","","","","forget_cue","","","","","","","","","","","","","","","",""
"html-keyboard-response","72","481077","0.0-3.0-3.0-0.8","supvfjjr1yr6smw","practice_cue","5ee379c2c1832e050bac5c14","5f60e3c0a3b16e07647b2ff9","5f61dbf3937bc11866ea51cf","false","null","<span style=""color: black; font-size: 48px"">N + M</span>","null","","","","resp_prompt","","","","","","","","","","","","","","","",""
"categorize-image","73","482014","0.0-3.0-3.0-1.8","supvfjjr1yr6smw","practice_cue","5ee379c2c1832e050bac5c14","5f60e3c0a3b16e07647b2ff9","5f61dbf3937bc11866ea51cf","true","934","./Stimuli/ImagesPractice/LM55.jpg","76","","","","test","true","N + M","76","","LM","LM55.jpg","remember","old","25","2","practice_forget","right","","","",""
"html-keyboard-response","74","484017","0.0-3.0-3.0-3.8","supvfjjr1yr6smw","practice_cue","5ee379c2c1832e050bac5c14","5f60e3c0a3b16e07647b2ff9","5f61dbf3937bc11866ea51cf","false","null","<div style=""align-items: center; display: flex; color: dodgerblue; font-size: 90px""><b>o</b></div>","null","","","","forget_cue","","","","","","","","","","","","","","","",""
"html-keyboard-response","75","484717","0.0-3.0-3.0-0.9","supvfjjr1yr6smw","practice_cue","5ee379c2c1832e050bac5c14","5f60e3c0a3b16e07647b2ff9","5f61dbf3937bc11866ea51cf","false","null","<span style=""color: black; font-size: 48px"">N + M</span>","null","","","","resp_prompt","","","","","","","","","","","","","","","",""
"categorize-image","76","485531","0.0-3.0-3.0-1.9","supvfjjr1yr6smw","practice_cue","5ee379c2c1832e050bac5c14","5f60e3c0a3b16e07647b2ff9","5f61dbf3937bc11866ea51cf","true","807","./Stimuli/ImagesPractice/LN15.jpg","83","","","","test","true","N + M","83","","LN","LN15.jpg","forget","old","26","2","practice_forget","left","","","",""
"html-keyboard-response","77","487531","0.0-3.0-3.0-3.9","supvfjjr1yr6smw","practice_cue","5ee379c2c1832e050bac5c14","5f60e3c0a3b16e07647b2ff9","5f61dbf3937bc11866ea51cf","false","null","<div style=""align-items: center; display: flex; color: darkorange; font-size: 90px""><b>ø</b></div>","null","","","","forget_cue","","","","","","","","","","","","","","","",""
"html-keyboard-response","78","488233","0.0-3.0-3.0-0.10","supvfjjr1yr6smw","practice_cue","5ee379c2c1832e050bac5c14","5f60e3c0a3b16e07647b2ff9","5f61dbf3937bc11866ea51cf","false","null","<span style=""color: black; font-size: 48px"">N + M</span>","null","","","","resp_prompt","","","","","","","","","","","","","","","",""
"categorize-image","79","489268","0.0-3.0-3.0-1.10","supvfjjr1yr6smw","practice_cue","5ee379c2c1832e050bac5c14","5f60e3c0a3b16e07647b2ff9","5f61dbf3937bc11866ea51cf","true","1031","./Stimuli/ImagesPractice/LM239.jpg","83","","","","test","false","N + M","76","","LM","LM239.jpg","forget","old","27","2","practice_forget","left","","","",""
"html-keyboard-response","80","489770","0.0-3.0-3.0-2.10-0.10","supvfjjr1yr6smw","practice_cue","5ee379c2c1832e050bac5c14","5f60e3c0a3b16e07647b2ff9","5f61dbf3937bc11866ea51cf","false","null","<span style=""color: red; font-size: 48px"">Error!</span>","null","","","","feedback","","","","","","","","","","","","","","","",""
"html-keyboard-response","81","491772","0.0-3.0-3.0-3.10","supvfjjr1yr6smw","practice_cue","5ee379c2c1832e050bac5c14","5f60e3c0a3b16e07647b2ff9","5f61dbf3937bc11866ea51cf","false","null","<div style=""align-items: center; display: flex; color: darkorange; font-size: 90px""><b>ø</b></div>","null","","","","forget_cue","","","","","","","","","","","","","","","",""
"html-keyboard-response","82","492473","0.0-3.0-3.0-0.11","supvfjjr1yr6smw","practice_cue","5ee379c2c1832e050bac5c14","5f60e3c0a3b16e07647b2ff9","5f61dbf3937bc11866ea51cf","false","null","<span style=""color: black; font-size: 48px"">M + N</span>","null","","","","resp_prompt","","","","","","","","","","","","","","","",""
"categorize-image","83","493344","0.0-3.0-3.0-1.11","supvfjjr1yr6smw","practice_cue","5ee379c2c1832e050bac5c14","5f60e3c0a3b16e07647b2ff9","5f61dbf3937bc11866ea51cf","true","868","./Stimuli/ImagesPractice/SN75.jpg","76","","","","test","true","M + N","76","","SN","SN75.jpg","forget","old","28","2","practice_forget","right","","","",""
"html-keyboard-response","84","495346","0.0-3.0-3.0-3.11","supvfjjr1yr6smw","practice_cue","5ee379c2c1832e050bac5c14","5f60e3c0a3b16e07647b2ff9","5f61dbf3937bc11866ea51cf","false","null","<div style=""align-items: center; display: flex; color: darkorange; font-size: 90px""><b>ø</b></div>","null","","","","forget_cue","","","","","","","","","","","","","","","",""
"html-keyboard-response","85","496048","0.0-3.0-3.0-0.12","supvfjjr1yr6smw","practice_cue","5ee379c2c1832e050bac5c14","5f60e3c0a3b16e07647b2ff9","5f61dbf3937bc11866ea51cf","false","null","<span style=""color: black; font-size: 48px"">M + N</span>","null","","","","resp_prompt","","","","","","","","","","","","","","","",""
"categorize-image","86","496919","0.0-3.0-3.0-1.12","supvfjjr1yr6smw","practice_cue","5ee379c2c1832e050bac5c14","5f60e3c0a3b16e07647b2ff9","5f61dbf3937bc11866ea51cf","true","866","./Stimuli/ImagesPractice/LN4.jpg","76","","","","test","true","M + N","76","","LN","LN4.jpg","remember","old","29","2","practice_forget","right","","","",""
"html-keyboard-response","87","498919","0.0-3.0-3.0-3.12","supvfjjr1yr6smw","practice_cue","5ee379c2c1832e050bac5c14","5f60e3c0a3b16e07647b2ff9","5f61dbf3937bc11866ea51cf","false","null","<div style=""align-items: center; display: flex; color: dodgerblue; font-size: 90px""><b>o</b></div>","null","","","","forget_cue","","","","","","","","","","","","","","","",""
"html-keyboard-response","88","499621","0.0-3.0-3.0-0.13","supvfjjr1yr6smw","practice_cue","5ee379c2c1832e050bac5c14","5f60e3c0a3b16e07647b2ff9","5f61dbf3937bc11866ea51cf","false","null","<span style=""color: black; font-size: 48px"">N + M</span>","null","","","","resp_prompt","","","","","","","","","","","","","","","",""
"categorize-image","89","500229","0.0-3.0-3.0-1.13","supvfjjr1yr6smw","practice_cue","5ee379c2c1832e050bac5c14","5f60e3c0a3b16e07647b2ff9","5f61dbf3937bc11866ea51cf","true","604","./Stimuli/ImagesPractice/SN222.jpg","83","","","","test","true","N + M","83","","SN","SN222.jpg","remember","old","30","2","practice_forget","left","","","",""
"html-keyboard-response","90","502230","0.0-3.0-3.0-3.13","supvfjjr1yr6smw","practice_cue","5ee379c2c1832e050bac5c14","5f60e3c0a3b16e07647b2ff9","5f61dbf3937bc11866ea51cf","false","null","<div style=""align-items: center; display: flex; color: dodgerblue; font-size: 90px""><b>o</b></div>","null","","","","forget_cue","","","","","","","","","","","","","","","",""
"html-keyboard-response","91","502931","0.0-3.0-3.0-0.14","supvfjjr1yr6smw","practice_cue","5ee379c2c1832e050bac5c14","5f60e3c0a3b16e07647b2ff9","5f61dbf3937bc11866ea51cf","false","null","<span style=""color: black; font-size: 48px"">M + N</span>","null","","","","resp_prompt","","","","","","","","","","","","","","","",""
"categorize-image","92","503684","0.0-3.0-3.0-1.14","supvfjjr1yr6smw","practice_cue","5ee379c2c1832e050bac5c14","5f60e3c0a3b16e07647b2ff9","5f61dbf3937bc11866ea51cf","true","749","./Stimuli/ImagesPractice/LM230.jpg","83","","","","test","true","M + N","83","","LM","LM230.jpg","forget","old","31","2","practice_forget","left","","","",""
"html-keyboard-response","93","505685","0.0-3.0-3.0-3.14","supvfjjr1yr6smw","practice_cue","5ee379c2c1832e050bac5c14","5f60e3c0a3b16e07647b2ff9","5f61dbf3937bc11866ea51cf","false","null","<div style=""align-items: center; display: flex; color: darkorange; font-size: 90px""><b>ø</b></div>","null","","","","forget_cue","","","","","","","","","","","","","","","",""
"html-keyboard-response","94","506387","0.0-3.0-3.0-0.15","supvfjjr1yr6smw","practice_cue","5ee379c2c1832e050bac5c14","5f60e3c0a3b16e07647b2ff9","5f61dbf3937bc11866ea51cf","false","null","<span style=""color: black; font-size: 48px"">M + N</span>","null","","","","resp_prompt","","","","","","","","","","","","","","","",""
"categorize-image","95","507151","0.0-3.0-3.0-1.15","supvfjjr1yr6smw","practice_cue","5ee379c2c1832e050bac5c14","5f60e3c0a3b16e07647b2ff9","5f61dbf3937bc11866ea51cf","true","762","./Stimuli/ImagesPractice/SN220.jpg","76","","","","test","true","M + N","76","","SN","SN220.jpg","remember","old","32","2","practice_forget","right","","","",""
"html-keyboard-response","96","509152","0.0-3.0-3.0-3.15","supvfjjr1yr6smw","practice_cue","5ee379c2c1832e050bac5c14","5f60e3c0a3b16e07647b2ff9","5f61dbf3937bc11866ea51cf","false","null","<div style=""align-items: center; display: flex; color: dodgerblue; font-size: 90px""><b>o</b></div>","null","","","","forget_cue","","","","","","","","","","","","","","","",""
"html-keyboard-response","97","511333","0.0-3.0-4.0","supvfjjr1yr6smw","break","5ee379c2c1832e050bac5c14","5f60e3c0a3b16e07647b2ff9","5f61dbf3937bc11866ea51cf","false","2179","<p style='font-size: 32px;'>Break</><br><br><br><br><br><p style='font-size: 24px;'>In the last block, you committed 2 errors and did not respond in time on 0 trials.
</p><p style='font-size: 24px;'>Try to respond as fast and accurately as possible in the next block as well! </p><p style='font-size: 24px;'>Press SPACE to continue.</p>","32","","","","","","","","","","","","","","","","","","","",""
"html-keyboard-response","98","548827","0.0-3.0-5.0","supvfjjr1yr6smw","instructions","5ee379c2c1832e050bac5c14","5f60e3c0a3b16e07647b2ff9","5f61dbf3937bc11866ea51cf","false","37492","<div align=left> Now, to practice, we kindly ask you to remember as many of the to-be-remembered pictures<br>of the previous learning phase as possible.<br><br>The pictures you were instructed to remember were the pictures followed by a <span style='color: dodgerblue; font-size: 28px'>O</span>.<br><br>In this memory test phase, you will also see some new pictures.<br>It is your task to remember whether you were presented with this specific picture in this study so far or not.<br>If you recognize an object (you have already seen it in this study), it is an OLD object. <br>If you do not recognize an object (you have NOT seen it in this study), it is a NEW object. <br><strong> Attention</strong>: As already mentioned, <span style='color: darkorange; font-size:28px'>Ø</span>-pictures will <strong>never</strong> appear in this memory test (neither as new objects). <br><br>Press SPACE to continue. </div>","32","","","","","","","","","","","","","","","","","","","",""
"html-keyboard-response","99","580236","0.0-3.0-6.0","supvfjjr1yr6smw","instructions","5ee379c2c1832e050bac5c14","5f60e3c0a3b16e07647b2ff9","5f61dbf3937bc11866ea51cf","false","31407","<div align=left> M and N no longer will appear on the left/right of the fixation cross. <br>Instead there will be a note at the bottom of the left or right side  <br>indicating which key you should press for an old or new object:  <br> <br>Press the <strong>right</strong> key to classify an object as <strong>old</strong> and press the <strong>left</strong>, to classify an object as <strong>new</strong>.<br>Please classify the objects as new/old by again placing your index finger on the 'S' and 'L' keys <br>and press them accordingly.<br><br><strong>Old:</strong> This object has been presented before. <br><strong>New:</strong> This object has <strong>not</strong> been presented.<br><br>Now please put your right and left index fingers on the 'S' and 'L' keys of your keyboard. <br>Please respond as fast and as accurately as possible!<br><br>Press SPACE to continue. </div>","32","","","","","","","","","","","","","","","","","","","",""
"categorize-image","100","582241","0.0-3.0-7.0-0.0","supvfjjr1yr6smw","practice_recog","5ee379c2c1832e050bac5c14","5f60e3c0a3b16e07647b2ff9","5f61dbf3937bc11866ea51cf","true","1499","./Stimuli/ImagesPractice/SM97.jpg","76","","","","test","false","","83","","SM","SM97.jpg","","new","33","3","practice_recog","right","","","",""
"categorize-image","101","584227","0.0-3.0-7.0-0.1","supvfjjr1yr6smw","practice_recog","5ee379c2c1832e050bac5c14","5f60e3c0a3b16e07647b2ff9","5f61dbf3937bc11866ea51cf","true","1482","./Stimuli/ImagesPractice/LN109.jpg","76","","","","test","true","","76","","LN","LN109.jpg","","old","34","3","practice_recog","right","","","",""
"categorize-image","102","585699","0.0-3.0-7.0-0.2","supvfjjr1yr6smw","practice_recog","5ee379c2c1832e050bac5c14","5f60e3c0a3b16e07647b2ff9","5f61dbf3937bc11866ea51cf","true","970","./Stimuli/ImagesPractice/LN2.jpg","76","","","","test","true","","76","","LN","LN2.jpg","","old","35","3","practice_recog","right","","","",""
"categorize-image","103","587313","0.0-3.0-7.0-0.3","supvfjjr1yr6smw","practice_recog","5ee379c2c1832e050bac5c14","5f60e3c0a3b16e07647b2ff9","5f61dbf3937bc11866ea51cf","true","1112","./Stimuli/ImagesPractice/LN17.jpg","83","","","","test","true","","83","","LN","LN17.jpg","","new","36","3","practice_recog","left","","","",""
"categorize-image","104","588620","0.0-3.0-7.0-0.4","supvfjjr1yr6smw","practice_recog","5ee379c2c1832e050bac5c14","5f60e3c0a3b16e07647b2ff9","5f61dbf3937bc11866ea51cf","true","805","./Stimuli/ImagesPractice/LM143.jpg","76","","","","test","true","","76","","LM","LM143.jpg","","old","37","3","practice_recog","right","","","",""
"categorize-image","105","589958","0.0-3.0-7.0-0.5","supvfjjr1yr6smw","practice_recog","5ee379c2c1832e050bac5c14","5f60e3c0a3b16e07647b2ff9","5f61dbf3937bc11866ea51cf","true","836","./Stimuli/ImagesPractice/LM224.jpg","83","","","","test","true","","83","","LM","LM224.jpg","","new","38","3","practice_recog","left","","","",""
"categorize-image","106","591494","0.0-3.0-7.0-0.6","supvfjjr1yr6smw","practice_recog","5ee379c2c1832e050bac5c14","5f60e3c0a3b16e07647b2ff9","5f61dbf3937bc11866ea51cf","true","1033","./Stimuli/ImagesPractice/SM37.jpg","83","","","","test","true","","83","","SM","SM37.jpg","","new","39","3","practice_recog","left","","","",""
"categorize-image","107","592787","0.0-3.0-7.0-0.7","supvfjjr1yr6smw","practice_recog","5ee379c2c1832e050bac5c14","5f60e3c0a3b16e07647b2ff9","5f61dbf3937bc11866ea51cf","true","789","./Stimuli/ImagesPractice/SN222.jpg","76","","","","test","true","","76","","SN","SN222.jpg","","old","40","3","practice_recog","right","","","",""
"categorize-image","108","594404","0.0-3.0-7.0-0.8","supvfjjr1yr6smw","practice_recog","5ee379c2c1832e050bac5c14","5f60e3c0a3b16e07647b2ff9","5f61dbf3937bc11866ea51cf","true","1115","./Stimuli/ImagesPractice/LN72.jpg","83","","","","test","true","","83","","LN","LN72.jpg","","new","41","3","practice_recog","left","","","",""
"categorize-image","109","596190","0.0-3.0-7.0-0.9","supvfjjr1yr6smw","practice_recog","5ee379c2c1832e050bac5c14","5f60e3c0a3b16e07647b2ff9","5f61dbf3937bc11866ea51cf","true","1284","./Stimuli/ImagesPractice/LM55.jpg","76","","","","test","true","","76","","LM","LM55.jpg","","old","42","3","practice_recog","right","","","",""
"categorize-image","110","598119","0.0-3.0-7.0-0.10","supvfjjr1yr6smw","practice_recog","5ee379c2c1832e050bac5c14","5f60e3c0a3b16e07647b2ff9","5f61dbf3937bc11866ea51cf","true","1426","./Stimuli/ImagesPractice/SN220.jpg","76","","","","test","true","","76","","SN","SN220.jpg","","old","43","3","practice_recog","right","","","",""
"categorize-image","111","599493","0.0-3.0-7.0-0.11","supvfjjr1yr6smw","practice_recog","5ee379c2c1832e050bac5c14","5f60e3c0a3b16e07647b2ff9","5f61dbf3937bc11866ea51cf","true","871","./Stimuli/ImagesPractice/SM61.jpg","83","","","","test","true","","83","","SM","SM61.jpg","","new","44","3","practice_recog","left","","","",""
"categorize-image","112","600861","0.0-3.0-7.0-0.12","supvfjjr1yr6smw","practice_recog","5ee379c2c1832e050bac5c14","5f60e3c0a3b16e07647b2ff9","5f61dbf3937bc11866ea51cf","true","864","./Stimuli/ImagesPractice/LN4.jpg","76","","","","test","true","","76","","LN","LN4.jpg","","old","45","3","practice_recog","right","","","",""
"categorize-image","113","602072","0.0-3.0-7.0-0.13","supvfjjr1yr6smw","practice_recog","5ee379c2c1832e050bac5c14","5f60e3c0a3b16e07647b2ff9","5f61dbf3937bc11866ea51cf","true","709","./Stimuli/ImagesPractice/SM98.jpg","76","","","","test","true","","76","","SM","SM98.jpg","","old","46","3","practice_recog","right","","","",""
"categorize-image","114","603360","0.0-3.0-7.0-0.14","supvfjjr1yr6smw","practice_recog","5ee379c2c1832e050bac5c14","5f60e3c0a3b16e07647b2ff9","5f61dbf3937bc11866ea51cf","true","785","./Stimuli/ImagesPractice/SN76.jpg","83","","","","test","true","","83","","SN","SN76.jpg","","new","47","3","practice_recog","left","","","",""
"categorize-image","115","604879","0.0-3.0-7.0-0.15","supvfjjr1yr6smw","practice_recog","5ee379c2c1832e050bac5c14","5f60e3c0a3b16e07647b2ff9","5f61dbf3937bc11866ea51cf","true","1016","./Stimuli/ImagesPractice/LM147.jpg","83","","","","test","true","","83","","LM","LM147.jpg","","new","48","3","practice_recog","left","","","",""
"html-keyboard-response","116","609083","0.0-3.0-8.0","supvfjjr1yr6smw","instructions","5ee379c2c1832e050bac5c14","5f60e3c0a3b16e07647b2ff9","5f61dbf3937bc11866ea51cf","false","4203","<div align=left> Great!<br><br>Are you ready to continue?<br>If you want to reread the instructions and redo the practice trials, please <br>press „Z“.<br><br>You can proceed when you are ready.<br><br>After the presentation of each object, you will receive an instruction whether to <br>remember or to forget the object.<br>We will test your memory of the following pictures only at the very end of <br>the experiment after all learning blocks are completed. <br><br>Press SPACE to CONTINUE when you are ready. </div>","32","","","","","","","","","","","","","","","","","","","",""
"html-keyboard-response","117","612747","0.0-4.0-0.0","supvfjjr1yr6smw","instructions","5ee379c2c1832e050bac5c14","5f60e3c0a3b16e07647b2ff9","5f61dbf3937bc11866ea51cf","false","3662","<div align=left> The actual experiment is about to start.<br>The practice trials are over!<br><br>Please always respond both fast and accurately!<br><br>Remember: <br> <br><li> Please place your index fingers on the <strong>'S'</strong> and <strong>'L'</strong> keys <br>to respond as fast and accurately as possible.</li><li> Every picture can be classified as either mechanical or non-mechanical.</li><li> If you do not respond in time or commit an error, you will receive a corresponding feedback.<br> Please try to respond as <strong> fast </strong> and as <strong> accurately as possible </strong>.</li><li> Remember the <span style='color: dodgerblue; font-size: 28px'>O</span> pictures. <br></li><li> Please minimize distractions and stay focused. </li><br><br>Press SPACE to START.</div>","32","","","","","","","","","","","","","","","","","","","",""
"html-keyboard-response","118","613448","0.0-4.0-1.0-0.0","supvfjjr1yr6smw","prime","5ee379c2c1832e050bac5c14","5f60e3c0a3b16e07647b2ff9","5f61dbf3937bc11866ea51cf","false","null","<span style=""color: black; font-size: 48px"">N + M</span>","null","","","","resp_prompt","","","","","","","","","","","","","","","",""
"categorize-image","119","614487","0.0-4.0-1.0-1.0","supvfjjr1yr6smw","prime","5ee379c2c1832e050bac5c14","5f60e3c0a3b16e07647b2ff9","5f61dbf3937bc11866ea51cf","true","1034","./Stimuli/SelectedImages/LN/LN177.bmp","83","","","","test","true","N + M","83","switch","LN","LN177.bmp","forget","","49","3","prime1","left","","","",""
"html-keyboard-response","120","616489","0.0-4.0-1.0-3.0","supvfjjr1yr6smw","prime","5ee379c2c1832e050bac5c14","5f60e3c0a3b16e07647b2ff9","5f61dbf3937bc11866ea51cf","false","null","<div style=""align-items: center; display: flex; color: darkorange; font-size: 90px""><b>ø</b></div>","null","","","","forget_cue","","","","","","","","","","","","","","","",""
"html-keyboard-response","121","617189","0.0-4.0-1.0-0.1","supvfjjr1yr6smw","prime","5ee379c2c1832e050bac5c14","5f60e3c0a3b16e07647b2ff9","5f61dbf3937bc11866ea51cf","false","null","<span style=""color: black; font-size: 48px"">N + M</span>","null","","","","resp_prompt","","","","","","","","","","","","","","","",""
"categorize-image","122","618261","0.0-4.0-1.0-1.1","supvfjjr1yr6smw","prime","5ee379c2c1832e050bac5c14","5f60e3c0a3b16e07647b2ff9","5f61dbf3937bc11866ea51cf","true","1068","./Stimuli/SelectedImages/SN/SN128.bmp","83","","","","test","true","N + M","83","switch","SN","SN128.bmp","remember","","50","3","prime1","left","","","",""
"html-keyboard-response","123","620263","0.0-4.0-1.0-3.1","supvfjjr1yr6smw","prime","5ee379c2c1832e050bac5c14","5f60e3c0a3b16e07647b2ff9","5f61dbf3937bc11866ea51cf","false","null","<div style=""align-items: center; display: flex; color: dodgerblue; font-size: 90px""><b>o</b></div>","null","","","","forget_cue","","","","","","","","","","","","","","","",""
"html-keyboard-response","124","620964","0.0-4.0-1.0-0.2","supvfjjr1yr6smw","prime","5ee379c2c1832e050bac5c14","5f60e3c0a3b16e07647b2ff9","5f61dbf3937bc11866ea51cf","false","null","<span style=""color: black; font-size: 48px"">M + N</span>","null","","","","resp_prompt","","","","","","","","","","","","","","","",""
"categorize-image","125","621966","0.0-4.0-1.0-1.2","supvfjjr1yr6smw","prime","5ee379c2c1832e050bac5c14","5f60e3c0a3b16e07647b2ff9","5f61dbf3937bc11866ea51cf","true","998","./Stimuli/SelectedImages/SN/SN187.bmp","76","","","","test","true","M + N","76","repetition","SN","SN187.bmp","remember","","51","3","prime1","right","","","",""
"html-keyboard-response","126","623967","0.0-4.0-1.0-3.2","supvfjjr1yr6smw","prime","5ee379c2c1832e050bac5c14","5f60e3c0a3b16e07647b2ff9","5f61dbf3937bc11866ea51cf","false","null","<div style=""align-items: center; display: flex; color: dodgerblue; font-size: 90px""><b>o</b></div>","null","","","","forget_cue","","","","","","","","","","","","","","","",""
"html-keyboard-response","127","624669","0.0-4.0-1.0-0.3","supvfjjr1yr6smw","prime","5ee379c2c1832e050bac5c14","5f60e3c0a3b16e07647b2ff9","5f61dbf3937bc11866ea51cf","false","null","<span style=""color: black; font-size: 48px"">M + N</span>","null","","","","resp_prompt","","","","","","","","","","","","","","","",""
"categorize-image","128","625674","0.0-4.0-1.0-1.3","supvfjjr1yr6smw","prime","5ee379c2c1832e050bac5c14","5f60e3c0a3b16e07647b2ff9","5f61dbf3937bc11866ea51cf","true","1003","./Stimuli/SelectedImages/LM/LM59.bmp","83","","","","test","true","M + N","83","repetition","LM","LM59.bmp","remember","","52","3","prime1","left","","","",""
"html-keyboard-response","129","627676","0.0-4.0-1.0-3.3","supvfjjr1yr6smw","prime","5ee379c2c1832e050bac5c14","5f60e3c0a3b16e07647b2ff9","5f61dbf3937bc11866ea51cf","false","null","<div style=""align-items: center; display: flex; color: dodgerblue; font-size: 90px""><b>o</b></div>","null","","","","forget_cue","","","","","","","","","","","","","","","",""
"html-keyboard-response","130","628377","0.0-4.0-1.0-0.4","supvfjjr1yr6smw","prime","5ee379c2c1832e050bac5c14","5f60e3c0a3b16e07647b2ff9","5f61dbf3937bc11866ea51cf","false","null","<span style=""color: black; font-size: 48px"">N + M</span>","null","","","","resp_prompt","","","","","","","","","","","","","","","",""
"categorize-image","131","629732","0.0-4.0-1.0-1.4","supvfjjr1yr6smw","prime","5ee379c2c1832e050bac5c14","5f60e3c0a3b16e07647b2ff9","5f61dbf3937bc11866ea51cf","true","1352","./Stimuli/SelectedImages/SM/SM207.bmp","76","","","","test","true","N + M","76","switch","SM","SM207.bmp","forget","","53","3","prime1","right","","","",""
"html-keyboard-response","132","631734","0.0-4.0-1.0-3.4","supvfjjr1yr6smw","prime","5ee379c2c1832e050bac5c14","5f60e3c0a3b16e07647b2ff9","5f61dbf3937bc11866ea51cf","false","null","<div style=""align-items: center; display: flex; color: darkorange; font-size: 90px""><b>ø</b></div>","null","","","","forget_cue","","","","","","","","","","","","","","","",""
"html-keyboard-response","133","632435","0.0-4.0-1.0-0.5","supvfjjr1yr6smw","prime","5ee379c2c1832e050bac5c14","5f60e3c0a3b16e07647b2ff9","5f61dbf3937bc11866ea51cf","false","null","<span style=""color: black; font-size: 48px"">M + N</span>","null","","","","resp_prompt","","","","","","","","","","","","","","","",""
"categorize-image","134","633519","0.0-4.0-1.0-1.5","supvfjjr1yr6smw","prime","5ee379c2c1832e050bac5c14","5f60e3c0a3b16e07647b2ff9","5f61dbf3937bc11866ea51cf","true","1080","./Stimuli/SelectedImages/SM/SM108.bmp","83","","","","test","true","M + N","83","repetition","SM","SM108.bmp","remember","","54","3","prime1","left","","","",""
"html-keyboard-response","135","635521","0.0-4.0-1.0-3.5","supvfjjr1yr6smw","prime","5ee379c2c1832e050bac5c14","5f60e3c0a3b16e07647b2ff9","5f61dbf3937bc11866ea51cf","false","null","<div style=""align-items: center; display: flex; color: dodgerblue; font-size: 90px""><b>o</b></div>","null","","","","forget_cue","","","","","","","","","","","","","","","",""
"html-keyboard-response","136","636222","0.0-4.0-1.0-0.6","supvfjjr1yr6smw","prime","5ee379c2c1832e050bac5c14","5f60e3c0a3b16e07647b2ff9","5f61dbf3937bc11866ea51cf","false","null","<span style=""color: black; font-size: 48px"">N + M</span>","null","","","","resp_prompt","","","","","","","","","","","","","","","",""
"categorize-image","137","637436","0.0-4.0-1.0-1.6","supvfjjr1yr6smw","prime","5ee379c2c1832e050bac5c14","5f60e3c0a3b16e07647b2ff9","5f61dbf3937bc11866ea51cf","true","1211","./Stimuli/SelectedImages/SN/SN181.bmp","83","","","","test","true","N + M","83","repetition","SN","SN181.bmp","remember","","55","3","prime1","left","","","",""
"html-keyboard-response","138","639438","0.0-4.0-1.0-3.6","supvfjjr1yr6smw","prime","5ee379c2c1832e050bac5c14","5f60e3c0a3b16e07647b2ff9","5f61dbf3937bc11866ea51cf","false","null","<div style=""align-items: center; display: flex; color: dodgerblue; font-size: 90px""><b>o</b></div>","null","","","","forget_cue","","","","","","","","","","","","","","","",""
"html-keyboard-response","139","640140","0.0-4.0-1.0-0.7","supvfjjr1yr6smw","prime","5ee379c2c1832e050bac5c14","5f60e3c0a3b16e07647b2ff9","5f61dbf3937bc11866ea51cf","false","null","<span style=""color: black; font-size: 48px"">N + M</span>","null","","","","resp_prompt","","","","","","","","","","","","","","","",""
"categorize-image","140","641264","0.0-4.0-1.0-1.7","supvfjjr1yr6smw","prime","5ee379c2c1832e050bac5c14","5f60e3c0a3b16e07647b2ff9","5f61dbf3937bc11866ea51cf","true","1121","./Stimuli/SelectedImages/SM/SM213.bmp","76","","","","test","true","N + M","76","repetition","SM","SM213.bmp","remember","","56","3","prime1","right","","","",""
"html-keyboard-response","141","643265","0.0-4.0-1.0-3.7","supvfjjr1yr6smw","prime","5ee379c2c1832e050bac5c14","5f60e3c0a3b16e07647b2ff9","5f61dbf3937bc11866ea51cf","false","null","<div style=""align-items: center; display: flex; color: dodgerblue; font-size: 90px""><b>o</b></div>","null","","","","forget_cue","","","","","","","","","","","","","","","",""
"html-keyboard-response","142","643966","0.0-4.0-1.0-0.8","supvfjjr1yr6smw","prime","5ee379c2c1832e050bac5c14","5f60e3c0a3b16e07647b2ff9","5f61dbf3937bc11866ea51cf","false","null","<span style=""color: black; font-size: 48px"">M + N</span>","null","","","","resp_prompt","","","","","","","","","","","","","","","",""
"categorize-image","143","644993","0.0-4.0-1.0-1.8","supvfjjr1yr6smw","prime","5ee379c2c1832e050bac5c14","5f60e3c0a3b16e07647b2ff9","5f61dbf3937bc11866ea51cf","true","1024","./Stimuli/SelectedImages/SN/SN64.bmp","76","","","","test","true","M + N","76","switch","SN","SN64.bmp","forget","","57","3","prime1","right","","","",""
"html-keyboard-response","144","646994","0.0-4.0-1.0-3.8","supvfjjr1yr6smw","prime","5ee379c2c1832e050bac5c14","5f60e3c0a3b16e07647b2ff9","5f61dbf3937bc11866ea51cf","false","null","<div style=""align-items: center; display: flex; color: darkorange; font-size: 90px""><b>ø</b></div>","null","","","","forget_cue","","","","","","","","","","","","","","","",""
"html-keyboard-response","145","647696","0.0-4.0-1.0-0.9","supvfjjr1yr6smw","prime","5ee379c2c1832e050bac5c14","5f60e3c0a3b16e07647b2ff9","5f61dbf3937bc11866ea51cf","false","null","<span style=""color: black; font-size: 48px"">M + N</span>","null","","","","resp_prompt","","","","","","","","","","","","","","","",""
"categorize-image","146","648780","0.0-4.0-1.0-1.9","supvfjjr1yr6smw","prime","5ee379c2c1832e050bac5c14","5f60e3c0a3b16e07647b2ff9","5f61dbf3937bc11866ea51cf","true","1081","./Stimuli/SelectedImages/LM/LM150.bmp","83","","","","test","true","M + N","83","repetition","LM","LM150.bmp","forget","","58","3","prime1","left","","","",""
"html-keyboard-response","147","650782","0.0-4.0-1.0-3.9","supvfjjr1yr6smw","prime","5ee379c2c1832e050bac5c14","5f60e3c0a3b16e07647b2ff9","5f61dbf3937bc11866ea51cf","false","null","<div style=""align-items: center; display: flex; color: darkorange; font-size: 90px""><b>ø</b></div>","null","","","","forget_cue","","","","","","","","","","","","","","","",""
"html-keyboard-response","148","651484","0.0-4.0-1.0-0.10","supvfjjr1yr6smw","prime","5ee379c2c1832e050bac5c14","5f60e3c0a3b16e07647b2ff9","5f61dbf3937bc11866ea51cf","false","null","<span style=""color: black; font-size: 48px"">M + N</span>","null","","","","resp_prompt","","","","","","","","","","","","","","","",""
"categorize-image","149","652116","0.0-4.0-1.0-1.10","supvfjjr1yr6smw","prime","5ee379c2c1832e050bac5c14","5f60e3c0a3b16e07647b2ff9","5f61dbf3937bc11866ea51cf","true","630","./Stimuli/SelectedImages/SM/SM73.bmp","83","","","","test","true","M + N","83","repetition","SM","SM73.bmp","remember","","59","3","prime1","left","","","",""
"html-keyboard-response","150","654117","0.0-4.0-1.0-3.10","supvfjjr1yr6smw","prime","5ee379c2c1832e050bac5c14","5f60e3c0a3b16e07647b2ff9","5f61dbf3937bc11866ea51cf","false","null","<div style=""align-items: center; display: flex; color: dodgerblue; font-size: 90px""><b>o</b></div>","null","","","","forget_cue","","","","","","","","","","","","","","","",""
"html-keyboard-response","151","654819","0.0-4.0-1.0-0.11","supvfjjr1yr6smw","prime","5ee379c2c1832e050bac5c14","5f60e3c0a3b16e07647b2ff9","5f61dbf3937bc11866ea51cf","false","null","<span style=""color: black; font-size: 48px"">N + M</span>","null","","","","resp_prompt","","","","","","","","","","","","","","","",""
"categorize-image","152","655866","0.0-4.0-1.0-1.11","supvfjjr1yr6smw","prime","5ee379c2c1832e050bac5c14","5f60e3c0a3b16e07647b2ff9","5f61dbf3937bc11866ea51cf","true","1044","./Stimuli/SelectedImages/LN/LN13.bmp","83","","","","test","true","N + M","83","repetition","LN","LN13.bmp","remember","","60","3","prime1","left","","","",""
"html-keyboard-response","153","657867","0.0-4.0-1.0-3.11","supvfjjr1yr6smw","prime","5ee379c2c1832e050bac5c14","5f60e3c0a3b16e07647b2ff9","5f61dbf3937bc11866ea51cf","false","null","<div style=""align-items: center; display: flex; color: dodgerblue; font-size: 90px""><b>o</b></div>","null","","","","forget_cue","","","","","","","","","","","","","","","",""
"html-keyboard-response","154","658569","0.0-4.0-1.0-0.12","supvfjjr1yr6smw","prime","5ee379c2c1832e050bac5c14","5f60e3c0a3b16e07647b2ff9","5f61dbf3937bc11866ea51cf","false","null","<span style=""color: black; font-size: 48px"">M + N</span>","null","","","","resp_prompt","","","","","","","","","","","","","","","",""
"categorize-image","155","659650","0.0-4.0-1.0-1.12","supvfjjr1yr6smw","prime","5ee379c2c1832e050bac5c14","5f60e3c0a3b16e07647b2ff9","5f61dbf3937bc11866ea51cf","true","1077","./Stimuli/SelectedImages/LM/LM103.bmp","83","","","","test","true","M + N","83","switch","LM","LM103.bmp","remember","","61","3","prime1","left","","","",""
"html-keyboard-response","156","661651","0.0-4.0-1.0-3.12","supvfjjr1yr6smw","prime","5ee379c2c1832e050bac5c14","5f60e3c0a3b16e07647b2ff9","5f61dbf3937bc11866ea51cf","false","null","<div style=""align-items: center; display: flex; color: dodgerblue; font-size: 90px""><b>o</b></div>","null","","","","forget_cue","","","","","","","","","","","","","","","",""
"html-keyboard-response","157","662353","0.0-4.0-1.0-0.13","supvfjjr1yr6smw","prime","5ee379c2c1832e050bac5c14","5f60e3c0a3b16e07647b2ff9","5f61dbf3937bc11866ea51cf","false","null","<span style=""color: black; font-size: 48px"">M + N</span>","null","","","","resp_prompt","","","","","","","","","","","","","","","",""
"categorize-image","158","663121","0.0-4.0-1.0-1.13","supvfjjr1yr6smw","prime","5ee379c2c1832e050bac5c14","5f60e3c0a3b16e07647b2ff9","5f61dbf3937bc11866ea51cf","true","764","./Stimuli/SelectedImages/LN/LN12.bmp","76","","","","test","true","M + N","76","switch","LN","LN12.bmp","remember","","62","3","prime1","right","","","",""
"html-keyboard-response","159","665123","0.0-4.0-1.0-3.13","supvfjjr1yr6smw","prime","5ee379c2c1832e050bac5c14","5f60e3c0a3b16e07647b2ff9","5f61dbf3937bc11866ea51cf","false","null","<div style=""align-items: center; display: flex; color: dodgerblue; font-size: 90px""><b>o</b></div>","null","","","","forget_cue","","","","","","","","","","","","","","","",""
"html-keyboard-response","160","665824","0.0-4.0-1.0-0.14","supvfjjr1yr6smw","prime","5ee379c2c1832e050bac5c14","5f60e3c0a3b16e07647b2ff9","5f61dbf3937bc11866ea51cf","false","null","<span style=""color: black; font-size: 48px"">N + M</span>","null","","","","resp_prompt","","","","","","","","","","","","","","","",""
"categorize-image","161","666582","0.0-4.0-1.0-1.14","supvfjjr1yr6smw","prime","5ee379c2c1832e050bac5c14","5f60e3c0a3b16e07647b2ff9","5f61dbf3937bc11866ea51cf","true","754","./Stimuli/SelectedImages/SN/SN52.bmp","83","","","","test","true","N + M","83","repetition","SN","SN52.bmp","forget","","63","3","prime1","left","","","",""
"html-keyboard-response","162","668583","0.0-4.0-1.0-3.14","supvfjjr1yr6smw","prime","5ee379c2c1832e050bac5c14","5f60e3c0a3b16e07647b2ff9","5f61dbf3937bc11866ea51cf","false","null","<div style=""align-items: center; display: flex; color: darkorange; font-size: 90px""><b>ø</b></div>","null","","","","forget_cue","","","","","","","","","","","","","","","",""
"html-keyboard-response","163","669285","0.0-4.0-1.0-0.15","supvfjjr1yr6smw","prime","5ee379c2c1832e050bac5c14","5f60e3c0a3b16e07647b2ff9","5f61dbf3937bc11866ea51cf","false","null","<span style=""color: black; font-size: 48px"">N + M</span>","null","","","","resp_prompt","","","","","","","","","","","","","","","",""
"categorize-image","164","670197","0.0-4.0-1.0-1.15","supvfjjr1yr6smw","prime","5ee379c2c1832e050bac5c14","5f60e3c0a3b16e07647b2ff9","5f61dbf3937bc11866ea51cf","true","908","./Stimuli/SelectedImages/SN/SN93.bmp","83","","","","test","true","N + M","83","switch","SN","SN93.bmp","forget","","64","3","prime1","left","","","",""
"html-keyboard-response","165","672198","0.0-4.0-1.0-3.15","supvfjjr1yr6smw","prime","5ee379c2c1832e050bac5c14","5f60e3c0a3b16e07647b2ff9","5f61dbf3937bc11866ea51cf","false","null","<div style=""align-items: center; display: flex; color: darkorange; font-size: 90px""><b>ø</b></div>","null","","","","forget_cue","","","","","","","","","","","","","","","",""
"html-keyboard-response","166","672901","0.0-4.0-1.0-0.16","supvfjjr1yr6smw","prime","5ee379c2c1832e050bac5c14","5f60e3c0a3b16e07647b2ff9","5f61dbf3937bc11866ea51cf","false","null","<span style=""color: black; font-size: 48px"">M + N</span>","null","","","","resp_prompt","","","","","","","","","","","","","","","",""
"categorize-image","167","674063","0.0-4.0-1.0-1.16","supvfjjr1yr6smw","prime","5ee379c2c1832e050bac5c14","5f60e3c0a3b16e07647b2ff9","5f61dbf3937bc11866ea51cf","true","1160","./Stimuli/SelectedImages/LM/LM48.bmp","76","","","","test","false","M + N","83","repetition","LM","LM48.bmp","remember","","65","3","prime1","right","","","",""
"html-keyboard-response","168","674566","0.0-4.0-1.0-2.16-0.16","supvfjjr1yr6smw","prime","5ee379c2c1832e050bac5c14","5f60e3c0a3b16e07647b2ff9","5f61dbf3937bc11866ea51cf","false","null","<span style=""color: red; font-size: 48px"">Error!</span>","null","","","","feedback","","","","","","","","","","","","","","","",""
"html-keyboard-response","169","676568","0.0-4.0-1.0-3.16","supvfjjr1yr6smw","prime","5ee379c2c1832e050bac5c14","5f60e3c0a3b16e07647b2ff9","5f61dbf3937bc11866ea51cf","false","null","<div style=""align-items: center; display: flex; color: dodgerblue; font-size: 90px""><b>o</b></div>","null","","","","forget_cue","","","","","","","","","","","","","","","",""
"html-keyboard-response","170","677269","0.0-4.0-1.0-0.17","supvfjjr1yr6smw","prime","5ee379c2c1832e050bac5c14","5f60e3c0a3b16e07647b2ff9","5f61dbf3937bc11866ea51cf","false","null","<span style=""color: black; font-size: 48px"">N + M</span>","null","","","","resp_prompt","","","","","","","","","","","","","","","",""
"categorize-image","171","678386","0.0-4.0-1.0-1.17","supvfjjr1yr6smw","prime","5ee379c2c1832e050bac5c14","5f60e3c0a3b16e07647b2ff9","5f61dbf3937bc11866ea51cf","true","1113","./Stimuli/SelectedImages/LM/LM157.bmp","76","","","","test","true","N + M","76","switch","LM","LM157.bmp","forget","","66","3","prime1","right","","","",""
"html-keyboard-response","172","680387","0.0-4.0-1.0-3.17","supvfjjr1yr6smw","prime","5ee379c2c1832e050bac5c14","5f60e3c0a3b16e07647b2ff9","5f61dbf3937bc11866ea51cf","false","null","<div style=""align-items: center; display: flex; color: darkorange; font-size: 90px""><b>ø</b></div>","null","","","","forget_cue","","","","","","","","","","","","","","","",""
"html-keyboard-response","173","681089","0.0-4.0-1.0-0.18","supvfjjr1yr6smw","prime","5ee379c2c1832e050bac5c14","5f60e3c0a3b16e07647b2ff9","5f61dbf3937bc11866ea51cf","false","null","<span style=""color: black; font-size: 48px"">M + N</span>","null","","","","resp_prompt","","","","","","","","","","","","","","","",""
"categorize-image","174","681737","0.0-4.0-1.0-1.18","supvfjjr1yr6smw","prime","5ee379c2c1832e050bac5c14","5f60e3c0a3b16e07647b2ff9","5f61dbf3937bc11866ea51cf","true","645","./Stimuli/SelectedImages/LM/LM235.bmp","83","","","","test","true","M + N","83","switch","LM","LM235.bmp","forget","","67","3","prime1","left","","","",""
"html-keyboard-response","175","683737","0.0-4.0-1.0-3.18","supvfjjr1yr6smw","prime","5ee379c2c1832e050bac5c14","5f60e3c0a3b16e07647b2ff9","5f61dbf3937bc11866ea51cf","false","null","<div style=""align-items: center; display: flex; color: darkorange; font-size: 90px""><b>ø</b></div>","null","","","","forget_cue","","","","","","","","","","","","","","","",""
"html-keyboard-response","176","684438","0.0-4.0-1.0-0.19","supvfjjr1yr6smw","prime","5ee379c2c1832e050bac5c14","5f60e3c0a3b16e07647b2ff9","5f61dbf3937bc11866ea51cf","false","null","<span style=""color: black; font-size: 48px"">N + M</span>","null","","","","resp_prompt","","","","","","","","","","","","","","","",""
"categorize-image","177","685918","0.0-4.0-1.0-1.19","supvfjjr1yr6smw","prime","5ee379c2c1832e050bac5c14","5f60e3c0a3b16e07647b2ff9","5f61dbf3937bc11866ea51cf","true","1475","./Stimuli/SelectedImages/LM/LM51.bmp","76","","","","test","true","N + M","76","switch","LM","LM51.bmp","remember","","68","3","prime1","right","","","",""
"html-keyboard-response","178","687920","0.0-4.0-1.0-3.19","supvfjjr1yr6smw","prime","5ee379c2c1832e050bac5c14","5f60e3c0a3b16e07647b2ff9","5f61dbf3937bc11866ea51cf","false","null","<div style=""align-items: center; display: flex; color: dodgerblue; font-size: 90px""><b>o</b></div>","null","","","","forget_cue","","","","","","","","","","","","","","","",""
"html-keyboard-response","179","688622","0.0-4.0-1.0-0.20","supvfjjr1yr6smw","prime","5ee379c2c1832e050bac5c14","5f60e3c0a3b16e07647b2ff9","5f61dbf3937bc11866ea51cf","false","null","<span style=""color: black; font-size: 48px"">N + M</span>","null","","","","resp_prompt","","","","","","","","","","","","","","","",""
"categorize-image","180","689427","0.0-4.0-1.0-1.20","supvfjjr1yr6smw","prime","5ee379c2c1832e050bac5c14","5f60e3c0a3b16e07647b2ff9","5f61dbf3937bc11866ea51cf","true","801","./Stimuli/SelectedImages/SN/SN140.bmp","83","","","","test","true","N + M","83","repetition","SN","SN140.bmp","remember","","69","3","prime1","left","","","",""
"html-keyboard-response","181","691428","0.0-4.0-1.0-3.20","supvfjjr1yr6smw","prime","5ee379c2c1832e050bac5c14","5f60e3c0a3b16e07647b2ff9","5f61dbf3937bc11866ea51cf","false","null","<div style=""align-items: center; display: flex; color: dodgerblue; font-size: 90px""><b>o</b></div>","null","","","","forget_cue","","","","","","","","","","","","","","","",""
"html-keyboard-response","182","692129","0.0-4.0-1.0-0.21","supvfjjr1yr6smw","prime","5ee379c2c1832e050bac5c14","5f60e3c0a3b16e07647b2ff9","5f61dbf3937bc11866ea51cf","false","null","<span style=""color: black; font-size: 48px"">M + N</span>","null","","","","resp_prompt","","","","","","","","","","","","","","","",""
"categorize-image","183","693132","0.0-4.0-1.0-1.21","supvfjjr1yr6smw","prime","5ee379c2c1832e050bac5c14","5f60e3c0a3b16e07647b2ff9","5f61dbf3937bc11866ea51cf","true","1000","./Stimuli/SelectedImages/SN/SN182.bmp","76","","","","test","true","M + N","76","repetition","SN","SN182.bmp","remember","","70","3","prime1","right","","","",""
"html-keyboard-response","184","695134","0.0-4.0-1.0-3.21","supvfjjr1yr6smw","prime","5ee379c2c1832e050bac5c14","5f60e3c0a3b16e07647b2ff9","5f61dbf3937bc11866ea51cf","false","null","<div style=""align-items: center; display: flex; color: dodgerblue; font-size: 90px""><b>o</b></div>","null","","","","forget_cue","","","","","","","","","","","","","","","",""
"html-keyboard-response","185","695835","0.0-4.0-1.0-0.22","supvfjjr1yr6smw","prime","5ee379c2c1832e050bac5c14","5f60e3c0a3b16e07647b2ff9","5f61dbf3937bc11866ea51cf","false","null","<span style=""color: black; font-size: 48px"">N + M</span>","null","","","","resp_prompt","","","","","","","","","","","","","","","",""
"categorize-image","186","697241","0.0-4.0-1.0-1.22","supvfjjr1yr6smw","prime","5ee379c2c1832e050bac5c14","5f60e3c0a3b16e07647b2ff9","5f61dbf3937bc11866ea51cf","true","1405","./Stimuli/SelectedImages/SN/SN27.bmp","76","","","","test","false","N + M","83","switch","SN","SN27.bmp","remember","","71","3","prime1","right","","","",""
"html-keyboard-response","187","697742","0.0-4.0-1.0-2.22-0.22","supvfjjr1yr6smw","prime","5ee379c2c1832e050bac5c14","5f60e3c0a3b16e07647b2ff9","5f61dbf3937bc11866ea51cf","false","null","<span style=""color: red; font-size: 48px"">Error!</span>","null","","","","feedback","","","","","","","","","","","","","","","",""
"html-keyboard-response","188","699744","0.0-4.0-1.0-3.22","supvfjjr1yr6smw","prime","5ee379c2c1832e050bac5c14","5f60e3c0a3b16e07647b2ff9","5f61dbf3937bc11866ea51cf","false","null","<div style=""align-items: center; display: flex; color: dodgerblue; font-size: 90px""><b>o</b></div>","null","","","","forget_cue","","","","","","","","","","","","","","","",""
"html-keyboard-response","189","700446","0.0-4.0-1.0-0.23","supvfjjr1yr6smw","prime","5ee379c2c1832e050bac5c14","5f60e3c0a3b16e07647b2ff9","5f61dbf3937bc11866ea51cf","false","null","<span style=""color: black; font-size: 48px"">N + M</span>","null","","","","resp_prompt","","","","","","","","","","","","","","","",""
"categorize-image","190","701244","0.0-4.0-1.0-1.23","supvfjjr1yr6smw","prime","5ee379c2c1832e050bac5c14","5f60e3c0a3b16e07647b2ff9","5f61dbf3937bc11866ea51cf","true","796","./Stimuli/SelectedImages/SM/SM200.bmp","76","","","","test","true","N + M","76","repetition","SM","SM200.bmp","remember","","72","3","prime1","right","","","",""
"html-keyboard-response","191","703246","0.0-4.0-1.0-3.23","supvfjjr1yr6smw","prime","5ee379c2c1832e050bac5c14","5f60e3c0a3b16e07647b2ff9","5f61dbf3937bc11866ea51cf","false","null","<div style=""align-items: center; display: flex; color: dodgerblue; font-size: 90px""><b>o</b></div>","null","","","","forget_cue","","","","","","","","","","","","","","","",""
"html-keyboard-response","192","703948","0.0-4.0-1.0-0.24","supvfjjr1yr6smw","prime","5ee379c2c1832e050bac5c14","5f60e3c0a3b16e07647b2ff9","5f61dbf3937bc11866ea51cf","false","null","<span style=""color: black; font-size: 48px"">M + N</span>","null","","","","resp_prompt","","","","","","","","","","","","","","","",""
"categorize-image","193","704841","0.0-4.0-1.0-1.24","supvfjjr1yr6smw","prime","5ee379c2c1832e050bac5c14","5f60e3c0a3b16e07647b2ff9","5f61dbf3937bc11866ea51cf","true","889","./Stimuli/SelectedImages/LN/LN59.bmp","76","","","","test","true","M + N","76","switch","LN","LN59.bmp","forget","","73","3","prime1","right","","","",""
"html-keyboard-response","194","706843","0.0-4.0-1.0-3.24","supvfjjr1yr6smw","prime","5ee379c2c1832e050bac5c14","5f60e3c0a3b16e07647b2ff9","5f61dbf3937bc11866ea51cf","false","null","<div style=""align-items: center; display: flex; color: darkorange; font-size: 90px""><b>ø</b></div>","null","","","","forget_cue","","","","","","","","","","","","","","","",""
"html-keyboard-response","195","707544","0.0-4.0-1.0-0.25","supvfjjr1yr6smw","prime","5ee379c2c1832e050bac5c14","5f60e3c0a3b16e07647b2ff9","5f61dbf3937bc11866ea51cf","false","null","<span style=""color: black; font-size: 48px"">M + N</span>","null","","","","resp_prompt","","","","","","","","","","","","","","","",""
"categorize-image","196","708547","0.0-4.0-1.0-1.25","supvfjjr1yr6smw","prime","5ee379c2c1832e050bac5c14","5f60e3c0a3b16e07647b2ff9","5f61dbf3937bc11866ea51cf","true","999","./Stimuli/SelectedImages/SM/SM74.bmp","83","","","","test","true","M + N","83","repetition","SM","SM74.bmp","forget","","74","3","prime1","left","","","",""
"html-keyboard-response","197","710549","0.0-4.0-1.0-3.25","supvfjjr1yr6smw","prime","5ee379c2c1832e050bac5c14","5f60e3c0a3b16e07647b2ff9","5f61dbf3937bc11866ea51cf","false","null","<div style=""align-items: center; display: flex; color: darkorange; font-size: 90px""><b>ø</b></div>","null","","","","forget_cue","","","","","","","","","","","","","","","",""
"html-keyboard-response","198","711251","0.0-4.0-1.0-0.26","supvfjjr1yr6smw","prime","5ee379c2c1832e050bac5c14","5f60e3c0a3b16e07647b2ff9","5f61dbf3937bc11866ea51cf","false","null","<span style=""color: black; font-size: 48px"">N + M</span>","null","","","","resp_prompt","","","","","","","","","","","","","","","",""
"categorize-image","199","712137","0.0-4.0-1.0-1.26","supvfjjr1yr6smw","prime","5ee379c2c1832e050bac5c14","5f60e3c0a3b16e07647b2ff9","5f61dbf3937bc11866ea51cf","true","883","./Stimuli/SelectedImages/SM/SM184.bmp","76","","","","test","true","N + M","76","repetition","SM","SM184.bmp","forget","","75","3","prime1","right","","","",""
"html-keyboard-response","200","714138","0.0-4.0-1.0-3.26","supvfjjr1yr6smw","prime","5ee379c2c1832e050bac5c14","5f60e3c0a3b16e07647b2ff9","5f61dbf3937bc11866ea51cf","false","null","<div style=""align-items: center; display: flex; color: darkorange; font-size: 90px""><b>ø</b></div>","null","","","","forget_cue","","","","","","","","","","","","","","","",""
"html-keyboard-response","201","714839","0.0-4.0-1.0-0.27","supvfjjr1yr6smw","prime","5ee379c2c1832e050bac5c14","5f60e3c0a3b16e07647b2ff9","5f61dbf3937bc11866ea51cf","false","null","<span style=""color: black; font-size: 48px"">M + N</span>","null","","","","resp_prompt","","","","","","","","","","","","","","","",""
"categorize-image","202","715760","0.0-4.0-1.0-1.27","supvfjjr1yr6smw","prime","5ee379c2c1832e050bac5c14","5f60e3c0a3b16e07647b2ff9","5f61dbf3937bc11866ea51cf","true","917","./Stimuli/SelectedImages/LN/LN101.bmp","76","","","","test","true","M + N","76","repetition","LN","LN101.bmp","forget","","76","3","prime1","right","","","",""
"html-keyboard-response","203","717761","0.0-4.0-1.0-3.27","supvfjjr1yr6smw","prime","5ee379c2c1832e050bac5c14","5f60e3c0a3b16e07647b2ff9","5f61dbf3937bc11866ea51cf","false","null","<div style=""align-items: center; display: flex; color: darkorange; font-size: 90px""><b>ø</b></div>","null","","","","forget_cue","","","","","","","","","","","","","","","",""
"html-keyboard-response","204","718464","0.0-4.0-1.0-0.28","supvfjjr1yr6smw","prime","5ee379c2c1832e050bac5c14","5f60e3c0a3b16e07647b2ff9","5f61dbf3937bc11866ea51cf","false","null","<span style=""color: black; font-size: 48px"">M + N</span>","null","","","","resp_prompt","","","","","","","","","","","","","","","",""
"categorize-image","205","719319","0.0-4.0-1.0-1.28","supvfjjr1yr6smw","prime","5ee379c2c1832e050bac5c14","5f60e3c0a3b16e07647b2ff9","5f61dbf3937bc11866ea51cf","true","849","./Stimuli/SelectedImages/SM/SM78.bmp","83","","","","test","true","M + N","83","switch","SM","SM78.bmp","forget","","77","3","prime1","left","","","",""
"html-keyboard-response","206","721321","0.0-4.0-1.0-3.28","supvfjjr1yr6smw","prime","5ee379c2c1832e050bac5c14","5f60e3c0a3b16e07647b2ff9","5f61dbf3937bc11866ea51cf","false","null","<div style=""align-items: center; display: flex; color: darkorange; font-size: 90px""><b>ø</b></div>","null","","","","forget_cue","","","","","","","","","","","","","","","",""
"html-keyboard-response","207","722021","0.0-4.0-1.0-0.29","supvfjjr1yr6smw","prime","5ee379c2c1832e050bac5c14","5f60e3c0a3b16e07647b2ff9","5f61dbf3937bc11866ea51cf","false","null","<span style=""color: black; font-size: 48px"">N + M</span>","null","","","","resp_prompt","","","","","","","","","","","","","","","",""
"categorize-image","208","723188","0.0-4.0-1.0-1.29","supvfjjr1yr6smw","prime","5ee379c2c1832e050bac5c14","5f60e3c0a3b16e07647b2ff9","5f61dbf3937bc11866ea51cf","true","1163","./Stimuli/SelectedImages/SN/SN18.bmp","83","","","","test","true","N + M","83","switch","SN","SN18.bmp","forget","","78","3","prime1","left","","","",""
"html-keyboard-response","209","725189","0.0-4.0-1.0-3.29","supvfjjr1yr6smw","prime","5ee379c2c1832e050bac5c14","5f60e3c0a3b16e07647b2ff9","5f61dbf3937bc11866ea51cf","false","null","<div style=""align-items: center; display: flex; color: darkorange; font-size: 90px""><b>ø</b></div>","null","","","","forget_cue","","","","","","","","","","","","","","","",""
"html-keyboard-response","210","725891","0.0-4.0-1.0-0.30","supvfjjr1yr6smw","prime","5ee379c2c1832e050bac5c14","5f60e3c0a3b16e07647b2ff9","5f61dbf3937bc11866ea51cf","false","null","<span style=""color: black; font-size: 48px"">N + M</span>","null","","","","resp_prompt","","","","","","","","","","","","","","","",""
"categorize-image","211","726599","0.0-4.0-1.0-1.30","supvfjjr1yr6smw","prime","5ee379c2c1832e050bac5c14","5f60e3c0a3b16e07647b2ff9","5f61dbf3937bc11866ea51cf","true","705","./Stimuli/SelectedImages/SM/SM195.bmp","76","","","","test","true","N + M","76","switch","SM","SM195.bmp","forget","","79","3","prime1","right","","","",""
"html-keyboard-response","212","728600","0.0-4.0-1.0-3.30","supvfjjr1yr6smw","prime","5ee379c2c1832e050bac5c14","5f60e3c0a3b16e07647b2ff9","5f61dbf3937bc11866ea51cf","false","null","<div style=""align-items: center; display: flex; color: darkorange; font-size: 90px""><b>ø</b></div>","null","","","","forget_cue","","","","","","","","","","","","","","","",""
"html-keyboard-response","213","729301","0.0-4.0-1.0-0.31","supvfjjr1yr6smw","prime","5ee379c2c1832e050bac5c14","5f60e3c0a3b16e07647b2ff9","5f61dbf3937bc11866ea51cf","false","null","<span style=""color: black; font-size: 48px"">N + M</span>","null","","","","resp_prompt","","","","","","","","","","","","","","","",""
"categorize-image","214","730484","0.0-4.0-1.0-1.31","supvfjjr1yr6smw","prime","5ee379c2c1832e050bac5c14","5f60e3c0a3b16e07647b2ff9","5f61dbf3937bc11866ea51cf","true","1180","./Stimuli/SelectedImages/SM/SM106.bmp","76","","","","test","true","N + M","76","repetition","SM","SM106.bmp","forget","","80","3","prime1","right","","","",""
"html-keyboard-response","215","732486","0.0-4.0-1.0-3.31","supvfjjr1yr6smw","prime","5ee379c2c1832e050bac5c14","5f60e3c0a3b16e07647b2ff9","5f61dbf3937bc11866ea51cf","false","null","<div style=""align-items: center; display: flex; color: darkorange; font-size: 90px""><b>ø</b></div>","null","","","","forget_cue","","","","","","","","","","","","","","","",""
"html-keyboard-response","216","733187","0.0-4.0-1.0-0.32","supvfjjr1yr6smw","prime","5ee379c2c1832e050bac5c14","5f60e3c0a3b16e07647b2ff9","5f61dbf3937bc11866ea51cf","false","null","<span style=""color: black; font-size: 48px"">M + N</span>","null","","","","resp_prompt","","","","","","","","","","","","","","","",""
"categorize-image","217","734107","0.0-4.0-1.0-1.32","supvfjjr1yr6smw","prime","5ee379c2c1832e050bac5c14","5f60e3c0a3b16e07647b2ff9","5f61dbf3937bc11866ea51cf","true","915","./Stimuli/SelectedImages/SN/SN60.bmp","76","","","","test","true","M + N","76","repetition","SN","SN60.bmp","forget","","81","3","prime1","right","","","",""
"html-keyboard-response","218","736108","0.0-4.0-1.0-3.32","supvfjjr1yr6smw","prime","5ee379c2c1832e050bac5c14","5f60e3c0a3b16e07647b2ff9","5f61dbf3937bc11866ea51cf","false","null","<div style=""align-items: center; display: flex; color: darkorange; font-size: 90px""><b>ø</b></div>","null","","","","forget_cue","","","","","","","","","","","","","","","",""
"html-keyboard-response","219","736810","0.0-4.0-1.0-0.33","supvfjjr1yr6smw","prime","5ee379c2c1832e050bac5c14","5f60e3c0a3b16e07647b2ff9","5f61dbf3937bc11866ea51cf","false","null","<span style=""color: black; font-size: 48px"">N + M</span>","null","","","","resp_prompt","","","","","","","","","","","","","","","",""
"categorize-image","220","737646","0.0-4.0-1.0-1.33","supvfjjr1yr6smw","prime","5ee379c2c1832e050bac5c14","5f60e3c0a3b16e07647b2ff9","5f61dbf3937bc11866ea51cf","true","832","./Stimuli/SelectedImages/LM/LM167.bmp","76","","","","test","true","N + M","76","switch","LM","LM167.bmp","remember","","82","3","prime1","right","","","",""
"html-keyboard-response","221","739648","0.0-4.0-1.0-3.33","supvfjjr1yr6smw","prime","5ee379c2c1832e050bac5c14","5f60e3c0a3b16e07647b2ff9","5f61dbf3937bc11866ea51cf","false","null","<div style=""align-items: center; display: flex; color: dodgerblue; font-size: 90px""><b>o</b></div>","null","","","","forget_cue","","","","","","","","","","","","","","","",""
"html-keyboard-response","222","740350","0.0-4.0-1.0-0.34","supvfjjr1yr6smw","prime","5ee379c2c1832e050bac5c14","5f60e3c0a3b16e07647b2ff9","5f61dbf3937bc11866ea51cf","false","null","<span style=""color: black; font-size: 48px"">N + M</span>","null","","","","resp_prompt","","","","","","","","","","","","","","","",""
"categorize-image","223","741302","0.0-4.0-1.0-1.34","supvfjjr1yr6smw","prime","5ee379c2c1832e050bac5c14","5f60e3c0a3b16e07647b2ff9","5f61dbf3937bc11866ea51cf","true","948","./Stimuli/SelectedImages/LM/LM129.bmp","76","","","","test","true","N + M","76","repetition","LM","LM129.bmp","remember","","83","3","prime1","right","","","",""
"html-keyboard-response","224","743303","0.0-4.0-1.0-3.34","supvfjjr1yr6smw","prime","5ee379c2c1832e050bac5c14","5f60e3c0a3b16e07647b2ff9","5f61dbf3937bc11866ea51cf","false","null","<div style=""align-items: center; display: flex; color: dodgerblue; font-size: 90px""><b>o</b></div>","null","","","","forget_cue","","","","","","","","","","","","","","","",""
"html-keyboard-response","225","744005","0.0-4.0-1.0-0.35","supvfjjr1yr6smw","prime","5ee379c2c1832e050bac5c14","5f60e3c0a3b16e07647b2ff9","5f61dbf3937bc11866ea51cf","false","null","<span style=""color: black; font-size: 48px"">M + N</span>","null","","","","resp_prompt","","","","","","","","","","","","","","","",""
"categorize-image","226","744944","0.0-4.0-1.0-1.35","supvfjjr1yr6smw","prime","5ee379c2c1832e050bac5c14","5f60e3c0a3b16e07647b2ff9","5f61dbf3937bc11866ea51cf","true","936","./Stimuli/SelectedImages/LN/LN131.bmp","76","","","","test","true","M + N","76","switch","LN","LN131.bmp","remember","","84","3","prime1","right","","","",""
"html-keyboard-response","227","746945","0.0-4.0-1.0-3.35","supvfjjr1yr6smw","prime","5ee379c2c1832e050bac5c14","5f60e3c0a3b16e07647b2ff9","5f61dbf3937bc11866ea51cf","false","null","<div style=""align-items: center; display: flex; color: dodgerblue; font-size: 90px""><b>o</b></div>","null","","","","forget_cue","","","","","","","","","","","","","","","",""
"html-keyboard-response","228","747646","0.0-4.0-1.0-0.36","supvfjjr1yr6smw","prime","5ee379c2c1832e050bac5c14","5f60e3c0a3b16e07647b2ff9","5f61dbf3937bc11866ea51cf","false","null","<span style=""color: black; font-size: 48px"">M + N</span>","null","","","","resp_prompt","","","","","","","","","","","","","","","",""
"categorize-image","229","748520","0.0-4.0-1.0-1.36","supvfjjr1yr6smw","prime","5ee379c2c1832e050bac5c14","5f60e3c0a3b16e07647b2ff9","5f61dbf3937bc11866ea51cf","true","869","./Stimuli/SelectedImages/SN/SN111.bmp","76","","","","test","true","M + N","76","repetition","SN","SN111.bmp","forget","","85","3","prime1","right","","","",""
"html-keyboard-response","230","750521","0.0-4.0-1.0-3.36","supvfjjr1yr6smw","prime","5ee379c2c1832e050bac5c14","5f60e3c0a3b16e07647b2ff9","5f61dbf3937bc11866ea51cf","false","null","<div style=""align-items: center; display: flex; color: darkorange; font-size: 90px""><b>ø</b></div>","null","","","","forget_cue","","","","","","","","","","","","","","","",""
"html-keyboard-response","231","751221","0.0-4.0-1.0-0.37","supvfjjr1yr6smw","prime","5ee379c2c1832e050bac5c14","5f60e3c0a3b16e07647b2ff9","5f61dbf3937bc11866ea51cf","false","null","<span style=""color: black; font-size: 48px"">M + N</span>","null","","","","resp_prompt","","","","","","","","","","","","","","","",""
"categorize-image","232","752219","0.0-4.0-1.0-1.37","supvfjjr1yr6smw","prime","5ee379c2c1832e050bac5c14","5f60e3c0a3b16e07647b2ff9","5f61dbf3937bc11866ea51cf","true","994","./Stimuli/SelectedImages/LN/LN42.bmp","76","","","","test","true","M + N","76","repetition","LN","LN42.bmp","remember","","86","3","prime1","right","","","",""
"html-keyboard-response","233","754220","0.0-4.0-1.0-3.37","supvfjjr1yr6smw","prime","5ee379c2c1832e050bac5c14","5f60e3c0a3b16e07647b2ff9","5f61dbf3937bc11866ea51cf","false","null","<div style=""align-items: center; display: flex; color: dodgerblue; font-size: 90px""><b>o</b></div>","null","","","","forget_cue","","","","","","","","","","","","","","","",""
"html-keyboard-response","234","754922","0.0-4.0-1.0-0.38","supvfjjr1yr6smw","prime","5ee379c2c1832e050bac5c14","5f60e3c0a3b16e07647b2ff9","5f61dbf3937bc11866ea51cf","false","null","<span style=""color: black; font-size: 48px"">N + M</span>","null","","","","resp_prompt","","","","","","","","","","","","","","","",""
"categorize-image","235","755538","0.0-4.0-1.0-1.38","supvfjjr1yr6smw","prime","5ee379c2c1832e050bac5c14","5f60e3c0a3b16e07647b2ff9","5f61dbf3937bc11866ea51cf","true","614","./Stimuli/SelectedImages/SN/SN155.bmp","83","","","","test","true","N + M","83","repetition","SN","SN155.bmp","forget","","87","3","prime1","left","","","",""
"html-keyboard-response","236","757540","0.0-4.0-1.0-3.38","supvfjjr1yr6smw","prime","5ee379c2c1832e050bac5c14","5f60e3c0a3b16e07647b2ff9","5f61dbf3937bc11866ea51cf","false","null","<div style=""align-items: center; display: flex; color: darkorange; font-size: 90px""><b>ø</b></div>","null","","","","forget_cue","","","","","","","","","","","","","","","",""
"html-keyboard-response","237","758241","0.0-4.0-1.0-0.39","supvfjjr1yr6smw","prime","5ee379c2c1832e050bac5c14","5f60e3c0a3b16e07647b2ff9","5f61dbf3937bc11866ea51cf","false","null","<span style=""color: black; font-size: 48px"">M + N</span>","null","","","","resp_prompt","","","","","","","","","","","","","","","",""
"categorize-image","238","759121","0.0-4.0-1.0-1.39","supvfjjr1yr6smw","prime","5ee379c2c1832e050bac5c14","5f60e3c0a3b16e07647b2ff9","5f61dbf3937bc11866ea51cf","true","876","./Stimuli/SelectedImages/SN/SN49.bmp","76","","","","test","true","M + N","76","switch","SN","SN49.bmp","forget","","88","3","prime1","right","","","",""
"html-keyboard-response","239","761123","0.0-4.0-1.0-3.39","supvfjjr1yr6smw","prime","5ee379c2c1832e050bac5c14","5f60e3c0a3b16e07647b2ff9","5f61dbf3937bc11866ea51cf","false","null","<div style=""align-items: center; display: flex; color: darkorange; font-size: 90px""><b>ø</b></div>","null","","","","forget_cue","","","","","","","","","","","","","","","",""
"html-keyboard-response","240","761824","0.0-4.0-1.0-0.40","supvfjjr1yr6smw","prime","5ee379c2c1832e050bac5c14","5f60e3c0a3b16e07647b2ff9","5f61dbf3937bc11866ea51cf","false","null","<span style=""color: black; font-size: 48px"">N + M</span>","null","","","","resp_prompt","","","","","","","","","","","","","","","",""
"categorize-image","241","762585","0.0-4.0-1.0-1.40","supvfjjr1yr6smw","prime","5ee379c2c1832e050bac5c14","5f60e3c0a3b16e07647b2ff9","5f61dbf3937bc11866ea51cf","true","758","./Stimuli/SelectedImages/LN/LN111.bmp","83","","","","test","true","N + M","83","repetition","LN","LN111.bmp","forget","","89","3","prime1","left","","","",""
"html-keyboard-response","242","764586","0.0-4.0-1.0-3.40","supvfjjr1yr6smw","prime","5ee379c2c1832e050bac5c14","5f60e3c0a3b16e07647b2ff9","5f61dbf3937bc11866ea51cf","false","null","<div style=""align-items: center; display: flex; color: darkorange; font-size: 90px""><b>ø</b></div>","null","","","","forget_cue","","","","","","","","","","","","","","","",""
"html-keyboard-response","243","765287","0.0-4.0-1.0-0.41","supvfjjr1yr6smw","prime","5ee379c2c1832e050bac5c14","5f60e3c0a3b16e07647b2ff9","5f61dbf3937bc11866ea51cf","false","null","<span style=""color: black; font-size: 48px"">M + N</span>","null","","","","resp_prompt","","","","","","","","","","","","","","","",""
"categorize-image","244","765911","0.0-4.0-1.0-1.41","supvfjjr1yr6smw","prime","5ee379c2c1832e050bac5c14","5f60e3c0a3b16e07647b2ff9","5f61dbf3937bc11866ea51cf","true","620","./Stimuli/SelectedImages/SN/SN179.bmp","76","","","","test","true","M + N","76","switch","SN","SN179.bmp","remember","","90","3","prime1","right","","","",""
"html-keyboard-response","245","767913","0.0-4.0-1.0-3.41","supvfjjr1yr6smw","prime","5ee379c2c1832e050bac5c14","5f60e3c0a3b16e07647b2ff9","5f61dbf3937bc11866ea51cf","false","null","<div style=""align-items: center; display: flex; color: dodgerblue; font-size: 90px""><b>o</b></div>","null","","","","forget_cue","","","","","","","","","","","","","","","",""
"html-keyboard-response","246","768614","0.0-4.0-1.0-0.42","supvfjjr1yr6smw","prime","5ee379c2c1832e050bac5c14","5f60e3c0a3b16e07647b2ff9","5f61dbf3937bc11866ea51cf","false","null","<span style=""color: black; font-size: 48px"">M + N</span>","null","","","","resp_prompt","","","","","","","","","","","","","","","",""
"categorize-image","247","769448","0.0-4.0-1.0-1.42","supvfjjr1yr6smw","prime","5ee379c2c1832e050bac5c14","5f60e3c0a3b16e07647b2ff9","5f61dbf3937bc11866ea51cf","true","830","./Stimuli/SelectedImages/SM/SM205.bmp","83","","","","test","true","M + N","83","repetition","SM","SM205.bmp","forget","","91","3","prime1","left","","","",""
"html-keyboard-response","248","771450","0.0-4.0-1.0-3.42","supvfjjr1yr6smw","prime","5ee379c2c1832e050bac5c14","5f60e3c0a3b16e07647b2ff9","5f61dbf3937bc11866ea51cf","false","null","<div style=""align-items: center; display: flex; color: darkorange; font-size: 90px""><b>ø</b></div>","null","","","","forget_cue","","","","","","","","","","","","","","","",""
"html-keyboard-response","249","772150","0.0-4.0-1.0-0.43","supvfjjr1yr6smw","prime","5ee379c2c1832e050bac5c14","5f60e3c0a3b16e07647b2ff9","5f61dbf3937bc11866ea51cf","false","null","<span style=""color: black; font-size: 48px"">M + N</span>","null","","","","resp_prompt","","","","","","","","","","","","","","","",""
"categorize-image","250","773455","0.0-4.0-1.0-1.43","supvfjjr1yr6smw","prime","5ee379c2c1832e050bac5c14","5f60e3c0a3b16e07647b2ff9","5f61dbf3937bc11866ea51cf","true","1300","./Stimuli/SelectedImages/SM/SM148.bmp","76","","","","test","false","M + N","83","switch","SM","SM148.bmp","forget","","92","3","prime1","right","","","",""
"html-keyboard-response","251","773957","0.0-4.0-1.0-2.43-0.43","supvfjjr1yr6smw","prime","5ee379c2c1832e050bac5c14","5f60e3c0a3b16e07647b2ff9","5f61dbf3937bc11866ea51cf","false","null","<span style=""color: red; font-size: 48px"">Error!</span>","null","","","","feedback","","","","","","","","","","","","","","","",""
"html-keyboard-response","252","775959","0.0-4.0-1.0-3.43","supvfjjr1yr6smw","prime","5ee379c2c1832e050bac5c14","5f60e3c0a3b16e07647b2ff9","5f61dbf3937bc11866ea51cf","false","null","<div style=""align-items: center; display: flex; color: darkorange; font-size: 90px""><b>ø</b></div>","null","","","","forget_cue","","","","","","","","","","","","","","","",""
"html-keyboard-response","253","776660","0.0-4.0-1.0-0.44","supvfjjr1yr6smw","prime","5ee379c2c1832e050bac5c14","5f60e3c0a3b16e07647b2ff9","5f61dbf3937bc11866ea51cf","false","null","<span style=""color: black; font-size: 48px"">N + M</span>","null","","","","resp_prompt","","","","","","","","","","","","","","","",""
"categorize-image","254","777455","0.0-4.0-1.0-1.44","supvfjjr1yr6smw","prime","5ee379c2c1832e050bac5c14","5f60e3c0a3b16e07647b2ff9","5f61dbf3937bc11866ea51cf","true","791","./Stimuli/SelectedImages/LN/LN82.bmp","83","","","","test","true","N + M","83","repetition","LN","LN82.bmp","forget","","93","3","prime1","left","","","",""
"html-keyboard-response","255","779457","0.0-4.0-1.0-3.44","supvfjjr1yr6smw","prime","5ee379c2c1832e050bac5c14","5f60e3c0a3b16e07647b2ff9","5f61dbf3937bc11866ea51cf","false","null","<div style=""align-items: center; display: flex; color: darkorange; font-size: 90px""><b>ø</b></div>","null","","","","forget_cue","","","","","","","","","","","","","","","",""
"html-keyboard-response","256","780160","0.0-4.0-1.0-0.45","supvfjjr1yr6smw","prime","5ee379c2c1832e050bac5c14","5f60e3c0a3b16e07647b2ff9","5f61dbf3937bc11866ea51cf","false","null","<span style=""color: black; font-size: 48px"">N + M</span>","null","","","","resp_prompt","","","","","","","","","","","","","","","",""
"categorize-image","257","781194","0.0-4.0-1.0-1.45","supvfjjr1yr6smw","prime","5ee379c2c1832e050bac5c14","5f60e3c0a3b16e07647b2ff9","5f61dbf3937bc11866ea51cf","true","1030","./Stimuli/SelectedImages/LN/LN150.bmp","83","","","","test","true","N + M","83","switch","LN","LN150.bmp","forget","","94","3","prime1","left","","","",""
