"trial_type","trial_index","time_elapsed","internal_node_id","subject","exp_part","prolific_PID","study_ID","session_ID","use","rt","stimulus","key_press","button_pressed","responses","question_order","trial_part","correct","resp_map","correct_resp","probe_condition","category","image","forget_condition","list","trial_num","block_num","block","response","test_part","n_span","sequence","num_spaces"
"pavlovia","0","4","0.0-0.0","lm6gpr3o7e0o3wr","","5f30e412a128545570576268","5f60e3c0a3b16e07647b2ff9","5f61dbf862ed4e0556ea25fa","false","","","","","","","","","","","","","","","","","","","","","","",""
"html-keyboard-response","1","4857","0.0-1.0-0.0-0.0","lm6gpr3o7e0o3wr","welcome","5f30e412a128545570576268","5f60e3c0a3b16e07647b2ff9","5f61dbf862ed4e0556ea25fa","false","4850.365000078455","<div align=left>Dear participant, <br> thank you for participating in an online study of the Cognition, Action, and Sustainability Unit of the University of Freiburg! <br> <br>The aim of this study is to examine our ability to remember previously learned information. <br>Our goal is to find out, whether our memory improves, when we only remember information that is relevant to us. <br>The experiment will take about 35 minutes to complete. <br> <br>Please, note that you can only participate in this study if you are using a device with a keyboard (PC, Laptop etc.) <br>and not if you are using a mobile device such as a tablet or smartphone.<br> <br>Press 'SPACE' to proceed to the experiment. </div>","32","","","","","","","","","","","","","","","","","","","",""
"html-keyboard-response","2","18246","0.0-1.0-0.0-1.0","lm6gpr3o7e0o3wr","welcome","5f30e412a128545570576268","5f60e3c0a3b16e07647b2ff9","5f61dbf862ed4e0556ea25fa","false","13387.19499995932","<div align=left><strong> Time Course of this experiment: </strong> <br><br> <strong> 1.</strong>  First, please fill in some information regarding your demographic data. <br><br> <strong> 2.</strong>  Next, your task will be to classify everyday objects. <br>In addition, you will be asked to remember certain objects and recall them later. <br>Working on these tasks requires your undivided attention and concentration.<br>It is therefore essential that you eliminate any sources of distraction in your  <br>environment and ensure that you will not be disturbed. <br><br><strong> 3.</strong>  At the end of the experiment, you will be asked to answer a few additional questions. <br> <br><strong> Important:</strong> After finishing the experiment, only close the browser window <br> by clicking on the 'end the experiment'-button when you are asked to do so. <br>Closing the browser window prematurely will make the allocation of your participation credit impossible. <br><br> Press 'SPACE' to start the experiment. </div>","32","","","","","","","","","","","","","","","","","","","",""
"html-button-response","3","22135","0.0-1.0-0.0-2.0","lm6gpr3o7e0o3wr","welcome","5f30e412a128545570576268","5f60e3c0a3b16e07647b2ff9","5f61dbf862ed4e0556ea25fa","true","3887.4299998860806","<div align=left><strong> Informed consent </strong>  <br>The aim of our research is to better understand human behavior and mental processes. <br>In the following study your behavior (e.g. choices, reaction times) will be studied. <br> <br><strong> Voluntariness and Anonymity </strong> <br>Your participation in this study is  <strong> voluntary</strong>.<br>You may withdraw your consent to participate at any time without providing a reason for doing so and without fear of prejudice. <br><br>As no personal data will be collected, <strong>your data and your person cannot be connected after data collection</strong> – the data-set is anonymous. <br>Respectively, deletion of your data will not be possible after data collection has been completed, as we cannot retrace your data-set.<br>The results and anonymized data collected in this study will be published as a scientific publication. <br>This will happen in an <strong>anonymized format</strong>, so that no data can be traced back to a specific person. <br> <br>The anonymized data of this study will be made available to other researchers and/or in a data archive on the Internet as a means of transparency and to enable subsequent re-use. By doing so, this study follows the recommendations of the Deutsche Forschungsgemeinschaft (DFG, German Research Foundation) and Deutsche Gesellschaft für Psychologie (DGPS, German Psychological Society) regarding quality assurance in research.<br>If you have any questions now or after the experiment, please contact our team (experiments@cs.uni-freiburg.de).<br><br><br>I hereby declare, that I understand the above described conditions of participation and I agree to participate under these conditions. <br><br> </div>","","0","","","","","","","","","","","","","","","","","","",""
"html-keyboard-response","4","42232","0.0-1.0-0.0-3.0","lm6gpr3o7e0o3wr","welcome","5f30e412a128545570576268","5f60e3c0a3b16e07647b2ff9","5f61dbf862ed4e0556ea25fa","false","20095.12499999255","<div align=left><strong> General information concerning the experiment </strong>  <br> <br>Please follow the instructions:<ol> <li><strong> Do not leave this tab (your browser window) during the experiment and do not reload this tab! </strong>  <br>If you do switch tabs/windows during the experiment (to check your mail or visit another website, for example), <br>the experiment will end automatically and you will <strong>not receive credit</strong> for your participation. <br>Repeated participation or resumption of the experiment is impossible.</li> <br><li>Please close all other programs for the duration of your participation. </li> <br><li>Please mute or turn off your phone and put it out of your reach. </li> <br><li>Please also take off any disturbing accessories (such as wristwatches, bracelets, etc.). </li> <br><li>If you have music playing in the background, please turn it off now. </li> <br></ol>Thank you! <br>Press 'SPACE' to continue. </div>","32","","","","","","","","","","","","","","","","","","","",""
"survey-text","5","45862","0.0-1.0-1.0-0.0","lm6gpr3o7e0o3wr","demographics","5f30e412a128545570576268","5f60e3c0a3b16e07647b2ff9","5f61dbf862ed4e0556ea25fa","true","3625.7199998945","","","","{""age"":""22""}","","","","","","","","","","","","","","","","","",""
"survey-multi-choice","6","57055","0.0-1.0-1.0-1.0","lm6gpr3o7e0o3wr","demographics","5f30e412a128545570576268","5f60e3c0a3b16e07647b2ff9","5f61dbf862ed4e0556ea25fa","true","11190.700000151992","","","","{""gender"":""male"",""school"":""high school"",""education"":""High school graduate, diploma or equivalent""}","[0,1,2]","","","","","","","","","","","","","","","","",""
"html-keyboard-response","7","70061","0.0-1.0-2.0","lm6gpr3o7e0o3wr","instructions","5f30e412a128545570576268","5f60e3c0a3b16e07647b2ff9","5f61dbf862ed4e0556ea25fa","false","13002.070000162348","<div align=left> The experiment is now about to start: <br> <br>In the following part, you will be presented pictures of everyday objects. <br>Your first task is to <strong>classify these objects. </strong> <br> <br> You will classify them either as mechanical or non-mechanical objects. <br> <br>Objects that include any kind of technical mechanism (for example, wheels, switches, levers, <br> electronic components) fall under the category of <strong>mechanical</strong> objects. <br>Only objects without any kind of technical mechanism should be classified as <strong>non-mechanical</strong>. <br><br>Press 'SPACE' to continue. </div>","32","","","","","","","","","","","","","","","","","","","",""
"html-keyboard-response","8","126349","0.0-2.0-0.0","lm6gpr3o7e0o3wr","instructions","5f30e412a128545570576268","5f60e3c0a3b16e07647b2ff9","5f61dbf862ed4e0556ea25fa","false","56286.450000014156","<div align=justify>You will classify the objects using the <strong>'S'</strong> and the <strong>'L'</strong> keys on your keyboard.<br>For doing so, please place your <strong>left index finger</strong> on the <strong>'S'</strong> key and place your <strong>right index finger</strong> on the <strong>'L'</strong> key. <br><br> Each trial starts with an instruction, indicating which key ('S'/'L') you need to press to classify <br>the object as mechanical (letter M) or non-mechanical (letter N).<br>The instruction <strong>M + N</strong> indicates that, in the current trial, by pressing the left key ('S') you classify the displayed object as mechanical (M) <br> and by pressing the right key ('L') you classify the object as non-mechanical (N). <br>The instruction <strong>N + M</strong> on the other hand indicates that by pressing the left key ('S') you classify the displayed object as non-mechanical (N) <br> and by pressing the right key ('L') you classify the object as mechanical (M). <br><br>Please press the key corresponding to the correct classification as fast as possible as soon as the object is displayed and try to avoid making mistakes.<br>If you do not respond within a 2 second window, a corresponding feedback will be displayed and the next trial will start.<br> The experiment is divided into multiple blocks to give you the opportunity to take a break after each block. <br>First, you can now practice this task. <br><br>Please place your <strong>LEFT INDEX FINGER</strong> on the 'S' key and your <strong>RIGHT INDEX FINGER</strong> on the 'L' key now. <br><br>Press SPACE to continue.</div>","32","","","","","","","","","","","","","","","","","","","",""
"html-keyboard-response","9","134006","0.0-2.0-1.0","lm6gpr3o7e0o3wr","instructions","5f30e412a128545570576268","5f60e3c0a3b16e07647b2ff9","5f61dbf862ed4e0556ea25fa","false","7656.345000024885","<div align=left> You will now have time to practice this task.<br><br>Remember: <br> <br><li>Please place your index fingers on the <strong>'S'</strong> and <strong>'L'</strong> keys <br>to respond as fast and accurately as possible.</li><li>Every picture can be classified as either mechanical or non-mechanical.</li><li>If you do not respond in time or commit an error, you will receive a corresponding feedback. </li><li> Please try to respond as <strong> fast </strong> and as <strong> accurately as possible </strong> .<br><li>To ensure optimal results, please minimize distractions and stay focused. </li><br><br>Press SPACE to continue.</div>","32","","","","","","","","","","","","","","","","","","","",""
"html-keyboard-response","10","134708","0.0-2.0-2.0-0.0","lm6gpr3o7e0o3wr","practice_no_cue","5f30e412a128545570576268","5f60e3c0a3b16e07647b2ff9","5f61dbf862ed4e0556ea25fa","false","null","<span style=""color: black; font-size: 48px"">N + M</span>","null","","","","resp_prompt","","","","","","","","","","","","","","","",""
"categorize-image","11","137212","0.0-2.0-2.0-1.0","lm6gpr3o7e0o3wr","practice_no_cue","5f30e412a128545570576268","5f60e3c0a3b16e07647b2ff9","5f61dbf862ed4e0556ea25fa","true","null","./Stimuli/ImagesPractice/SM35.jpg","null","","","","test","false","N + M","76","","SM","SM35.jpg","remember","old","1","1","start","too_slow","","","",""
"html-keyboard-response","12","137914","0.0-2.0-2.0-0.1","lm6gpr3o7e0o3wr","practice_no_cue","5f30e412a128545570576268","5f60e3c0a3b16e07647b2ff9","5f61dbf862ed4e0556ea25fa","false","null","<span style=""color: black; font-size: 48px"">M + N</span>","null","","","","resp_prompt","","","","","","","","","","","","","","","",""
"categorize-image","13","140338","0.0-2.0-2.0-1.1","lm6gpr3o7e0o3wr","practice_no_cue","5f30e412a128545570576268","5f60e3c0a3b16e07647b2ff9","5f61dbf862ed4e0556ea25fa","true","1921.7100001405925","./Stimuli/ImagesPractice/SM62.jpg","76","","","","test","false","M + N","83","","SM","SM62.jpg","remember","old","2","1","start","right","","","",""
"html-keyboard-response","14","141040","0.0-2.0-2.0-0.2","lm6gpr3o7e0o3wr","practice_no_cue","5f30e412a128545570576268","5f60e3c0a3b16e07647b2ff9","5f61dbf862ed4e0556ea25fa","false","null","<span style=""color: black; font-size: 48px"">M + N</span>","null","","","","resp_prompt","","","","","","","","","","","","","","","",""
"categorize-image","15","142288","0.0-2.0-2.0-1.2","lm6gpr3o7e0o3wr","practice_no_cue","5f30e412a128545570576268","5f60e3c0a3b16e07647b2ff9","5f61dbf862ed4e0556ea25fa","true","745.155000127852","./Stimuli/ImagesPractice/SN221.jpg","83","","","","test","false","M + N","76","","SN","SN221.jpg","forget","old","3","1","start","left","","","",""
"html-keyboard-response","16","142991","0.0-2.0-2.0-0.3","lm6gpr3o7e0o3wr","practice_no_cue","5f30e412a128545570576268","5f60e3c0a3b16e07647b2ff9","5f61dbf862ed4e0556ea25fa","false","null","<span style=""color: black; font-size: 48px"">M + N</span>","null","","","","resp_prompt","","","","","","","","","","","","","","","",""
"categorize-image","17","144220","0.0-2.0-2.0-1.3","lm6gpr3o7e0o3wr","practice_no_cue","5f30e412a128545570576268","5f60e3c0a3b16e07647b2ff9","5f61dbf862ed4e0556ea25fa","true","727.3399999830872","./Stimuli/ImagesPractice/LM55.jpg","83","","","","test","true","M + N","83","","LM","LM55.jpg","remember","old","4","1","start","left","","","",""
"html-keyboard-response","18","144922","0.0-2.0-2.0-0.4","lm6gpr3o7e0o3wr","practice_no_cue","5f30e412a128545570576268","5f60e3c0a3b16e07647b2ff9","5f61dbf862ed4e0556ea25fa","false","null","<span style=""color: black; font-size: 48px"">N + M</span>","null","","","","resp_prompt","","","","","","","","","","","","","","","",""
"categorize-image","19","146200","0.0-2.0-2.0-1.4","lm6gpr3o7e0o3wr","practice_no_cue","5f30e412a128545570576268","5f60e3c0a3b16e07647b2ff9","5f61dbf862ed4e0556ea25fa","true","776.5099999960512","./Stimuli/ImagesPractice/LN4.jpg","76","","","","test","false","N + M","83","","LN","LN4.jpg","remember","old","5","1","start","right","","","",""
"html-keyboard-response","20","146902","0.0-2.0-2.0-0.5","lm6gpr3o7e0o3wr","practice_no_cue","5f30e412a128545570576268","5f60e3c0a3b16e07647b2ff9","5f61dbf862ed4e0556ea25fa","false","null","<span style=""color: black; font-size: 48px"">N + M</span>","null","","","","resp_prompt","","","","","","","","","","","","","","","",""
"categorize-image","21","148713","0.0-2.0-2.0-1.5","lm6gpr3o7e0o3wr","practice_no_cue","5f30e412a128545570576268","5f60e3c0a3b16e07647b2ff9","5f61dbf862ed4e0556ea25fa","true","1308.6399999447167","./Stimuli/ImagesPractice/SN222.jpg","76","","","","test","false","N + M","83","","SN","SN222.jpg","forget","old","6","1","start","right","","","",""
"html-keyboard-response","22","149414","0.0-2.0-2.0-0.6","lm6gpr3o7e0o3wr","practice_no_cue","5f30e412a128545570576268","5f60e3c0a3b16e07647b2ff9","5f61dbf862ed4e0556ea25fa","false","null","<span style=""color: black; font-size: 48px"">N + M</span>","null","","","","resp_prompt","","","","","","","","","","","","","","","",""
"categorize-image","23","150939","0.0-2.0-2.0-1.6","lm6gpr3o7e0o3wr","practice_no_cue","5f30e412a128545570576268","5f60e3c0a3b16e07647b2ff9","5f61dbf862ed4e0556ea25fa","true","1022.6699998602271","./Stimuli/ImagesPractice/SN205.jpg","83","","","","test","true","N + M","83","","SN","SN205.jpg","remember","old","7","1","start","left","","","",""
"html-keyboard-response","24","151640","0.0-2.0-2.0-0.7","lm6gpr3o7e0o3wr","practice_no_cue","5f30e412a128545570576268","5f60e3c0a3b16e07647b2ff9","5f61dbf862ed4e0556ea25fa","false","null","<span style=""color: black; font-size: 48px"">N + M</span>","null","","","","resp_prompt","","","","","","","","","","","","","","","",""
"categorize-image","25","153218","0.0-2.0-2.0-1.7","lm6gpr3o7e0o3wr","practice_no_cue","5f30e412a128545570576268","5f60e3c0a3b16e07647b2ff9","5f61dbf862ed4e0556ea25fa","true","1074.765000026673","./Stimuli/ImagesPractice/LM224.jpg","76","","","","test","true","N + M","76","","LM","LM224.jpg","forget","old","8","1","start","right","","","",""
"html-keyboard-response","26","153920","0.0-2.0-2.0-0.8","lm6gpr3o7e0o3wr","practice_no_cue","5f30e412a128545570576268","5f60e3c0a3b16e07647b2ff9","5f61dbf862ed4e0556ea25fa","false","null","<span style=""color: black; font-size: 48px"">N + M</span>","null","","","","resp_prompt","","","","","","","","","","","","","","","",""
"categorize-image","27","156424","0.0-2.0-2.0-1.8","lm6gpr3o7e0o3wr","practice_no_cue","5f30e412a128545570576268","5f60e3c0a3b16e07647b2ff9","5f61dbf862ed4e0556ea25fa","true","null","./Stimuli/ImagesPractice/LN72.jpg","null","","","","test","false","N + M","83","","LN","LN72.jpg","forget","old","9","1","start","too_slow","","","",""
"html-keyboard-response","28","157126","0.0-2.0-2.0-0.9","lm6gpr3o7e0o3wr","practice_no_cue","5f30e412a128545570576268","5f60e3c0a3b16e07647b2ff9","5f61dbf862ed4e0556ea25fa","false","null","<span style=""color: black; font-size: 48px"">M + N</span>","null","","","","resp_prompt","","","","","","","","","","","","","","","",""
"categorize-image","29","158564","0.0-2.0-2.0-1.9","lm6gpr3o7e0o3wr","practice_no_cue","5f30e412a128545570576268","5f60e3c0a3b16e07647b2ff9","5f61dbf862ed4e0556ea25fa","true","935.8899998478591","./Stimuli/ImagesPractice/LN2.jpg","76","","","","test","true","M + N","76","","LN","LN2.jpg","remember","old","10","1","start","right","","","",""
"html-keyboard-response","30","159265","0.0-2.0-2.0-0.10","lm6gpr3o7e0o3wr","practice_no_cue","5f30e412a128545570576268","5f60e3c0a3b16e07647b2ff9","5f61dbf862ed4e0556ea25fa","false","null","<span style=""color: black; font-size: 48px"">M + N</span>","null","","","","resp_prompt","","","","","","","","","","","","","","","",""
"categorize-image","31","160685","0.0-2.0-2.0-1.10","lm6gpr3o7e0o3wr","practice_no_cue","5f30e412a128545570576268","5f60e3c0a3b16e07647b2ff9","5f61dbf862ed4e0556ea25fa","true","917.5450000911951","./Stimuli/ImagesPractice/LN109.jpg","76","","","","test","true","M + N","76","","LN","LN109.jpg","forget","old","11","1","start","right","","","",""
"html-keyboard-response","32","161387","0.0-2.0-2.0-0.11","lm6gpr3o7e0o3wr","practice_no_cue","5f30e412a128545570576268","5f60e3c0a3b16e07647b2ff9","5f61dbf862ed4e0556ea25fa","false","null","<span style=""color: black; font-size: 48px"">N + M</span>","null","","","","resp_prompt","","","","","","","","","","","","","","","",""
"categorize-image","33","163005","0.0-2.0-2.0-1.11","lm6gpr3o7e0o3wr","practice_no_cue","5f30e412a128545570576268","5f60e3c0a3b16e07647b2ff9","5f61dbf862ed4e0556ea25fa","true","1115.4349998105317","./Stimuli/ImagesPractice/SN75.jpg","83","","","","test","true","N + M","83","","SN","SN75.jpg","forget","old","12","1","start","left","","","",""
"html-keyboard-response","34","163706","0.0-2.0-2.0-0.12","lm6gpr3o7e0o3wr","practice_no_cue","5f30e412a128545570576268","5f60e3c0a3b16e07647b2ff9","5f61dbf862ed4e0556ea25fa","false","null","<span style=""color: black; font-size: 48px"">M + N</span>","null","","","","resp_prompt","","","","","","","","","","","","","","","",""
"categorize-image","35","165125","0.0-2.0-2.0-1.12","lm6gpr3o7e0o3wr","practice_no_cue","5f30e412a128545570576268","5f60e3c0a3b16e07647b2ff9","5f61dbf862ed4e0556ea25fa","true","917.2149999067187","./Stimuli/ImagesPractice/SM61.jpg","83","","","","test","true","M + N","83","","SM","SM61.jpg","remember","old","13","1","start","left","","","",""
"html-keyboard-response","36","165826","0.0-2.0-2.0-0.13","lm6gpr3o7e0o3wr","practice_no_cue","5f30e412a128545570576268","5f60e3c0a3b16e07647b2ff9","5f61dbf862ed4e0556ea25fa","false","null","<span style=""color: black; font-size: 48px"">M + N</span>","null","","","","resp_prompt","","","","","","","","","","","","","","","",""
"categorize-image","37","167089","0.0-2.0-2.0-1.13","lm6gpr3o7e0o3wr","practice_no_cue","5f30e412a128545570576268","5f60e3c0a3b16e07647b2ff9","5f61dbf862ed4e0556ea25fa","true","760.7899999711663","./Stimuli/ImagesPractice/LN17.jpg","76","","","","test","true","M + N","76","","LN","LN17.jpg","forget","old","14","1","start","right","","","",""
"html-keyboard-response","38","167791","0.0-2.0-2.0-0.14","lm6gpr3o7e0o3wr","practice_no_cue","5f30e412a128545570576268","5f60e3c0a3b16e07647b2ff9","5f61dbf862ed4e0556ea25fa","false","null","<span style=""color: black; font-size: 48px"">M + N</span>","null","","","","resp_prompt","","","","","","","","","","","","","","","",""
"categorize-image","39","169091","0.0-2.0-2.0-1.14","lm6gpr3o7e0o3wr","practice_no_cue","5f30e412a128545570576268","5f60e3c0a3b16e07647b2ff9","5f61dbf862ed4e0556ea25fa","true","798.4949999954551","./Stimuli/ImagesPractice/LN15.jpg","83","","","","test","false","M + N","76","","LN","LN15.jpg","forget","old","15","1","start","left","","","",""
"html-keyboard-response","40","169792","0.0-2.0-2.0-0.15","lm6gpr3o7e0o3wr","practice_no_cue","5f30e412a128545570576268","5f60e3c0a3b16e07647b2ff9","5f61dbf862ed4e0556ea25fa","false","null","<span style=""color: black; font-size: 48px"">N + M</span>","null","","","","resp_prompt","","","","","","","","","","","","","","","",""
"categorize-image","41","171629","0.0-2.0-2.0-1.15","lm6gpr3o7e0o3wr","practice_no_cue","5f30e412a128545570576268","5f60e3c0a3b16e07647b2ff9","5f61dbf862ed4e0556ea25fa","true","1334.2899999115616","./Stimuli/ImagesPractice/LM143.jpg","76","","","","test","true","N + M","76","","LM","LM143.jpg","remember","old","16","1","start","right","","","",""
"html-keyboard-response","42","176807","0.0-2.0-3.0","lm6gpr3o7e0o3wr","break","5f30e412a128545570576268","5f60e3c0a3b16e07647b2ff9","5f61dbf862ed4e0556ea25fa","false","5175.964999943972","<p style='font-size: 32px;'>Break</><br><br><br><br><br><p style='font-size: 24px;'>In the last block, you committed 5 errors and did not respond in time on 2 trials.
</p><p style='font-size: 24px;'>Try to respond as fast and accurately as possible in the next block as well! </p><p style='font-size: 24px;'>Press SPACE to continue.</p>","32","","","","","","","","","","","","","","","","","","","",""
"html-keyboard-response","43","181972","0.0-2.0-4.0","lm6gpr3o7e0o3wr","instructions","5f30e412a128545570576268","5f60e3c0a3b16e07647b2ff9","5f61dbf862ed4e0556ea25fa","false","5164.435000158846","<div align=left> Great!<br><br>Are you ready to continue?<br><br>If you want to reread the instructions and redo the practice trials, <br>please press „Z“. <br><br>Press SPACE to CONTINUE with the experiment when you are ready. </div>","32","","","","","","","","","","","","","","","","","","","",""
"html-keyboard-response","44","246540","0.0-3.0-0.0","lm6gpr3o7e0o3wr","instructions","5f30e412a128545570576268","5f60e3c0a3b16e07647b2ff9","5f61dbf862ed4e0556ea25fa","false","64566.785000031814","<div align=left>Great!<br> <strong>Attention</strong>! You will now receive a second, additional task! <br><br>To this point it was you <strong>first task</strong> to correctly <strong>classify objects</strong>. <br><br>As mentioned in the beginning, we aim to examine how well humans can remember previously learned information.<br>We would like to find out whether our memory improves if we only remember information that is relevant to us. <br><br>Therefore, your <strong>second task</strong> will be to <strong>remember</strong> the pictures you are to categorize. <br> After the learning phase, there will be a memory test phase, in which you will be asked to indicate whether you have seen a picture before or not. <br>Some, but not all pictures shown in the learning phase will appear in the memory test phase.<br>After classifying a picture, you will be told whether you should remember it for the memory test phase or not. <br>Thus, some pictures can be forgotten, whereas others have to be remembered. <br><br>Note: From now on, feedback will only be displayed if you responded incorrectly or not in time.<br><br>Press SPACE to continue.</div>","32","","","","","","","","","","","","","","","","","","","",""
"html-keyboard-response","45","251359","0.0-3.0-1.0","lm6gpr3o7e0o3wr","instructions","5f30e412a128545570576268","5f60e3c0a3b16e07647b2ff9","5f61dbf862ed4e0556ea25fa","false","4817.760000005364","<div align=left>In the following part, you will thus have to remember only some pictures. <br>Immediately after seeing and classifying the picture, a symbol will be displayed, indicating whether you should remember or forget the previous picture. <br><br>A <span style='color: dodgerblue; font-size: 28px'>O</span> indicates REMEMBER. That means, you have to remember this picture, because it will be tested later. <br><br>A <span style='color: darkorange; font-size:28px'>Ø</span> indicates FORGET. You do not have to remember this picture. <br><br> As you will have to remember a lot of pictures, it will be hard for you to remember all of them. <br>It will put you at an advantage if you instantly forget the pictures you are not asked to remember. <br> This will make it easier for you to remember the pictures that will be tested afterwards. <br><br>Press SPACE to continue.</div>","32","","","","","","","","","","","","","","","","","","","",""
"html-keyboard-response","46","268834","0.0-3.0-2.0","lm6gpr3o7e0o3wr","instructions","5f30e412a128545570576268","5f60e3c0a3b16e07647b2ff9","5f61dbf862ed4e0556ea25fa","false","17474.619999993593","<div align=left> Now you have the chance to practice both tasks together.<br><br>Remember: <br> <br><li>Please place your index fingers on the <strong>'S'</strong> and <strong>'L'</strong> keys <br>to respond as fast and accurately as possible.</li><li>Every picture can be classified as either mechanical or non-mechanical.</li><li>If you do not respond in time or commit an error, you will receive a corresponding feedback. <br>Please try to respond as <strong> fast </strong> and as <strong> accurately as possible </strong>.</li><li> Please remember only the to-be-remembered <span style='color: dodgerblue; font-size: 28px'>O</span> pictures. <br></li><li> Please minimize distractions and stay focused. </li><br><br>Press SPACE to START</div>","32","","","","","","","","","","","","","","","","","","","",""
"html-keyboard-response","47","269536","0.0-3.0-3.0-0.0","lm6gpr3o7e0o3wr","practice_cue","5f30e412a128545570576268","5f60e3c0a3b16e07647b2ff9","5f61dbf862ed4e0556ea25fa","false","null","<span style=""color: black; font-size: 48px"">M + N</span>","null","","","","resp_prompt","","","","","","","","","","","","","","","",""
"categorize-image","48","271542","0.0-3.0-3.0-1.0","lm6gpr3o7e0o3wr","practice_cue","5f30e412a128545570576268","5f60e3c0a3b16e07647b2ff9","5f61dbf862ed4e0556ea25fa","true","null","./Stimuli/ImagesPractice/LM55.jpg","null","","","","test","false","M + N","83","","LM","LM55.jpg","remember","old","17","2","practice_forget","too_slow","","","",""
"html-keyboard-response","49","272045","0.0-3.0-3.0-2.0-0.0","lm6gpr3o7e0o3wr","practice_cue","5f30e412a128545570576268","5f60e3c0a3b16e07647b2ff9","5f61dbf862ed4e0556ea25fa","false","null","<span style=""color: red; font-size: 48px"">Too slow!</span>","null","","","","feedback","","","","","","","","","","","","","","","",""
"html-keyboard-response","50","274046","0.0-3.0-3.0-3.0","lm6gpr3o7e0o3wr","practice_cue","5f30e412a128545570576268","5f60e3c0a3b16e07647b2ff9","5f61dbf862ed4e0556ea25fa","false","null","<div style=""align-items: center; display: flex; color: dodgerblue; font-size: 90px""><b>o</b></div>","null","","","","forget_cue","","","","","","","","","","","","","","","",""
"html-keyboard-response","51","274747","0.0-3.0-3.0-0.1","lm6gpr3o7e0o3wr","practice_cue","5f30e412a128545570576268","5f60e3c0a3b16e07647b2ff9","5f61dbf862ed4e0556ea25fa","false","null","<span style=""color: black; font-size: 48px"">M + N</span>","null","","","","resp_prompt","","","","","","","","","","","","","","","",""
"categorize-image","52","275699","0.0-3.0-3.0-1.1","lm6gpr3o7e0o3wr","practice_cue","5f30e412a128545570576268","5f60e3c0a3b16e07647b2ff9","5f61dbf862ed4e0556ea25fa","true","948.389999801293","./Stimuli/ImagesPractice/SM61.jpg","83","","","","test","true","M + N","83","","SM","SM61.jpg","remember","old","18","2","practice_forget","left","","","",""
"html-keyboard-response","53","277700","0.0-3.0-3.0-3.1","lm6gpr3o7e0o3wr","practice_cue","5f30e412a128545570576268","5f60e3c0a3b16e07647b2ff9","5f61dbf862ed4e0556ea25fa","false","null","<div style=""align-items: center; display: flex; color: dodgerblue; font-size: 90px""><b>o</b></div>","null","","","","forget_cue","","","","","","","","","","","","","","","",""
"html-keyboard-response","54","278402","0.0-3.0-3.0-0.2","lm6gpr3o7e0o3wr","practice_cue","5f30e412a128545570576268","5f60e3c0a3b16e07647b2ff9","5f61dbf862ed4e0556ea25fa","false","null","<span style=""color: black; font-size: 48px"">N + M</span>","null","","","","resp_prompt","","","","","","","","","","","","","","","",""
"categorize-image","55","279247","0.0-3.0-3.0-1.2","lm6gpr3o7e0o3wr","practice_cue","5f30e412a128545570576268","5f60e3c0a3b16e07647b2ff9","5f61dbf862ed4e0556ea25fa","true","842.6500000059605","./Stimuli/ImagesPractice/SN75.jpg","83","","","","test","true","N + M","83","","SN","SN75.jpg","forget","old","19","2","practice_forget","left","","","",""
"html-keyboard-response","56","281249","0.0-3.0-3.0-3.2","lm6gpr3o7e0o3wr","practice_cue","5f30e412a128545570576268","5f60e3c0a3b16e07647b2ff9","5f61dbf862ed4e0556ea25fa","false","null","<div style=""align-items: center; display: flex; color: darkorange; font-size: 90px""><b>ø</b></div>","null","","","","forget_cue","","","","","","","","","","","","","","","",""
"html-keyboard-response","57","281950","0.0-3.0-3.0-0.3","lm6gpr3o7e0o3wr","practice_cue","5f30e412a128545570576268","5f60e3c0a3b16e07647b2ff9","5f61dbf862ed4e0556ea25fa","false","null","<span style=""color: black; font-size: 48px"">N + M</span>","null","","","","resp_prompt","","","","","","","","","","","","","","","",""
"categorize-image","58","283064","0.0-3.0-3.0-1.3","lm6gpr3o7e0o3wr","practice_cue","5f30e412a128545570576268","5f60e3c0a3b16e07647b2ff9","5f61dbf862ed4e0556ea25fa","true","1110.9550001565367","./Stimuli/ImagesPractice/SM35.jpg","76","","","","test","true","N + M","76","","SM","SM35.jpg","remember","old","20","2","practice_forget","right","","","",""
"html-keyboard-response","59","285066","0.0-3.0-3.0-3.3","lm6gpr3o7e0o3wr","practice_cue","5f30e412a128545570576268","5f60e3c0a3b16e07647b2ff9","5f61dbf862ed4e0556ea25fa","false","null","<div style=""align-items: center; display: flex; color: dodgerblue; font-size: 90px""><b>o</b></div>","null","","","","forget_cue","","","","","","","","","","","","","","","",""
"html-keyboard-response","60","285768","0.0-3.0-3.0-0.4","lm6gpr3o7e0o3wr","practice_cue","5f30e412a128545570576268","5f60e3c0a3b16e07647b2ff9","5f61dbf862ed4e0556ea25fa","false","null","<span style=""color: black; font-size: 48px"">M + N</span>","null","","","","resp_prompt","","","","","","","","","","","","","","","",""
"categorize-image","61","286455","0.0-3.0-3.0-1.4","lm6gpr3o7e0o3wr","practice_cue","5f30e412a128545570576268","5f60e3c0a3b16e07647b2ff9","5f61dbf862ed4e0556ea25fa","true","683.2300000824034","./Stimuli/ImagesPractice/LN2.jpg","76","","","","test","true","M + N","76","","LN","LN2.jpg","remember","old","21","2","practice_forget","right","","","",""
"html-keyboard-response","62","288457","0.0-3.0-3.0-3.4","lm6gpr3o7e0o3wr","practice_cue","5f30e412a128545570576268","5f60e3c0a3b16e07647b2ff9","5f61dbf862ed4e0556ea25fa","false","null","<div style=""align-items: center; display: flex; color: dodgerblue; font-size: 90px""><b>o</b></div>","null","","","","forget_cue","","","","","","","","","","","","","","","",""
"html-keyboard-response","63","289158","0.0-3.0-3.0-0.5","lm6gpr3o7e0o3wr","practice_cue","5f30e412a128545570576268","5f60e3c0a3b16e07647b2ff9","5f61dbf862ed4e0556ea25fa","false","null","<span style=""color: black; font-size: 48px"">M + N</span>","null","","","","resp_prompt","","","","","","","","","","","","","","","",""
"categorize-image","64","290456","0.0-3.0-3.0-1.5","lm6gpr3o7e0o3wr","practice_cue","5f30e412a128545570576268","5f60e3c0a3b16e07647b2ff9","5f61dbf862ed4e0556ea25fa","true","1294.7850001510233","./Stimuli/ImagesPractice/LN15.jpg","76","","","","test","true","M + N","76","","LN","LN15.jpg","forget","old","22","2","practice_forget","right","","","",""
"html-keyboard-response","65","292458","0.0-3.0-3.0-3.5","lm6gpr3o7e0o3wr","practice_cue","5f30e412a128545570576268","5f60e3c0a3b16e07647b2ff9","5f61dbf862ed4e0556ea25fa","false","null","<div style=""align-items: center; display: flex; color: darkorange; font-size: 90px""><b>ø</b></div>","null","","","","forget_cue","","","","","","","","","","","","","","","",""
"html-keyboard-response","66","293161","0.0-3.0-3.0-0.6","lm6gpr3o7e0o3wr","practice_cue","5f30e412a128545570576268","5f60e3c0a3b16e07647b2ff9","5f61dbf862ed4e0556ea25fa","false","null","<span style=""color: black; font-size: 48px"">N + M</span>","null","","","","resp_prompt","","","","","","","","","","","","","","","",""
"categorize-image","67","294671","0.0-3.0-3.0-1.6","lm6gpr3o7e0o3wr","practice_cue","5f30e412a128545570576268","5f60e3c0a3b16e07647b2ff9","5f61dbf862ed4e0556ea25fa","true","1507.5400001369417","./Stimuli/ImagesPractice/LM224.jpg","83","","","","test","false","N + M","76","","LM","LM224.jpg","forget","old","23","2","practice_forget","left","","","",""
"html-keyboard-response","68","295174","0.0-3.0-3.0-2.6-0.6","lm6gpr3o7e0o3wr","practice_cue","5f30e412a128545570576268","5f60e3c0a3b16e07647b2ff9","5f61dbf862ed4e0556ea25fa","false","null","<span style=""color: red; font-size: 48px"">Error!</span>","null","","","","feedback","","","","","","","","","","","","","","","",""
"html-keyboard-response","69","297176","0.0-3.0-3.0-3.6","lm6gpr3o7e0o3wr","practice_cue","5f30e412a128545570576268","5f60e3c0a3b16e07647b2ff9","5f61dbf862ed4e0556ea25fa","false","null","<div style=""align-items: center; display: flex; color: darkorange; font-size: 90px""><b>ø</b></div>","null","","","","forget_cue","","","","","","","","","","","","","","","",""
"html-keyboard-response","70","297878","0.0-3.0-3.0-0.7","lm6gpr3o7e0o3wr","practice_cue","5f30e412a128545570576268","5f60e3c0a3b16e07647b2ff9","5f61dbf862ed4e0556ea25fa","false","null","<span style=""color: black; font-size: 48px"">N + M</span>","null","","","","resp_prompt","","","","","","","","","","","","","","","",""
"categorize-image","71","298857","0.0-3.0-3.0-1.7","lm6gpr3o7e0o3wr","practice_cue","5f30e412a128545570576268","5f60e3c0a3b16e07647b2ff9","5f61dbf862ed4e0556ea25fa","true","975.9800001047552","./Stimuli/ImagesPractice/SN222.jpg","83","","","","test","true","N + M","83","","SN","SN222.jpg","forget","old","24","2","practice_forget","left","","","",""
"html-keyboard-response","72","300860","0.0-3.0-3.0-3.7","lm6gpr3o7e0o3wr","practice_cue","5f30e412a128545570576268","5f60e3c0a3b16e07647b2ff9","5f61dbf862ed4e0556ea25fa","false","null","<div style=""align-items: center; display: flex; color: darkorange; font-size: 90px""><b>ø</b></div>","null","","","","forget_cue","","","","","","","","","","","","","","","",""
"html-keyboard-response","73","301562","0.0-3.0-3.0-0.8","lm6gpr3o7e0o3wr","practice_cue","5f30e412a128545570576268","5f60e3c0a3b16e07647b2ff9","5f61dbf862ed4e0556ea25fa","false","null","<span style=""color: black; font-size: 48px"">M + N</span>","null","","","","resp_prompt","","","","","","","","","","","","","","","",""
"categorize-image","74","303088","0.0-3.0-3.0-1.8","lm6gpr3o7e0o3wr","practice_cue","5f30e412a128545570576268","5f60e3c0a3b16e07647b2ff9","5f61dbf862ed4e0556ea25fa","true","1524.0449998527765","./Stimuli/ImagesPractice/SM62.jpg","76","","","","test","false","M + N","83","","SM","SM62.jpg","remember","old","25","2","practice_forget","right","","","",""
"html-keyboard-response","75","303589","0.0-3.0-3.0-2.8-0.8","lm6gpr3o7e0o3wr","practice_cue","5f30e412a128545570576268","5f60e3c0a3b16e07647b2ff9","5f61dbf862ed4e0556ea25fa","false","null","<span style=""color: red; font-size: 48px"">Error!</span>","null","","","","feedback","","","","","","","","","","","","","","","",""
"html-keyboard-response","76","305591","0.0-3.0-3.0-3.8","lm6gpr3o7e0o3wr","practice_cue","5f30e412a128545570576268","5f60e3c0a3b16e07647b2ff9","5f61dbf862ed4e0556ea25fa","false","null","<div style=""align-items: center; display: flex; color: dodgerblue; font-size: 90px""><b>o</b></div>","null","","","","forget_cue","","","","","","","","","","","","","","","",""
"html-keyboard-response","77","306294","0.0-3.0-3.0-0.9","lm6gpr3o7e0o3wr","practice_cue","5f30e412a128545570576268","5f60e3c0a3b16e07647b2ff9","5f61dbf862ed4e0556ea25fa","false","null","<span style=""color: black; font-size: 48px"">M + N</span>","null","","","","resp_prompt","","","","","","","","","","","","","","","",""
"categorize-image","78","307527","0.0-3.0-3.0-1.9","lm6gpr3o7e0o3wr","practice_cue","5f30e412a128545570576268","5f60e3c0a3b16e07647b2ff9","5f61dbf862ed4e0556ea25fa","true","1230.3400000091642","./Stimuli/ImagesPractice/LN109.jpg","76","","","","test","true","M + N","76","","LN","LN109.jpg","forget","old","26","2","practice_forget","right","","","",""
"html-keyboard-response","79","309529","0.0-3.0-3.0-3.9","lm6gpr3o7e0o3wr","practice_cue","5f30e412a128545570576268","5f60e3c0a3b16e07647b2ff9","5f61dbf862ed4e0556ea25fa","false","null","<div style=""align-items: center; display: flex; color: darkorange; font-size: 90px""><b>ø</b></div>","null","","","","forget_cue","","","","","","","","","","","","","","","",""
"html-keyboard-response","80","310229","0.0-3.0-3.0-0.10","lm6gpr3o7e0o3wr","practice_cue","5f30e412a128545570576268","5f60e3c0a3b16e07647b2ff9","5f61dbf862ed4e0556ea25fa","false","null","<span style=""color: black; font-size: 48px"">N + M</span>","null","","","","resp_prompt","","","","","","","","","","","","","","","",""
"categorize-image","81","311403","0.0-3.0-3.0-1.10","lm6gpr3o7e0o3wr","practice_cue","5f30e412a128545570576268","5f60e3c0a3b16e07647b2ff9","5f61dbf862ed4e0556ea25fa","true","1171.0350001230836","./Stimuli/ImagesPractice/LN4.jpg","76","","","","test","false","N + M","83","","LN","LN4.jpg","remember","old","27","2","practice_forget","right","","","",""
"html-keyboard-response","82","311906","0.0-3.0-3.0-2.10-0.10","lm6gpr3o7e0o3wr","practice_cue","5f30e412a128545570576268","5f60e3c0a3b16e07647b2ff9","5f61dbf862ed4e0556ea25fa","false","null","<span style=""color: red; font-size: 48px"">Error!</span>","null","","","","feedback","","","","","","","","","","","","","","","",""
"html-keyboard-response","83","313908","0.0-3.0-3.0-3.10","lm6gpr3o7e0o3wr","practice_cue","5f30e412a128545570576268","5f60e3c0a3b16e07647b2ff9","5f61dbf862ed4e0556ea25fa","false","null","<div style=""align-items: center; display: flex; color: dodgerblue; font-size: 90px""><b>o</b></div>","null","","","","forget_cue","","","","","","","","","","","","","","","",""
"html-keyboard-response","84","314615","0.0-3.0-3.0-0.11","lm6gpr3o7e0o3wr","practice_cue","5f30e412a128545570576268","5f60e3c0a3b16e07647b2ff9","5f61dbf862ed4e0556ea25fa","false","null","<span style=""color: black; font-size: 48px"">N + M</span>","null","","","","resp_prompt","","","","","","","","","","","","","","","",""
"categorize-image","85","315592","0.0-3.0-3.0-1.11","lm6gpr3o7e0o3wr","practice_cue","5f30e412a128545570576268","5f60e3c0a3b16e07647b2ff9","5f61dbf862ed4e0556ea25fa","true","960.3699999861419","./Stimuli/ImagesPractice/LN72.jpg","83","","","","test","true","N + M","83","","LN","LN72.jpg","forget","old","28","2","practice_forget","left","","","",""
"html-keyboard-response","86","317594","0.0-3.0-3.0-3.11","lm6gpr3o7e0o3wr","practice_cue","5f30e412a128545570576268","5f60e3c0a3b16e07647b2ff9","5f61dbf862ed4e0556ea25fa","false","null","<div style=""align-items: center; display: flex; color: darkorange; font-size: 90px""><b>ø</b></div>","null","","","","forget_cue","","","","","","","","","","","","","","","",""
"html-keyboard-response","87","318296","0.0-3.0-3.0-0.12","lm6gpr3o7e0o3wr","practice_cue","5f30e412a128545570576268","5f60e3c0a3b16e07647b2ff9","5f61dbf862ed4e0556ea25fa","false","null","<span style=""color: black; font-size: 48px"">N + M</span>","null","","","","resp_prompt","","","","","","","","","","","","","","","",""
"categorize-image","88","319491","0.0-3.0-3.0-1.12","lm6gpr3o7e0o3wr","practice_cue","5f30e412a128545570576268","5f60e3c0a3b16e07647b2ff9","5f61dbf862ed4e0556ea25fa","true","1191.3900000508875","./Stimuli/ImagesPractice/SN205.jpg","83","","","","test","true","N + M","83","","SN","SN205.jpg","remember","old","29","2","practice_forget","left","","","",""
"html-keyboard-response","89","321493","0.0-3.0-3.0-3.12","lm6gpr3o7e0o3wr","practice_cue","5f30e412a128545570576268","5f60e3c0a3b16e07647b2ff9","5f61dbf862ed4e0556ea25fa","false","null","<div style=""align-items: center; display: flex; color: dodgerblue; font-size: 90px""><b>o</b></div>","null","","","","forget_cue","","","","","","","","","","","","","","","",""
"html-keyboard-response","90","322195","0.0-3.0-3.0-0.13","lm6gpr3o7e0o3wr","practice_cue","5f30e412a128545570576268","5f60e3c0a3b16e07647b2ff9","5f61dbf862ed4e0556ea25fa","false","null","<span style=""color: black; font-size: 48px"">M + N</span>","null","","","","resp_prompt","","","","","","","","","","","","","","","",""
"categorize-image","91","323143","0.0-3.0-3.0-1.13","lm6gpr3o7e0o3wr","practice_cue","5f30e412a128545570576268","5f60e3c0a3b16e07647b2ff9","5f61dbf862ed4e0556ea25fa","true","944.5249999407679","./Stimuli/ImagesPractice/SN221.jpg","76","","","","test","true","M + N","76","","SN","SN221.jpg","forget","old","30","2","practice_forget","right","","","",""
"html-keyboard-response","92","325145","0.0-3.0-3.0-3.13","lm6gpr3o7e0o3wr","practice_cue","5f30e412a128545570576268","5f60e3c0a3b16e07647b2ff9","5f61dbf862ed4e0556ea25fa","false","null","<div style=""align-items: center; display: flex; color: darkorange; font-size: 90px""><b>ø</b></div>","null","","","","forget_cue","","","","","","","","","","","","","","","",""
"html-keyboard-response","93","325846","0.0-3.0-3.0-0.14","lm6gpr3o7e0o3wr","practice_cue","5f30e412a128545570576268","5f60e3c0a3b16e07647b2ff9","5f61dbf862ed4e0556ea25fa","false","null","<span style=""color: black; font-size: 48px"">M + N</span>","null","","","","resp_prompt","","","","","","","","","","","","","","","",""
"categorize-image","94","326623","0.0-3.0-3.0-1.14","lm6gpr3o7e0o3wr","practice_cue","5f30e412a128545570576268","5f60e3c0a3b16e07647b2ff9","5f61dbf862ed4e0556ea25fa","true","774.7900001704693","./Stimuli/ImagesPractice/LN17.jpg","76","","","","test","true","M + N","76","","LN","LN17.jpg","forget","old","31","2","practice_forget","right","","","",""
"html-keyboard-response","95","328626","0.0-3.0-3.0-3.14","lm6gpr3o7e0o3wr","practice_cue","5f30e412a128545570576268","5f60e3c0a3b16e07647b2ff9","5f61dbf862ed4e0556ea25fa","false","null","<div style=""align-items: center; display: flex; color: darkorange; font-size: 90px""><b>ø</b></div>","null","","","","forget_cue","","","","","","","","","","","","","","","",""
"html-keyboard-response","96","329328","0.0-3.0-3.0-0.15","lm6gpr3o7e0o3wr","practice_cue","5f30e412a128545570576268","5f60e3c0a3b16e07647b2ff9","5f61dbf862ed4e0556ea25fa","false","null","<span style=""color: black; font-size: 48px"">N + M</span>","null","","","","resp_prompt","","","","","","","","","","","","","","","",""
"categorize-image","97","330300","0.0-3.0-3.0-1.15","lm6gpr3o7e0o3wr","practice_cue","5f30e412a128545570576268","5f60e3c0a3b16e07647b2ff9","5f61dbf862ed4e0556ea25fa","true","969.2800000775605","./Stimuli/ImagesPractice/LM143.jpg","76","","","","test","true","N + M","76","","LM","LM143.jpg","remember","old","32","2","practice_forget","right","","","",""
"html-keyboard-response","98","332302","0.0-3.0-3.0-3.15","lm6gpr3o7e0o3wr","practice_cue","5f30e412a128545570576268","5f60e3c0a3b16e07647b2ff9","5f61dbf862ed4e0556ea25fa","false","null","<div style=""align-items: center; display: flex; color: dodgerblue; font-size: 90px""><b>o</b></div>","null","","","","forget_cue","","","","","","","","","","","","","","","",""
"html-keyboard-response","99","335793","0.0-3.0-4.0","lm6gpr3o7e0o3wr","break","5f30e412a128545570576268","5f60e3c0a3b16e07647b2ff9","5f61dbf862ed4e0556ea25fa","false","3489.8250000551343","<p style='font-size: 32px;'>Break</><br><br><br><br><br><p style='font-size: 24px;'>In the last block, you committed 3 errors and did not respond in time on 1 trials.
</p><p style='font-size: 24px;'>Try to respond as fast and accurately as possible in the next block as well! </p><p style='font-size: 24px;'>Press SPACE to continue.</p>","32","","","","","","","","","","","","","","","","","","","",""
"html-keyboard-response","100","349672","0.0-3.0-5.0","lm6gpr3o7e0o3wr","instructions","5f30e412a128545570576268","5f60e3c0a3b16e07647b2ff9","5f61dbf862ed4e0556ea25fa","false","13877.480000024661","<div align=left> Now, to practice, we kindly ask you to remember as many of the to-be-remembered pictures<br>of the previous learning phase as possible.<br><br>The pictures you were instructed to remember were the pictures followed by a <span style='color: dodgerblue; font-size: 28px'>O</span>.<br><br>In this memory test phase, you will also see some new pictures.<br>It is your task to remember whether you were presented with this specific picture in this study so far or not.<br>If you recognize an object (you have already seen it in this study), it is an OLD object. <br>If you do not recognize an object (you have NOT seen it in this study), it is a NEW object. <br><strong> Attention</strong>: As already mentioned, <span style='color: darkorange; font-size:28px'>Ø</span>-pictures will <strong>never</strong> appear in this memory test (neither as new objects). <br><br>Press SPACE to continue. </div>","32","","","","","","","","","","","","","","","","","","","",""
"html-keyboard-response","101","369240","0.0-3.0-6.0","lm6gpr3o7e0o3wr","instructions","5f30e412a128545570576268","5f60e3c0a3b16e07647b2ff9","5f61dbf862ed4e0556ea25fa","false","19566.45999988541","<div align=left> M and N no longer will appear on the left/right of the fixation cross. <br>Instead there will be a note at the bottom of the left or right side  <br>indicating which key you should press for an old or new object:  <br> <br>Press the <strong>right</strong> key to classify an object as <strong>old</strong> and press the <strong>left</strong>, to classify an object as <strong>new</strong>.<br>Please classify the objects as new/old by again placing your index finger on the 'S' and 'L' keys <br>and press them accordingly.<br><br><strong>Old:</strong> This object has been presented before. <br><strong>New:</strong> This object has <strong>not</strong> been presented.<br><br>Now please put your right and left index fingers on the 'S' and 'L' keys of your keyboard. <br>Please respond as fast and as accurately as possible!<br><br>Press SPACE to continue. </div>","32","","","","","","","","","","","","","","","","","","","",""
"categorize-image","102","371859","0.0-3.0-7.0-0.0","lm6gpr3o7e0o3wr","practice_recog","5f30e412a128545570576268","5f60e3c0a3b16e07647b2ff9","5f61dbf862ed4e0556ea25fa","true","2116.724999854341","./Stimuli/ImagesPractice/LN4.jpg","76","","","","test","true","","76","","LN","LN4.jpg","","old","33","3","practice_recog","right","","","",""
"categorize-image","103","373220","0.0-3.0-7.0-0.1","lm6gpr3o7e0o3wr","practice_recog","5f30e412a128545570576268","5f60e3c0a3b16e07647b2ff9","5f61dbf862ed4e0556ea25fa","true","859.3099999707192","./Stimuli/ImagesPractice/SM35.jpg","76","","","","test","true","","76","","SM","SM35.jpg","","old","34","3","practice_recog","right","","","",""
"categorize-image","104","374620","0.0-3.0-7.0-0.2","lm6gpr3o7e0o3wr","practice_recog","5f30e412a128545570576268","5f60e3c0a3b16e07647b2ff9","5f61dbf862ed4e0556ea25fa","true","898.0849999934435","./Stimuli/ImagesPractice/SM61.jpg","76","","","","test","true","","76","","SM","SM61.jpg","","old","35","3","practice_recog","right","","","",""
"categorize-image","105","375913","0.0-3.0-7.0-0.3","lm6gpr3o7e0o3wr","practice_recog","5f30e412a128545570576268","5f60e3c0a3b16e07647b2ff9","5f61dbf862ed4e0556ea25fa","true","789.809999987483","./Stimuli/ImagesPractice/LM143.jpg","76","","","","test","true","","76","","LM","LM143.jpg","","old","36","3","practice_recog","right","","","",""
"categorize-image","106","377222","0.0-3.0-7.0-0.4","lm6gpr3o7e0o3wr","practice_recog","5f30e412a128545570576268","5f60e3c0a3b16e07647b2ff9","5f61dbf862ed4e0556ea25fa","true","806.8999999668449","./Stimuli/ImagesPractice/LM239.jpg","83","","","","test","true","","83","","LM","LM239.jpg","","new","37","3","practice_recog","left","","","",""
"categorize-image","107","378621","0.0-3.0-7.0-0.5","lm6gpr3o7e0o3wr","practice_recog","5f30e412a128545570576268","5f60e3c0a3b16e07647b2ff9","5f61dbf862ed4e0556ea25fa","true","896.3450000155717","./Stimuli/ImagesPractice/LM147.jpg","83","","","","test","true","","83","","LM","LM147.jpg","","new","38","3","practice_recog","left","","","",""
"categorize-image","108","379827","0.0-3.0-7.0-0.6","lm6gpr3o7e0o3wr","practice_recog","5f30e412a128545570576268","5f60e3c0a3b16e07647b2ff9","5f61dbf862ed4e0556ea25fa","true","703.5199999809265","./Stimuli/ImagesPractice/LM230.jpg","83","","","","test","true","","83","","LM","LM230.jpg","","new","39","3","practice_recog","left","","","",""
"categorize-image","109","381016","0.0-3.0-7.0-0.7","lm6gpr3o7e0o3wr","practice_recog","5f30e412a128545570576268","5f60e3c0a3b16e07647b2ff9","5f61dbf862ed4e0556ea25fa","true","686.2999999430031","./Stimuli/ImagesPractice/LN2.jpg","76","","","","test","true","","76","","LN","LN2.jpg","","old","40","3","practice_recog","right","","","",""
"categorize-image","110","382445","0.0-3.0-7.0-0.8","lm6gpr3o7e0o3wr","practice_recog","5f30e412a128545570576268","5f60e3c0a3b16e07647b2ff9","5f61dbf862ed4e0556ea25fa","true","926.8000000156462","./Stimuli/ImagesPractice/SN76.jpg","76","","","","test","false","","83","","SN","SN76.jpg","","new","41","3","practice_recog","right","","","",""
"categorize-image","111","383770","0.0-3.0-7.0-0.9","lm6gpr3o7e0o3wr","practice_recog","5f30e412a128545570576268","5f60e3c0a3b16e07647b2ff9","5f61dbf862ed4e0556ea25fa","true","823.0600000824779","./Stimuli/ImagesPractice/SM98.jpg","83","","","","test","true","","83","","SM","SM98.jpg","","new","42","3","practice_recog","left","","","",""
"categorize-image","112","385067","0.0-3.0-7.0-0.10","lm6gpr3o7e0o3wr","practice_recog","5f30e412a128545570576268","5f60e3c0a3b16e07647b2ff9","5f61dbf862ed4e0556ea25fa","true","793.1099999696016","./Stimuli/ImagesPractice/LM55.jpg","76","","","","test","true","","76","","LM","LM55.jpg","","old","43","3","practice_recog","right","","","",""
"categorize-image","113","386389","0.0-3.0-7.0-0.11","lm6gpr3o7e0o3wr","practice_recog","5f30e412a128545570576268","5f60e3c0a3b16e07647b2ff9","5f61dbf862ed4e0556ea25fa","true","819.3800000008196","./Stimuli/ImagesPractice/SN205.jpg","76","","","","test","true","","76","","SN","SN205.jpg","","old","44","3","practice_recog","right","","","",""
"categorize-image","114","387695","0.0-3.0-7.0-0.12","lm6gpr3o7e0o3wr","practice_recog","5f30e412a128545570576268","5f60e3c0a3b16e07647b2ff9","5f61dbf862ed4e0556ea25fa","true","803.675000090152","./Stimuli/ImagesPractice/SM37.jpg","83","","","","test","true","","83","","SM","SM37.jpg","","new","45","3","practice_recog","left","","","",""
"categorize-image","115","388901","0.0-3.0-7.0-0.13","lm6gpr3o7e0o3wr","practice_recog","5f30e412a128545570576268","5f60e3c0a3b16e07647b2ff9","5f61dbf862ed4e0556ea25fa","true","702.0650000777096","./Stimuli/ImagesPractice/SM97.jpg","83","","","","test","true","","83","","SM","SM97.jpg","","new","46","3","practice_recog","left","","","",""
"categorize-image","116","390403","0.0-3.0-7.0-0.14","lm6gpr3o7e0o3wr","practice_recog","5f30e412a128545570576268","5f60e3c0a3b16e07647b2ff9","5f61dbf862ed4e0556ea25fa","true","1000.1300000585616","./Stimuli/ImagesPractice/SN220.jpg","83","","","","test","true","","83","","SN","SN220.jpg","","new","47","3","practice_recog","left","","","",""
"categorize-image","117","391667","0.0-3.0-7.0-0.15","lm6gpr3o7e0o3wr","practice_recog","5f30e412a128545570576268","5f60e3c0a3b16e07647b2ff9","5f61dbf862ed4e0556ea25fa","true","762.9549999255687","./Stimuli/ImagesPractice/SM62.jpg","76","","","","test","true","","76","","SM","SM62.jpg","","old","48","3","practice_recog","right","","","",""
"html-keyboard-response","118","400856","0.0-3.0-8.0","lm6gpr3o7e0o3wr","instructions","5f30e412a128545570576268","5f60e3c0a3b16e07647b2ff9","5f61dbf862ed4e0556ea25fa","false","9187.54000007175","<div align=left> Great!<br><br>Are you ready to continue?<br>If you want to reread the instructions and redo the practice trials, please <br>press „Z“.<br><br>You can proceed when you are ready.<br><br>After the presentation of each object, you will receive an instruction whether to <br>remember or to forget the object.<br>We will test your memory of the following pictures only at the very end of <br>the experiment after all learning blocks are completed. <br><br>Press SPACE to CONTINUE when you are ready. </div>","32","","","","","","","","","","","","","","","","","","","",""
"html-keyboard-response","119","405009","0.0-4.0-0.0","lm6gpr3o7e0o3wr","instructions","5f30e412a128545570576268","5f60e3c0a3b16e07647b2ff9","5f61dbf862ed4e0556ea25fa","false","4152.045000111684","<div align=left> The actual experiment is about to start.<br>The practice trials are over!<br><br>Please always respond both fast and accurately!<br><br>Remember: <br> <br><li> Please place your index fingers on the <strong>'S'</strong> and <strong>'L'</strong> keys <br>to respond as fast and accurately as possible.</li><li> Every picture can be classified as either mechanical or non-mechanical.</li><li> If you do not respond in time or commit an error, you will receive a corresponding feedback.<br> Please try to respond as <strong> fast </strong> and as <strong> accurately as possible </strong>.</li><li> Remember the <span style='color: dodgerblue; font-size: 28px'>O</span> pictures. <br></li><li> Please minimize distractions and stay focused. </li><br><br>Press SPACE to START.</div>","32","","","","","","","","","","","","","","","","","","","",""
"html-keyboard-response","120","405710","0.0-4.0-1.0-0.0","lm6gpr3o7e0o3wr","prime","5f30e412a128545570576268","5f60e3c0a3b16e07647b2ff9","5f61dbf862ed4e0556ea25fa","false","null","<span style=""color: black; font-size: 48px"">N + M</span>","null","","","","resp_prompt","","","","","","","","","","","","","","","",""
"categorize-image","121","406953","0.0-4.0-1.0-1.0","lm6gpr3o7e0o3wr","prime","5f30e412a128545570576268","5f60e3c0a3b16e07647b2ff9","5f61dbf862ed4e0556ea25fa","true","1240.4950000345707","./Stimuli/SelectedImages/SN/SN49.bmp","83","","","","test","true","N + M","83","repetition","SN","SN49.bmp","remember","","49","3","prime1","left","","","",""
"html-keyboard-response","122","408956","0.0-4.0-1.0-3.0","lm6gpr3o7e0o3wr","prime","5f30e412a128545570576268","5f60e3c0a3b16e07647b2ff9","5f61dbf862ed4e0556ea25fa","false","null","<div style=""align-items: center; display: flex; color: dodgerblue; font-size: 90px""><b>o</b></div>","null","","","","forget_cue","","","","","","","","","","","","","","","",""
"html-keyboard-response","123","409658","0.0-4.0-1.0-0.1","lm6gpr3o7e0o3wr","prime","5f30e412a128545570576268","5f60e3c0a3b16e07647b2ff9","5f61dbf862ed4e0556ea25fa","false","null","<span style=""color: black; font-size: 48px"">M + N</span>","null","","","","resp_prompt","","","","","","","","","","","","","","","",""
"categorize-image","124","411037","0.0-4.0-1.0-1.1","lm6gpr3o7e0o3wr","prime","5f30e412a128545570576268","5f60e3c0a3b16e07647b2ff9","5f61dbf862ed4e0556ea25fa","true","1376.0599999222904","./Stimuli/SelectedImages/SM/SM76.bmp","76","","","","test","false","M + N","83","switch","SM","SM76.bmp","forget","","50","3","prime1","right","","","",""
"html-keyboard-response","125","411540","0.0-4.0-1.0-2.1-0.1","lm6gpr3o7e0o3wr","prime","5f30e412a128545570576268","5f60e3c0a3b16e07647b2ff9","5f61dbf862ed4e0556ea25fa","false","null","<span style=""color: red; font-size: 48px"">Error!</span>","null","","","","feedback","","","","","","","","","","","","","","","",""
"html-keyboard-response","126","413540","0.0-4.0-1.0-3.1","lm6gpr3o7e0o3wr","prime","5f30e412a128545570576268","5f60e3c0a3b16e07647b2ff9","5f61dbf862ed4e0556ea25fa","false","null","<div style=""align-items: center; display: flex; color: darkorange; font-size: 90px""><b>ø</b></div>","null","","","","forget_cue","","","","","","","","","","","","","","","",""
"html-keyboard-response","127","414242","0.0-4.0-1.0-0.2","lm6gpr3o7e0o3wr","prime","5f30e412a128545570576268","5f60e3c0a3b16e07647b2ff9","5f61dbf862ed4e0556ea25fa","false","null","<span style=""color: black; font-size: 48px"">M + N</span>","null","","","","resp_prompt","","","","","","","","","","","","","","","",""
"categorize-image","128","415642","0.0-4.0-1.0-1.2","lm6gpr3o7e0o3wr","prime","5f30e412a128545570576268","5f60e3c0a3b16e07647b2ff9","5f61dbf862ed4e0556ea25fa","true","1395.8449999336153","./Stimuli/SelectedImages/LM/LM167.bmp","83","","","","test","true","M + N","83","switch","LM","LM167.bmp","forget","","51","3","prime1","left","","","",""
"html-keyboard-response","129","417643","0.0-4.0-1.0-3.2","lm6gpr3o7e0o3wr","prime","5f30e412a128545570576268","5f60e3c0a3b16e07647b2ff9","5f61dbf862ed4e0556ea25fa","false","null","<div style=""align-items: center; display: flex; color: darkorange; font-size: 90px""><b>ø</b></div>","null","","","","forget_cue","","","","","","","","","","","","","","","",""
"html-keyboard-response","130","418344","0.0-4.0-1.0-0.3","lm6gpr3o7e0o3wr","prime","5f30e412a128545570576268","5f60e3c0a3b16e07647b2ff9","5f61dbf862ed4e0556ea25fa","false","null","<span style=""color: black; font-size: 48px"">N + M</span>","null","","","","resp_prompt","","","","","","","","","","","","","","","",""
"categorize-image","131","419178","0.0-4.0-1.0-1.3","lm6gpr3o7e0o3wr","prime","5f30e412a128545570576268","5f60e3c0a3b16e07647b2ff9","5f61dbf862ed4e0556ea25fa","true","830.904999980703","./Stimuli/SelectedImages/LN/LN92.bmp","83","","","","test","true","N + M","83","repetition","LN","LN92.bmp","forget","","52","3","prime1","left","","","",""
"html-keyboard-response","132","421180","0.0-4.0-1.0-3.3","lm6gpr3o7e0o3wr","prime","5f30e412a128545570576268","5f60e3c0a3b16e07647b2ff9","5f61dbf862ed4e0556ea25fa","false","null","<div style=""align-items: center; display: flex; color: darkorange; font-size: 90px""><b>ø</b></div>","null","","","","forget_cue","","","","","","","","","","","","","","","",""
"html-keyboard-response","133","421882","0.0-4.0-1.0-0.4","lm6gpr3o7e0o3wr","prime","5f30e412a128545570576268","5f60e3c0a3b16e07647b2ff9","5f61dbf862ed4e0556ea25fa","false","null","<span style=""color: black; font-size: 48px"">N + M</span>","null","","","","resp_prompt","","","","","","","","","","","","","","","",""
"categorize-image","134","422757","0.0-4.0-1.0-1.4","lm6gpr3o7e0o3wr","prime","5f30e412a128545570576268","5f60e3c0a3b16e07647b2ff9","5f61dbf862ed4e0556ea25fa","true","872.4249999504536","./Stimuli/SelectedImages/SN/SN52.bmp","83","","","","test","true","N + M","83","repetition","SN","SN52.bmp","forget","","53","3","prime1","left","","","",""
"html-keyboard-response","135","424759","0.0-4.0-1.0-3.4","lm6gpr3o7e0o3wr","prime","5f30e412a128545570576268","5f60e3c0a3b16e07647b2ff9","5f61dbf862ed4e0556ea25fa","false","null","<div style=""align-items: center; display: flex; color: darkorange; font-size: 90px""><b>ø</b></div>","null","","","","forget_cue","","","","","","","","","","","","","","","",""
"html-keyboard-response","136","425460","0.0-4.0-1.0-0.5","lm6gpr3o7e0o3wr","prime","5f30e412a128545570576268","5f60e3c0a3b16e07647b2ff9","5f61dbf862ed4e0556ea25fa","false","null","<span style=""color: black; font-size: 48px"">N + M</span>","null","","","","resp_prompt","","","","","","","","","","","","","","","",""
"categorize-image","137","426372","0.0-4.0-1.0-1.5","lm6gpr3o7e0o3wr","prime","5f30e412a128545570576268","5f60e3c0a3b16e07647b2ff9","5f61dbf862ed4e0556ea25fa","true","909.3800000846386","./Stimuli/SelectedImages/SM/SM106.bmp","76","","","","test","true","N + M","76","switch","SM","SM106.bmp","forget","","54","3","prime1","right","","","",""
"html-keyboard-response","138","428374","0.0-4.0-1.0-3.5","lm6gpr3o7e0o3wr","prime","5f30e412a128545570576268","5f60e3c0a3b16e07647b2ff9","5f61dbf862ed4e0556ea25fa","false","null","<div style=""align-items: center; display: flex; color: darkorange; font-size: 90px""><b>ø</b></div>","null","","","","forget_cue","","","","","","","","","","","","","","","",""
"html-keyboard-response","139","429075","0.0-4.0-1.0-0.6","lm6gpr3o7e0o3wr","prime","5f30e412a128545570576268","5f60e3c0a3b16e07647b2ff9","5f61dbf862ed4e0556ea25fa","false","null","<span style=""color: black; font-size: 48px"">N + M</span>","null","","","","resp_prompt","","","","","","","","","","","","","","","",""
"categorize-image","140","429871","0.0-4.0-1.0-1.6","lm6gpr3o7e0o3wr","prime","5f30e412a128545570576268","5f60e3c0a3b16e07647b2ff9","5f61dbf862ed4e0556ea25fa","true","792.9099998436868","./Stimuli/SelectedImages/LM/LM59.bmp","76","","","","test","true","N + M","76","repetition","LM","LM59.bmp","remember","","55","3","prime1","right","","","",""
"html-keyboard-response","141","431873","0.0-4.0-1.0-3.6","lm6gpr3o7e0o3wr","prime","5f30e412a128545570576268","5f60e3c0a3b16e07647b2ff9","5f61dbf862ed4e0556ea25fa","false","null","<div style=""align-items: center; display: flex; color: dodgerblue; font-size: 90px""><b>o</b></div>","null","","","","forget_cue","","","","","","","","","","","","","","","",""
"html-keyboard-response","142","432574","0.0-4.0-1.0-0.7","lm6gpr3o7e0o3wr","prime","5f30e412a128545570576268","5f60e3c0a3b16e07647b2ff9","5f61dbf862ed4e0556ea25fa","false","null","<span style=""color: black; font-size: 48px"">N + M</span>","null","","","","resp_prompt","","","","","","","","","","","","","","","",""
"categorize-image","143","433328","0.0-4.0-1.0-1.7","lm6gpr3o7e0o3wr","prime","5f30e412a128545570576268","5f60e3c0a3b16e07647b2ff9","5f61dbf862ed4e0556ea25fa","true","751.5400000847876","./Stimuli/SelectedImages/LN/LN42.bmp","83","","","","test","true","N + M","83","repetition","LN","LN42.bmp","forget","","56","3","prime1","left","","","",""
"html-keyboard-response","144","435331","0.0-4.0-1.0-3.7","lm6gpr3o7e0o3wr","prime","5f30e412a128545570576268","5f60e3c0a3b16e07647b2ff9","5f61dbf862ed4e0556ea25fa","false","null","<div style=""align-items: center; display: flex; color: darkorange; font-size: 90px""><b>ø</b></div>","null","","","","forget_cue","","","","","","","","","","","","","","","",""
"html-keyboard-response","145","436033","0.0-4.0-1.0-0.8","lm6gpr3o7e0o3wr","prime","5f30e412a128545570576268","5f60e3c0a3b16e07647b2ff9","5f61dbf862ed4e0556ea25fa","false","null","<span style=""color: black; font-size: 48px"">N + M</span>","null","","","","resp_prompt","","","","","","","","","","","","","","","",""
"categorize-image","146","436645","0.0-4.0-1.0-1.8","lm6gpr3o7e0o3wr","prime","5f30e412a128545570576268","5f60e3c0a3b16e07647b2ff9","5f61dbf862ed4e0556ea25fa","true","609.5249999780208","./Stimuli/SelectedImages/LM/LM216.bmp","76","","","","test","true","N + M","76","switch","LM","LM216.bmp","forget","","57","3","prime1","right","","","",""
"html-keyboard-response","147","438648","0.0-4.0-1.0-3.8","lm6gpr3o7e0o3wr","prime","5f30e412a128545570576268","5f60e3c0a3b16e07647b2ff9","5f61dbf862ed4e0556ea25fa","false","null","<div style=""align-items: center; display: flex; color: darkorange; font-size: 90px""><b>ø</b></div>","null","","","","forget_cue","","","","","","","","","","","","","","","",""
"html-keyboard-response","148","439350","0.0-4.0-1.0-0.9","lm6gpr3o7e0o3wr","prime","5f30e412a128545570576268","5f60e3c0a3b16e07647b2ff9","5f61dbf862ed4e0556ea25fa","false","null","<span style=""color: black; font-size: 48px"">N + M</span>","null","","","","resp_prompt","","","","","","","","","","","","","","","",""
"categorize-image","149","440005","0.0-4.0-1.0-1.9","lm6gpr3o7e0o3wr","prime","5f30e412a128545570576268","5f60e3c0a3b16e07647b2ff9","5f61dbf862ed4e0556ea25fa","true","652.049999916926","./Stimuli/SelectedImages/LN/LN13.bmp","83","","","","test","true","N + M","83","repetition","LN","LN13.bmp","remember","","58","3","prime1","left","","","",""
"html-keyboard-response","150","442006","0.0-4.0-1.0-3.9","lm6gpr3o7e0o3wr","prime","5f30e412a128545570576268","5f60e3c0a3b16e07647b2ff9","5f61dbf862ed4e0556ea25fa","false","null","<div style=""align-items: center; display: flex; color: dodgerblue; font-size: 90px""><b>o</b></div>","null","","","","forget_cue","","","","","","","","","","","","","","","",""
"html-keyboard-response","151","442707","0.0-4.0-1.0-0.10","lm6gpr3o7e0o3wr","prime","5f30e412a128545570576268","5f60e3c0a3b16e07647b2ff9","5f61dbf862ed4e0556ea25fa","false","null","<span style=""color: black; font-size: 48px"">M + N</span>","null","","","","resp_prompt","","","","","","","","","","","","","","","",""
"categorize-image","152","443609","0.0-4.0-1.0-1.10","lm6gpr3o7e0o3wr","prime","5f30e412a128545570576268","5f60e3c0a3b16e07647b2ff9","5f61dbf862ed4e0556ea25fa","true","899.2449999786913","./Stimuli/SelectedImages/SM/SM205.bmp","83","","","","test","true","M + N","83","repetition","SM","SM205.bmp","forget","","59","3","prime1","left","","","",""
"html-keyboard-response","153","445611","0.0-4.0-1.0-3.10","lm6gpr3o7e0o3wr","prime","5f30e412a128545570576268","5f60e3c0a3b16e07647b2ff9","5f61dbf862ed4e0556ea25fa","false","null","<div style=""align-items: center; display: flex; color: darkorange; font-size: 90px""><b>ø</b></div>","null","","","","forget_cue","","","","","","","","","","","","","","","",""
"html-keyboard-response","154","446312","0.0-4.0-1.0-0.11","lm6gpr3o7e0o3wr","prime","5f30e412a128545570576268","5f60e3c0a3b16e07647b2ff9","5f61dbf862ed4e0556ea25fa","false","null","<span style=""color: black; font-size: 48px"">M + N</span>","null","","","","resp_prompt","","","","","","","","","","","","","","","",""
"categorize-image","155","446923","0.0-4.0-1.0-1.11","lm6gpr3o7e0o3wr","prime","5f30e412a128545570576268","5f60e3c0a3b16e07647b2ff9","5f61dbf862ed4e0556ea25fa","true","608.9200000278652","./Stimuli/SelectedImages/SN/SN182.bmp","76","","","","test","true","M + N","76","switch","SN","SN182.bmp","remember","","60","3","prime1","right","","","",""
"html-keyboard-response","156","448925","0.0-4.0-1.0-3.11","lm6gpr3o7e0o3wr","prime","5f30e412a128545570576268","5f60e3c0a3b16e07647b2ff9","5f61dbf862ed4e0556ea25fa","false","null","<div style=""align-items: center; display: flex; color: dodgerblue; font-size: 90px""><b>o</b></div>","null","","","","forget_cue","","","","","","","","","","","","","","","",""
"html-keyboard-response","157","449627","0.0-4.0-1.0-0.12","lm6gpr3o7e0o3wr","prime","5f30e412a128545570576268","5f60e3c0a3b16e07647b2ff9","5f61dbf862ed4e0556ea25fa","false","null","<span style=""color: black; font-size: 48px"">M + N</span>","null","","","","resp_prompt","","","","","","","","","","","","","","","",""
"categorize-image","158","450387","0.0-4.0-1.0-1.12","lm6gpr3o7e0o3wr","prime","5f30e412a128545570576268","5f60e3c0a3b16e07647b2ff9","5f61dbf862ed4e0556ea25fa","true","756.6150000784546","./Stimuli/SelectedImages/SM/SM207.bmp","83","","","","test","true","M + N","83","switch","SM","SM207.bmp","remember","","61","3","prime1","left","","","",""
"html-keyboard-response","159","452388","0.0-4.0-1.0-3.12","lm6gpr3o7e0o3wr","prime","5f30e412a128545570576268","5f60e3c0a3b16e07647b2ff9","5f61dbf862ed4e0556ea25fa","false","null","<div style=""align-items: center; display: flex; color: dodgerblue; font-size: 90px""><b>o</b></div>","null","","","","forget_cue","","","","","","","","","","","","","","","",""
"html-keyboard-response","160","453090","0.0-4.0-1.0-0.13","lm6gpr3o7e0o3wr","prime","5f30e412a128545570576268","5f60e3c0a3b16e07647b2ff9","5f61dbf862ed4e0556ea25fa","false","null","<span style=""color: black; font-size: 48px"">N + M</span>","null","","","","resp_prompt","","","","","","","","","","","","","","","",""
"categorize-image","161","453892","0.0-4.0-1.0-1.13","lm6gpr3o7e0o3wr","prime","5f30e412a128545570576268","5f60e3c0a3b16e07647b2ff9","5f61dbf862ed4e0556ea25fa","true","798.6300000920892","./Stimuli/SelectedImages/SN/SN60.bmp","83","","","","test","true","N + M","83","repetition","SN","SN60.bmp","forget","","62","3","prime1","left","","","",""
"html-keyboard-response","162","455893","0.0-4.0-1.0-3.13","lm6gpr3o7e0o3wr","prime","5f30e412a128545570576268","5f60e3c0a3b16e07647b2ff9","5f61dbf862ed4e0556ea25fa","false","null","<div style=""align-items: center; display: flex; color: darkorange; font-size: 90px""><b>ø</b></div>","null","","","","forget_cue","","","","","","","","","","","","","","","",""
"html-keyboard-response","163","456595","0.0-4.0-1.0-0.14","lm6gpr3o7e0o3wr","prime","5f30e412a128545570576268","5f60e3c0a3b16e07647b2ff9","5f61dbf862ed4e0556ea25fa","false","null","<span style=""color: black; font-size: 48px"">M + N</span>","null","","","","resp_prompt","","","","","","","","","","","","","","","",""
"categorize-image","164","457347","0.0-4.0-1.0-1.14","lm6gpr3o7e0o3wr","prime","5f30e412a128545570576268","5f60e3c0a3b16e07647b2ff9","5f61dbf862ed4e0556ea25fa","true","749.3499999400228","./Stimuli/SelectedImages/LN/LN9.bmp","76","","","","test","true","M + N","76","switch","LN","LN9.bmp","forget","","63","3","prime1","right","","","",""
"html-keyboard-response","165","459349","0.0-4.0-1.0-3.14","lm6gpr3o7e0o3wr","prime","5f30e412a128545570576268","5f60e3c0a3b16e07647b2ff9","5f61dbf862ed4e0556ea25fa","false","null","<div style=""align-items: center; display: flex; color: darkorange; font-size: 90px""><b>ø</b></div>","null","","","","forget_cue","","","","","","","","","","","","","","","",""
"html-keyboard-response","166","460051","0.0-4.0-1.0-0.15","lm6gpr3o7e0o3wr","prime","5f30e412a128545570576268","5f60e3c0a3b16e07647b2ff9","5f61dbf862ed4e0556ea25fa","false","null","<span style=""color: black; font-size: 48px"">N + M</span>","null","","","","resp_prompt","","","","","","","","","","","","","","","",""
"categorize-image","167","460895","0.0-4.0-1.0-1.15","lm6gpr3o7e0o3wr","prime","5f30e412a128545570576268","5f60e3c0a3b16e07647b2ff9","5f61dbf862ed4e0556ea25fa","true","840.7900000456721","./Stimuli/SelectedImages/SM/SM73.bmp","76","","","","test","true","N + M","76","switch","SM","SM73.bmp","forget","","64","3","prime1","right","","","",""
"html-keyboard-response","168","462897","0.0-4.0-1.0-3.15","lm6gpr3o7e0o3wr","prime","5f30e412a128545570576268","5f60e3c0a3b16e07647b2ff9","5f61dbf862ed4e0556ea25fa","false","null","<div style=""align-items: center; display: flex; color: darkorange; font-size: 90px""><b>ø</b></div>","null","","","","forget_cue","","","","","","","","","","","","","","","",""
"html-keyboard-response","169","463598","0.0-4.0-1.0-0.16","lm6gpr3o7e0o3wr","prime","5f30e412a128545570576268","5f60e3c0a3b16e07647b2ff9","5f61dbf862ed4e0556ea25fa","false","null","<span style=""color: black; font-size: 48px"">N + M</span>","null","","","","resp_prompt","","","","","","","","","","","","","","","",""
"categorize-image","170","464188","0.0-4.0-1.0-1.16","lm6gpr3o7e0o3wr","prime","5f30e412a128545570576268","5f60e3c0a3b16e07647b2ff9","5f61dbf862ed4e0556ea25fa","true","586.1849999055266","./Stimuli/SelectedImages/LM/LM150.bmp","76","","","","test","true","N + M","76","switch","LM","LM150.bmp","remember","","65","3","prime1","right","","","",""
"html-keyboard-response","171","466191","0.0-4.0-1.0-3.16","lm6gpr3o7e0o3wr","prime","5f30e412a128545570576268","5f60e3c0a3b16e07647b2ff9","5f61dbf862ed4e0556ea25fa","false","null","<div style=""align-items: center; display: flex; color: dodgerblue; font-size: 90px""><b>o</b></div>","null","","","","forget_cue","","","","","","","","","","","","","","","",""
"html-keyboard-response","172","466893","0.0-4.0-1.0-0.17","lm6gpr3o7e0o3wr","prime","5f30e412a128545570576268","5f60e3c0a3b16e07647b2ff9","5f61dbf862ed4e0556ea25fa","false","null","<span style=""color: black; font-size: 48px"">M + N</span>","null","","","","resp_prompt","","","","","","","","","","","","","","","",""
"categorize-image","173","467558","0.0-4.0-1.0-1.17","lm6gpr3o7e0o3wr","prime","5f30e412a128545570576268","5f60e3c0a3b16e07647b2ff9","5f61dbf862ed4e0556ea25fa","true","662.1499999891967","./Stimuli/SelectedImages/LM/LM58.bmp","83","","","","test","true","M + N","83","switch","LM","LM58.bmp","forget","","66","3","prime1","left","","","",""
"html-keyboard-response","174","469560","0.0-4.0-1.0-3.17","lm6gpr3o7e0o3wr","prime","5f30e412a128545570576268","5f60e3c0a3b16e07647b2ff9","5f61dbf862ed4e0556ea25fa","false","null","<div style=""align-items: center; display: flex; color: darkorange; font-size: 90px""><b>ø</b></div>","null","","","","forget_cue","","","","","","","","","","","","","","","",""
"html-keyboard-response","175","470260","0.0-4.0-1.0-0.18","lm6gpr3o7e0o3wr","prime","5f30e412a128545570576268","5f60e3c0a3b16e07647b2ff9","5f61dbf862ed4e0556ea25fa","false","null","<span style=""color: black; font-size: 48px"">M + N</span>","null","","","","resp_prompt","","","","","","","","","","","","","","","",""
"categorize-image","176","470904","0.0-4.0-1.0-1.18","lm6gpr3o7e0o3wr","prime","5f30e412a128545570576268","5f60e3c0a3b16e07647b2ff9","5f61dbf862ed4e0556ea25fa","true","641.6150000877678","./Stimuli/SelectedImages/LN/LN149.bmp","76","","","","test","true","M + N","76","switch","LN","LN149.bmp","forget","","67","3","prime1","right","","","",""
"html-keyboard-response","177","472905","0.0-4.0-1.0-3.18","lm6gpr3o7e0o3wr","prime","5f30e412a128545570576268","5f60e3c0a3b16e07647b2ff9","5f61dbf862ed4e0556ea25fa","false","null","<div style=""align-items: center; display: flex; color: darkorange; font-size: 90px""><b>ø</b></div>","null","","","","forget_cue","","","","","","","","","","","","","","","",""
"html-keyboard-response","178","473607","0.0-4.0-1.0-0.19","lm6gpr3o7e0o3wr","prime","5f30e412a128545570576268","5f60e3c0a3b16e07647b2ff9","5f61dbf862ed4e0556ea25fa","false","null","<span style=""color: black; font-size: 48px"">N + M</span>","null","","","","resp_prompt","","","","","","","","","","","","","","","",""
"categorize-image","179","474300","0.0-4.0-1.0-1.19","lm6gpr3o7e0o3wr","prime","5f30e412a128545570576268","5f60e3c0a3b16e07647b2ff9","5f61dbf862ed4e0556ea25fa","true","690.3150000143796","./Stimuli/SelectedImages/SM/SM195.bmp","76","","","","test","true","N + M","76","switch","SM","SM195.bmp","remember","","68","3","prime1","right","","","",""
"html-keyboard-response","180","476303","0.0-4.0-1.0-3.19","lm6gpr3o7e0o3wr","prime","5f30e412a128545570576268","5f60e3c0a3b16e07647b2ff9","5f61dbf862ed4e0556ea25fa","false","null","<div style=""align-items: center; display: flex; color: dodgerblue; font-size: 90px""><b>o</b></div>","null","","","","forget_cue","","","","","","","","","","","","","","","",""
"html-keyboard-response","181","477004","0.0-4.0-1.0-0.20","lm6gpr3o7e0o3wr","prime","5f30e412a128545570576268","5f60e3c0a3b16e07647b2ff9","5f61dbf862ed4e0556ea25fa","false","null","<span style=""color: black; font-size: 48px"">M + N</span>","null","","","","resp_prompt","","","","","","","","","","","","","","","",""
"categorize-image","182","477654","0.0-4.0-1.0-1.20","lm6gpr3o7e0o3wr","prime","5f30e412a128545570576268","5f60e3c0a3b16e07647b2ff9","5f61dbf862ed4e0556ea25fa","true","646.4299999643117","./Stimuli/SelectedImages/LN/LN12.bmp","76","","","","test","true","M + N","76","switch","LN","LN12.bmp","remember","","69","3","prime1","right","","","",""
"html-keyboard-response","183","479655","0.0-4.0-1.0-3.20","lm6gpr3o7e0o3wr","prime","5f30e412a128545570576268","5f60e3c0a3b16e07647b2ff9","5f61dbf862ed4e0556ea25fa","false","null","<div style=""align-items: center; display: flex; color: dodgerblue; font-size: 90px""><b>o</b></div>","null","","","","forget_cue","","","","","","","","","","","","","","","",""
"html-keyboard-response","184","480356","0.0-4.0-1.0-0.21","lm6gpr3o7e0o3wr","prime","5f30e412a128545570576268","5f60e3c0a3b16e07647b2ff9","5f61dbf862ed4e0556ea25fa","false","null","<span style=""color: black; font-size: 48px"">M + N</span>","null","","","","resp_prompt","","","","","","","","","","","","","","","",""
"categorize-image","185","481058","0.0-4.0-1.0-1.21","lm6gpr3o7e0o3wr","prime","5f30e412a128545570576268","5f60e3c0a3b16e07647b2ff9","5f61dbf862ed4e0556ea25fa","true","699.2200000677258","./Stimuli/SelectedImages/LN/LN59.bmp","76","","","","test","true","M + N","76","repetition","LN","LN59.bmp","forget","","70","3","prime1","right","","","",""
"html-keyboard-response","186","483059","0.0-4.0-1.0-3.21","lm6gpr3o7e0o3wr","prime","5f30e412a128545570576268","5f60e3c0a3b16e07647b2ff9","5f61dbf862ed4e0556ea25fa","false","null","<div style=""align-items: center; display: flex; color: darkorange; font-size: 90px""><b>ø</b></div>","null","","","","forget_cue","","","","","","","","","","","","","","","",""
"html-keyboard-response","187","483761","0.0-4.0-1.0-0.22","lm6gpr3o7e0o3wr","prime","5f30e412a128545570576268","5f60e3c0a3b16e07647b2ff9","5f61dbf862ed4e0556ea25fa","false","null","<span style=""color: black; font-size: 48px"">N + M</span>","null","","","","resp_prompt","","","","","","","","","","","","","","","",""
"categorize-image","188","484499","0.0-4.0-1.0-1.22","lm6gpr3o7e0o3wr","prime","5f30e412a128545570576268","5f60e3c0a3b16e07647b2ff9","5f61dbf862ed4e0556ea25fa","true","734.6350001171231","./Stimuli/SelectedImages/LN/LN131.bmp","83","","","","test","true","N + M","83","switch","LN","LN131.bmp","remember","","71","3","prime1","left","","","",""
"html-keyboard-response","189","486501","0.0-4.0-1.0-3.22","lm6gpr3o7e0o3wr","prime","5f30e412a128545570576268","5f60e3c0a3b16e07647b2ff9","5f61dbf862ed4e0556ea25fa","false","null","<div style=""align-items: center; display: flex; color: dodgerblue; font-size: 90px""><b>o</b></div>","null","","","","forget_cue","","","","","","","","","","","","","","","",""
"html-keyboard-response","190","487203","0.0-4.0-1.0-0.23","lm6gpr3o7e0o3wr","prime","5f30e412a128545570576268","5f60e3c0a3b16e07647b2ff9","5f61dbf862ed4e0556ea25fa","false","null","<span style=""color: black; font-size: 48px"">M + N</span>","null","","","","resp_prompt","","","","","","","","","","","","","","","",""
"categorize-image","191","487736","0.0-4.0-1.0-1.23","lm6gpr3o7e0o3wr","prime","5f30e412a128545570576268","5f60e3c0a3b16e07647b2ff9","5f61dbf862ed4e0556ea25fa","true","529.744999948889","./Stimuli/SelectedImages/SN/SN128.bmp","76","","","","test","true","M + N","76","repetition","SN","SN128.bmp","remember","","72","3","prime1","right","","","",""
"html-keyboard-response","192","489737","0.0-4.0-1.0-3.23","lm6gpr3o7e0o3wr","prime","5f30e412a128545570576268","5f60e3c0a3b16e07647b2ff9","5f61dbf862ed4e0556ea25fa","false","null","<div style=""align-items: center; display: flex; color: dodgerblue; font-size: 90px""><b>o</b></div>","null","","","","forget_cue","","","","","","","","","","","","","","","",""
"html-keyboard-response","193","490440","0.0-4.0-1.0-0.24","lm6gpr3o7e0o3wr","prime","5f30e412a128545570576268","5f60e3c0a3b16e07647b2ff9","5f61dbf862ed4e0556ea25fa","false","null","<span style=""color: black; font-size: 48px"">N + M</span>","null","","","","resp_prompt","","","","","","","","","","","","","","","",""
"categorize-image","194","491123","0.0-4.0-1.0-1.24","lm6gpr3o7e0o3wr","prime","5f30e412a128545570576268","5f60e3c0a3b16e07647b2ff9","5f61dbf862ed4e0556ea25fa","true","680.6099999230355","./Stimuli/SelectedImages/SN/SN111.bmp","83","","","","test","true","N + M","83","switch","SN","SN111.bmp","remember","","73","3","prime1","left","","","",""
"html-keyboard-response","195","493124","0.0-4.0-1.0-3.24","lm6gpr3o7e0o3wr","prime","5f30e412a128545570576268","5f60e3c0a3b16e07647b2ff9","5f61dbf862ed4e0556ea25fa","false","null","<div style=""align-items: center; display: flex; color: dodgerblue; font-size: 90px""><b>o</b></div>","null","","","","forget_cue","","","","","","","","","","","","","","","",""
"html-keyboard-response","196","493826","0.0-4.0-1.0-0.25","lm6gpr3o7e0o3wr","prime","5f30e412a128545570576268","5f60e3c0a3b16e07647b2ff9","5f61dbf862ed4e0556ea25fa","false","null","<span style=""color: black; font-size: 48px"">N + M</span>","null","","","","resp_prompt","","","","","","","","","","","","","","","",""
"categorize-image","197","494453","0.0-4.0-1.0-1.25","lm6gpr3o7e0o3wr","prime","5f30e412a128545570576268","5f60e3c0a3b16e07647b2ff9","5f61dbf862ed4e0556ea25fa","true","623.4349999576807","./Stimuli/SelectedImages/LM/LM235.bmp","76","","","","test","true","N + M","76","switch","LM","LM235.bmp","remember","","74","3","prime1","right","","","",""
"html-keyboard-response","198","496456","0.0-4.0-1.0-3.25","lm6gpr3o7e0o3wr","prime","5f30e412a128545570576268","5f60e3c0a3b16e07647b2ff9","5f61dbf862ed4e0556ea25fa","false","null","<div style=""align-items: center; display: flex; color: dodgerblue; font-size: 90px""><b>o</b></div>","null","","","","forget_cue","","","","","","","","","","","","","","","",""
"html-keyboard-response","199","497157","0.0-4.0-1.0-0.26","lm6gpr3o7e0o3wr","prime","5f30e412a128545570576268","5f60e3c0a3b16e07647b2ff9","5f61dbf862ed4e0556ea25fa","false","null","<span style=""color: black; font-size: 48px"">M + N</span>","null","","","","resp_prompt","","","","","","","","","","","","","","","",""
"categorize-image","200","497934","0.0-4.0-1.0-1.26","lm6gpr3o7e0o3wr","prime","5f30e412a128545570576268","5f60e3c0a3b16e07647b2ff9","5f61dbf862ed4e0556ea25fa","true","774.7550001367927","./Stimuli/SelectedImages/SM/SM108.bmp","83","","","","test","true","M + N","83","switch","SM","SM108.bmp","remember","","75","3","prime1","left","","","",""
"html-keyboard-response","201","499936","0.0-4.0-1.0-3.26","lm6gpr3o7e0o3wr","prime","5f30e412a128545570576268","5f60e3c0a3b16e07647b2ff9","5f61dbf862ed4e0556ea25fa","false","null","<div style=""align-items: center; display: flex; color: dodgerblue; font-size: 90px""><b>o</b></div>","null","","","","forget_cue","","","","","","","","","","","","","","","",""
"html-keyboard-response","202","500637","0.0-4.0-1.0-0.27","lm6gpr3o7e0o3wr","prime","5f30e412a128545570576268","5f60e3c0a3b16e07647b2ff9","5f61dbf862ed4e0556ea25fa","false","null","<span style=""color: black; font-size: 48px"">M + N</span>","null","","","","resp_prompt","","","","","","","","","","","","","","","",""
"categorize-image","203","501400","0.0-4.0-1.0-1.27","lm6gpr3o7e0o3wr","prime","5f30e412a128545570576268","5f60e3c0a3b16e07647b2ff9","5f61dbf862ed4e0556ea25fa","true","759.4400001689792","./Stimuli/SelectedImages/LM/LM100.bmp","83","","","","test","true","M + N","83","repetition","LM","LM100.bmp","remember","","76","3","prime1","left","","","",""
"html-keyboard-response","204","503401","0.0-4.0-1.0-3.27","lm6gpr3o7e0o3wr","prime","5f30e412a128545570576268","5f60e3c0a3b16e07647b2ff9","5f61dbf862ed4e0556ea25fa","false","null","<div style=""align-items: center; display: flex; color: dodgerblue; font-size: 90px""><b>o</b></div>","null","","","","forget_cue","","","","","","","","","","","","","","","",""
"html-keyboard-response","205","504103","0.0-4.0-1.0-0.28","lm6gpr3o7e0o3wr","prime","5f30e412a128545570576268","5f60e3c0a3b16e07647b2ff9","5f61dbf862ed4e0556ea25fa","false","null","<span style=""color: black; font-size: 48px"">N + M</span>","null","","","","resp_prompt","","","","","","","","","","","","","","","",""
"categorize-image","206","504731","0.0-4.0-1.0-1.28","lm6gpr3o7e0o3wr","prime","5f30e412a128545570576268","5f60e3c0a3b16e07647b2ff9","5f61dbf862ed4e0556ea25fa","true","624.599999981001","./Stimuli/SelectedImages/LN/LN128.bmp","83","","","","test","true","N + M","83","switch","LN","LN128.bmp","forget","","77","3","prime1","left","","","",""
"html-keyboard-response","207","506733","0.0-4.0-1.0-3.28","lm6gpr3o7e0o3wr","prime","5f30e412a128545570576268","5f60e3c0a3b16e07647b2ff9","5f61dbf862ed4e0556ea25fa","false","null","<div style=""align-items: center; display: flex; color: darkorange; font-size: 90px""><b>ø</b></div>","null","","","","forget_cue","","","","","","","","","","","","","","","",""
"html-keyboard-response","208","507435","0.0-4.0-1.0-0.29","lm6gpr3o7e0o3wr","prime","5f30e412a128545570576268","5f60e3c0a3b16e07647b2ff9","5f61dbf862ed4e0556ea25fa","false","null","<span style=""color: black; font-size: 48px"">M + N</span>","null","","","","resp_prompt","","","","","","","","","","","","","","","",""
"categorize-image","209","508125","0.0-4.0-1.0-1.29","lm6gpr3o7e0o3wr","prime","5f30e412a128545570576268","5f60e3c0a3b16e07647b2ff9","5f61dbf862ed4e0556ea25fa","true","687.184999929741","./Stimuli/SelectedImages/SM/SM184.bmp","83","","","","test","true","M + N","83","repetition","SM","SM184.bmp","remember","","78","3","prime1","left","","","",""
"html-keyboard-response","210","510128","0.0-4.0-1.0-3.29","lm6gpr3o7e0o3wr","prime","5f30e412a128545570576268","5f60e3c0a3b16e07647b2ff9","5f61dbf862ed4e0556ea25fa","false","null","<div style=""align-items: center; display: flex; color: dodgerblue; font-size: 90px""><b>o</b></div>","null","","","","forget_cue","","","","","","","","","","","","","","","",""
"html-keyboard-response","211","510829","0.0-4.0-1.0-0.30","lm6gpr3o7e0o3wr","prime","5f30e412a128545570576268","5f60e3c0a3b16e07647b2ff9","5f61dbf862ed4e0556ea25fa","false","null","<span style=""color: black; font-size: 48px"">N + M</span>","null","","","","resp_prompt","","","","","","","","","","","","","","","",""
"categorize-image","212","511656","0.0-4.0-1.0-1.30","lm6gpr3o7e0o3wr","prime","5f30e412a128545570576268","5f60e3c0a3b16e07647b2ff9","5f61dbf862ed4e0556ea25fa","true","823.534999974072","./Stimuli/SelectedImages/SN/SN179.bmp","83","","","","test","true","N + M","83","switch","SN","SN179.bmp","forget","","79","3","prime1","left","","","",""
"html-keyboard-response","213","513658","0.0-4.0-1.0-3.30","lm6gpr3o7e0o3wr","prime","5f30e412a128545570576268","5f60e3c0a3b16e07647b2ff9","5f61dbf862ed4e0556ea25fa","false","null","<div style=""align-items: center; display: flex; color: darkorange; font-size: 90px""><b>ø</b></div>","null","","","","forget_cue","","","","","","","","","","","","","","","",""
"html-keyboard-response","214","514360","0.0-4.0-1.0-0.31","lm6gpr3o7e0o3wr","prime","5f30e412a128545570576268","5f60e3c0a3b16e07647b2ff9","5f61dbf862ed4e0556ea25fa","false","null","<span style=""color: black; font-size: 48px"">M + N</span>","null","","","","resp_prompt","","","","","","","","","","","","","","","",""
"categorize-image","215","515156","0.0-4.0-1.0-1.31","lm6gpr3o7e0o3wr","prime","5f30e412a128545570576268","5f60e3c0a3b16e07647b2ff9","5f61dbf862ed4e0556ea25fa","true","792.4399999901652","./Stimuli/SelectedImages/LM/LM57.bmp","83","","","","test","true","M + N","83","repetition","LM","LM57.bmp","forget","","80","3","prime1","left","","","",""
"html-keyboard-response","216","517157","0.0-4.0-1.0-3.31","lm6gpr3o7e0o3wr","prime","5f30e412a128545570576268","5f60e3c0a3b16e07647b2ff9","5f61dbf862ed4e0556ea25fa","false","null","<div style=""align-items: center; display: flex; color: darkorange; font-size: 90px""><b>ø</b></div>","null","","","","forget_cue","","","","","","","","","","","","","","","",""
"html-keyboard-response","217","517859","0.0-4.0-1.0-0.32","lm6gpr3o7e0o3wr","prime","5f30e412a128545570576268","5f60e3c0a3b16e07647b2ff9","5f61dbf862ed4e0556ea25fa","false","null","<span style=""color: black; font-size: 48px"">N + M</span>","null","","","","resp_prompt","","","","","","","","","","","","","","","",""
"categorize-image","218","518702","0.0-4.0-1.0-1.32","lm6gpr3o7e0o3wr","prime","5f30e412a128545570576268","5f60e3c0a3b16e07647b2ff9","5f61dbf862ed4e0556ea25fa","true","840.6399998348206","./Stimuli/SelectedImages/LM/LM103.bmp","76","","","","test","true","N + M","76","repetition","LM","LM103.bmp","forget","","81","3","prime1","right","","","",""
"html-keyboard-response","219","520704","0.0-4.0-1.0-3.32","lm6gpr3o7e0o3wr","prime","5f30e412a128545570576268","5f60e3c0a3b16e07647b2ff9","5f61dbf862ed4e0556ea25fa","false","null","<div style=""align-items: center; display: flex; color: darkorange; font-size: 90px""><b>ø</b></div>","null","","","","forget_cue","","","","","","","","","","","","","","","",""
"html-keyboard-response","220","521406","0.0-4.0-1.0-0.33","lm6gpr3o7e0o3wr","prime","5f30e412a128545570576268","5f60e3c0a3b16e07647b2ff9","5f61dbf862ed4e0556ea25fa","false","null","<span style=""color: black; font-size: 48px"">M + N</span>","null","","","","resp_prompt","","","","","","","","","","","","","","","",""
"categorize-image","221","522516","0.0-4.0-1.0-1.33","lm6gpr3o7e0o3wr","prime","5f30e412a128545570576268","5f60e3c0a3b16e07647b2ff9","5f61dbf862ed4e0556ea25fa","true","1106.7449999973178","./Stimuli/SelectedImages/SM/SM128.bmp","83","","","","test","true","M + N","83","repetition","SM","SM128.bmp","forget","","82","3","prime1","left","","","",""
"html-keyboard-response","222","524518","0.0-4.0-1.0-3.33","lm6gpr3o7e0o3wr","prime","5f30e412a128545570576268","5f60e3c0a3b16e07647b2ff9","5f61dbf862ed4e0556ea25fa","false","null","<div style=""align-items: center; display: flex; color: darkorange; font-size: 90px""><b>ø</b></div>","null","","","","forget_cue","","","","","","","","","","","","","","","",""
"html-keyboard-response","223","525219","0.0-4.0-1.0-0.34","lm6gpr3o7e0o3wr","prime","5f30e412a128545570576268","5f60e3c0a3b16e07647b2ff9","5f61dbf862ed4e0556ea25fa","false","null","<span style=""color: black; font-size: 48px"">N + M</span>","null","","","","resp_prompt","","","","","","","","","","","","","","","",""
"categorize-image","224","525988","0.0-4.0-1.0-1.34","lm6gpr3o7e0o3wr","prime","5f30e412a128545570576268","5f60e3c0a3b16e07647b2ff9","5f61dbf862ed4e0556ea25fa","true","765.4599999077618","./Stimuli/SelectedImages/LM/LM48.bmp","76","","","","test","true","N + M","76","repetition","LM","LM48.bmp","forget","","83","3","prime1","right","","","",""
"html-keyboard-response","225","527989","0.0-4.0-1.0-3.34","lm6gpr3o7e0o3wr","prime","5f30e412a128545570576268","5f60e3c0a3b16e07647b2ff9","5f61dbf862ed4e0556ea25fa","false","null","<div style=""align-items: center; display: flex; color: darkorange; font-size: 90px""><b>ø</b></div>","null","","","","forget_cue","","","","","","","","","","","","","","","",""
"html-keyboard-response","226","528690","0.0-4.0-1.0-0.35","lm6gpr3o7e0o3wr","prime","5f30e412a128545570576268","5f60e3c0a3b16e07647b2ff9","5f61dbf862ed4e0556ea25fa","false","null","<span style=""color: black; font-size: 48px"">M + N</span>","null","","","","resp_prompt","","","","","","","","","","","","","","","",""
"categorize-image","227","529363","0.0-4.0-1.0-1.35","lm6gpr3o7e0o3wr","prime","5f30e412a128545570576268","5f60e3c0a3b16e07647b2ff9","5f61dbf862ed4e0556ea25fa","true","669.5000000763685","./Stimuli/SelectedImages/LM/LM129.bmp","83","","","","test","true","M + N","83","repetition","LM","LM129.bmp","remember","","84","3","prime1","left","","","",""
"html-keyboard-response","228","531364","0.0-4.0-1.0-3.35","lm6gpr3o7e0o3wr","prime","5f30e412a128545570576268","5f60e3c0a3b16e07647b2ff9","5f61dbf862ed4e0556ea25fa","false","null","<div style=""align-items: center; display: flex; color: dodgerblue; font-size: 90px""><b>o</b></div>","null","","","","forget_cue","","","","","","","","","","","","","","","",""
"html-keyboard-response","229","532065","0.0-4.0-1.0-0.36","lm6gpr3o7e0o3wr","prime","5f30e412a128545570576268","5f60e3c0a3b16e07647b2ff9","5f61dbf862ed4e0556ea25fa","false","null","<span style=""color: black; font-size: 48px"">M + N</span>","null","","","","resp_prompt","","","","","","","","","","","","","","","",""
"categorize-image","230","532847","0.0-4.0-1.0-1.36","lm6gpr3o7e0o3wr","prime","5f30e412a128545570576268","5f60e3c0a3b16e07647b2ff9","5f61dbf862ed4e0556ea25fa","true","779.4999999459833","./Stimuli/SelectedImages/LN/LN111.bmp","76","","","","test","true","M + N","76","repetition","LN","LN111.bmp","remember","","85","3","prime1","right","","","",""
"html-keyboard-response","231","534848","0.0-4.0-1.0-3.36","lm6gpr3o7e0o3wr","prime","5f30e412a128545570576268","5f60e3c0a3b16e07647b2ff9","5f61dbf862ed4e0556ea25fa","false","null","<div style=""align-items: center; display: flex; color: dodgerblue; font-size: 90px""><b>o</b></div>","null","","","","forget_cue","","","","","","","","","","","","","","","",""
"html-keyboard-response","232","535550","0.0-4.0-1.0-0.37","lm6gpr3o7e0o3wr","prime","5f30e412a128545570576268","5f60e3c0a3b16e07647b2ff9","5f61dbf862ed4e0556ea25fa","false","null","<span style=""color: black; font-size: 48px"">N + M</span>","null","","","","resp_prompt","","","","","","","","","","","","","","","",""
"categorize-image","233","536307","0.0-4.0-1.0-1.37","lm6gpr3o7e0o3wr","prime","5f30e412a128545570576268","5f60e3c0a3b16e07647b2ff9","5f61dbf862ed4e0556ea25fa","true","754.1600000113249","./Stimuli/SelectedImages/SM/SM78.bmp","76","","","","test","true","N + M","76","repetition","SM","SM78.bmp","forget","","86","3","prime1","right","","","",""
"html-keyboard-response","234","538309","0.0-4.0-1.0-3.37","lm6gpr3o7e0o3wr","prime","5f30e412a128545570576268","5f60e3c0a3b16e07647b2ff9","5f61dbf862ed4e0556ea25fa","false","null","<div style=""align-items: center; display: flex; color: darkorange; font-size: 90px""><b>ø</b></div>","null","","","","forget_cue","","","","","","","","","","","","","","","",""
"html-keyboard-response","235","539012","0.0-4.0-1.0-0.38","lm6gpr3o7e0o3wr","prime","5f30e412a128545570576268","5f60e3c0a3b16e07647b2ff9","5f61dbf862ed4e0556ea25fa","false","null","<span style=""color: black; font-size: 48px"">N + M</span>","null","","","","resp_prompt","","","","","","","","","","","","","","","",""
"categorize-image","236","539770","0.0-4.0-1.0-1.38","lm6gpr3o7e0o3wr","prime","5f30e412a128545570576268","5f60e3c0a3b16e07647b2ff9","5f61dbf862ed4e0556ea25fa","true","750.5150001961738","./Stimuli/SelectedImages/LN/LN166.bmp","83","","","","test","true","N + M","83","switch","LN","LN166.bmp","forget","","87","3","prime1","left","","","",""
"html-keyboard-response","237","541771","0.0-4.0-1.0-3.38","lm6gpr3o7e0o3wr","prime","5f30e412a128545570576268","5f60e3c0a3b16e07647b2ff9","5f61dbf862ed4e0556ea25fa","false","null","<div style=""align-items: center; display: flex; color: darkorange; font-size: 90px""><b>ø</b></div>","null","","","","forget_cue","","","","","","","","","","","","","","","",""
"html-keyboard-response","238","542474","0.0-4.0-1.0-0.39","lm6gpr3o7e0o3wr","prime","5f30e412a128545570576268","5f60e3c0a3b16e07647b2ff9","5f61dbf862ed4e0556ea25fa","false","null","<span style=""color: black; font-size: 48px"">M + N</span>","null","","","","resp_prompt","","","","","","","","","","","","","","","",""
"categorize-image","239","543228","0.0-4.0-1.0-1.39","lm6gpr3o7e0o3wr","prime","5f30e412a128545570576268","5f60e3c0a3b16e07647b2ff9","5f61dbf862ed4e0556ea25fa","true","751.4750000555068","./Stimuli/SelectedImages/LM/LM157.bmp","83","","","","test","true","M + N","83","repetition","LM","LM157.bmp","forget","","88","3","prime1","left","","","",""
"html-keyboard-response","240","545230","0.0-4.0-1.0-3.39","lm6gpr3o7e0o3wr","prime","5f30e412a128545570576268","5f60e3c0a3b16e07647b2ff9","5f61dbf862ed4e0556ea25fa","false","null","<div style=""align-items: center; display: flex; color: darkorange; font-size: 90px""><b>ø</b></div>","null","","","","forget_cue","","","","","","","","","","","","","","","",""
"html-keyboard-response","241","545932","0.0-4.0-1.0-0.40","lm6gpr3o7e0o3wr","prime","5f30e412a128545570576268","5f60e3c0a3b16e07647b2ff9","5f61dbf862ed4e0556ea25fa","false","null","<span style=""color: black; font-size: 48px"">M + N</span>","null","","","","resp_prompt","","","","","","","","","","","","","","","",""
"categorize-image","242","546637","0.0-4.0-1.0-1.40","lm6gpr3o7e0o3wr","prime","5f30e412a128545570576268","5f60e3c0a3b16e07647b2ff9","5f61dbf862ed4e0556ea25fa","true","701.4200000558048","./Stimuli/SelectedImages/SN/SN187.bmp","76","","","","test","true","M + N","76","switch","SN","SN187.bmp","forget","","89","3","prime1","right","","","",""
"html-keyboard-response","243","548639","0.0-4.0-1.0-3.40","lm6gpr3o7e0o3wr","prime","5f30e412a128545570576268","5f60e3c0a3b16e07647b2ff9","5f61dbf862ed4e0556ea25fa","false","null","<div style=""align-items: center; display: flex; color: darkorange; font-size: 90px""><b>ø</b></div>","null","","","","forget_cue","","","","","","","","","","","","","","","",""
"html-keyboard-response","244","549341","0.0-4.0-1.0-0.41","lm6gpr3o7e0o3wr","prime","5f30e412a128545570576268","5f60e3c0a3b16e07647b2ff9","5f61dbf862ed4e0556ea25fa","false","null","<span style=""color: black; font-size: 48px"">M + N</span>","null","","","","resp_prompt","","","","","","","","","","","","","","","",""
"categorize-image","245","550020","0.0-4.0-1.0-1.41","lm6gpr3o7e0o3wr","prime","5f30e412a128545570576268","5f60e3c0a3b16e07647b2ff9","5f61dbf862ed4e0556ea25fa","true","676.7349999863654","./Stimuli/SelectedImages/LN/LN101.bmp","76","","","","test","true","M + N","76","switch","LN","LN101.bmp","remember","","90","3","prime1","right","","","",""
"html-keyboard-response","246","552022","0.0-4.0-1.0-3.41","lm6gpr3o7e0o3wr","prime","5f30e412a128545570576268","5f60e3c0a3b16e07647b2ff9","5f61dbf862ed4e0556ea25fa","false","null","<div style=""align-items: center; display: flex; color: dodgerblue; font-size: 90px""><b>o</b></div>","null","","","","forget_cue","","","","","","","","","","","","","","","",""
"html-keyboard-response","247","552723","0.0-4.0-1.0-0.42","lm6gpr3o7e0o3wr","prime","5f30e412a128545570576268","5f60e3c0a3b16e07647b2ff9","5f61dbf862ed4e0556ea25fa","false","null","<span style=""color: black; font-size: 48px"">N + M</span>","null","","","","resp_prompt","","","","","","","","","","","","","","","",""
"categorize-image","248","553378","0.0-4.0-1.0-1.42","lm6gpr3o7e0o3wr","prime","5f30e412a128545570576268","5f60e3c0a3b16e07647b2ff9","5f61dbf862ed4e0556ea25fa","true","651.7599998041987","./Stimuli/SelectedImages/LN/LN82.bmp","83","","","","test","true","N + M","83","repetition","LN","LN82.bmp","remember","","91","3","prime1","left","","","",""
"html-keyboard-response","249","555380","0.0-4.0-1.0-3.42","lm6gpr3o7e0o3wr","prime","5f30e412a128545570576268","5f60e3c0a3b16e07647b2ff9","5f61dbf862ed4e0556ea25fa","false","null","<div style=""align-items: center; display: flex; color: dodgerblue; font-size: 90px""><b>o</b></div>","null","","","","forget_cue","","","","","","","","","","","","","","","",""
"html-keyboard-response","250","556081","0.0-4.0-1.0-0.43","lm6gpr3o7e0o3wr","prime","5f30e412a128545570576268","5f60e3c0a3b16e07647b2ff9","5f61dbf862ed4e0556ea25fa","false","null","<span style=""color: black; font-size: 48px"">M + N</span>","null","","","","resp_prompt","","","","","","","","","","","","","","","",""
"categorize-image","251","556840","0.0-4.0-1.0-1.43","lm6gpr3o7e0o3wr","prime","5f30e412a128545570576268","5f60e3c0a3b16e07647b2ff9","5f61dbf862ed4e0556ea25fa","true","755.9999998193234","./Stimuli/SelectedImages/LM/LM179.bmp","83","","","","test","true","M + N","83","switch","LM","LM179.bmp","remember","","92","3","prime1","left","","","",""
"html-keyboard-response","252","558841","0.0-4.0-1.0-3.43","lm6gpr3o7e0o3wr","prime","5f30e412a128545570576268","5f60e3c0a3b16e07647b2ff9","5f61dbf862ed4e0556ea25fa","false","null","<div style=""align-items: center; display: flex; color: dodgerblue; font-size: 90px""><b>o</b></div>","null","","","","forget_cue","","","","","","","","","","","","","","","",""
