"trial_type","trial_index","time_elapsed","internal_node_id","subject","exp_part","prolific_PID","study_ID","session_ID","use","rt","stimulus","key_press","button_pressed","responses","question_order","trial_part","correct","resp_map","correct_resp","probe_condition","category","image","forget_condition","list","trial_num","block_num","block","response","test_part","n_span","sequence","num_spaces"
"pavlovia","0","6","0.0-0.0","1q1r367yjoldvpw","","5be373e07e3c9b0001c4d434","5f60e3c0a3b16e07647b2ff9","5f61dbfac287bf18da309131","false","","","","","","","","","","","","","","","","","","","","","","",""
"html-keyboard-response","1","5627","0.0-1.0-0.0-0.0","1q1r367yjoldvpw","welcome","5be373e07e3c9b0001c4d434","5f60e3c0a3b16e07647b2ff9","5f61dbfac287bf18da309131","false","5617.949999999837","<div align=left>Dear participant, <br> thank you for participating in an online study of the Cognition, Action, and Sustainability Unit of the University of Freiburg! <br> <br>The aim of this study is to examine our ability to remember previously learned information. <br>Our goal is to find out, whether our memory improves, when we only remember information that is relevant to us. <br>The experiment will take about 35 minutes to complete. <br> <br>Please, note that you can only participate in this study if you are using a device with a keyboard (PC, Laptop etc.) <br>and not if you are using a mobile device such as a tablet or smartphone.<br> <br>Press 'SPACE' to proceed to the experiment. </div>","32","","","","","","","","","","","","","","","","","","","",""
"html-keyboard-response","2","23145","0.0-1.0-0.0-1.0","1q1r367yjoldvpw","welcome","5be373e07e3c9b0001c4d434","5f60e3c0a3b16e07647b2ff9","5f61dbfac287bf18da309131","false","17517.68499999889","<div align=left><strong> Time Course of this experiment: </strong> <br><br> <strong> 1.</strong>  First, please fill in some information regarding your demographic data. <br><br> <strong> 2.</strong>  Next, your task will be to classify everyday objects. <br>In addition, you will be asked to remember certain objects and recall them later. <br>Working on these tasks requires your undivided attention and concentration.<br>It is therefore essential that you eliminate any sources of distraction in your  <br>environment and ensure that you will not be disturbed. <br><br><strong> 3.</strong>  At the end of the experiment, you will be asked to answer a few additional questions. <br> <br><strong> Important:</strong> After finishing the experiment, only close the browser window <br> by clicking on the 'end the experiment'-button when you are asked to do so. <br>Closing the browser window prematurely will make the allocation of your participation credit impossible. <br><br> Press 'SPACE' to start the experiment. </div>","32","","","","","","","","","","","","","","","","","","","",""
"html-button-response","3","32205","0.0-1.0-0.0-2.0","1q1r367yjoldvpw","welcome","5be373e07e3c9b0001c4d434","5f60e3c0a3b16e07647b2ff9","5f61dbfac287bf18da309131","true","9058.310000000347","<div align=left><strong> Informed consent </strong>  <br>The aim of our research is to better understand human behavior and mental processes. <br>In the following study your behavior (e.g. choices, reaction times) will be studied. <br> <br><strong> Voluntariness and Anonymity </strong> <br>Your participation in this study is  <strong> voluntary</strong>.<br>You may withdraw your consent to participate at any time without providing a reason for doing so and without fear of prejudice. <br><br>As no personal data will be collected, <strong>your data and your person cannot be connected after data collection</strong> – the data-set is anonymous. <br>Respectively, deletion of your data will not be possible after data collection has been completed, as we cannot retrace your data-set.<br>The results and anonymized data collected in this study will be published as a scientific publication. <br>This will happen in an <strong>anonymized format</strong>, so that no data can be traced back to a specific person. <br> <br>The anonymized data of this study will be made available to other researchers and/or in a data archive on the Internet as a means of transparency and to enable subsequent re-use. By doing so, this study follows the recommendations of the Deutsche Forschungsgemeinschaft (DFG, German Research Foundation) and Deutsche Gesellschaft für Psychologie (DGPS, German Psychological Society) regarding quality assurance in research.<br>If you have any questions now or after the experiment, please contact our team (experiments@cs.uni-freiburg.de).<br><br><br>I hereby declare, that I understand the above described conditions of participation and I agree to participate under these conditions. <br><br> </div>","","0","","","","","","","","","","","","","","","","","","",""
"html-keyboard-response","4","85962","0.0-1.0-0.0-3.0","1q1r367yjoldvpw","welcome","5be373e07e3c9b0001c4d434","5f60e3c0a3b16e07647b2ff9","5f61dbfac287bf18da309131","false","53754.885000000286","<div align=left><strong> General information concerning the experiment </strong>  <br> <br>Please follow the instructions:<ol> <li><strong> Do not leave this tab (your browser window) during the experiment and do not reload this tab! </strong>  <br>If you do switch tabs/windows during the experiment (to check your mail or visit another website, for example), <br>the experiment will end automatically and you will <strong>not receive credit</strong> for your participation. <br>Repeated participation or resumption of the experiment is impossible.</li> <br><li>Please close all other programs for the duration of your participation. </li> <br><li>Please mute or turn off your phone and put it out of your reach. </li> <br><li>Please also take off any disturbing accessories (such as wristwatches, bracelets, etc.). </li> <br><li>If you have music playing in the background, please turn it off now. </li> <br></ol>Thank you! <br>Press 'SPACE' to continue. </div>","32","","","","","","","","","","","","","","","","","","","",""
"survey-text","5","88586","0.0-1.0-1.0-0.0","1q1r367yjoldvpw","demographics","5be373e07e3c9b0001c4d434","5f60e3c0a3b16e07647b2ff9","5f61dbfac287bf18da309131","true","2620.7850000009785","","","","{""age"":""40""}","","","","","","","","","","","","","","","","","",""
"survey-multi-choice","6","119266","0.0-1.0-1.0-1.0","1q1r367yjoldvpw","demographics","5be373e07e3c9b0001c4d434","5f60e3c0a3b16e07647b2ff9","5f61dbfac287bf18da309131","true","30678.835000000618","","","","{""gender"":""male"",""school"":""high school"",""education"":""Completed university degree or equivalent""}","[0,1,2]","","","","","","","","","","","","","","","","",""
"html-keyboard-response","7","124577","0.0-1.0-2.0","1q1r367yjoldvpw","instructions","5be373e07e3c9b0001c4d434","5f60e3c0a3b16e07647b2ff9","5f61dbfac287bf18da309131","false","5310.059999999794","<div align=left> The experiment is now about to start: <br> <br>In the following part, you will be presented pictures of everyday objects. <br>Your first task is to <strong>classify these objects. </strong> <br> <br> You will classify them either as mechanical or non-mechanical objects. <br> <br>Objects that include any kind of technical mechanism (for example, wheels, switches, levers, <br> electronic components) fall under the category of <strong>mechanical</strong> objects. <br>Only objects without any kind of technical mechanism should be classified as <strong>non-mechanical</strong>. <br><br>Press 'SPACE' to continue. </div>","32","","","","","","","","","","","","","","","","","","","",""
"html-keyboard-response","8","167549","0.0-2.0-0.0","1q1r367yjoldvpw","instructions","5be373e07e3c9b0001c4d434","5f60e3c0a3b16e07647b2ff9","5f61dbfac287bf18da309131","false","42971.14000000147","<div align=justify>You will classify the objects using the <strong>'S'</strong> and the <strong>'L'</strong> keys on your keyboard.<br>For doing so, please place your <strong>left index finger</strong> on the <strong>'S'</strong> key and place your <strong>right index finger</strong> on the <strong>'L'</strong> key. <br><br> Each trial starts with an instruction, indicating which key ('S'/'L') you need to press to classify <br>the object as mechanical (letter M) or non-mechanical (letter N).<br>The instruction <strong>M + N</strong> indicates that, in the current trial, by pressing the left key ('S') you classify the displayed object as mechanical (M) <br> and by pressing the right key ('L') you classify the object as non-mechanical (N). <br>The instruction <strong>N + M</strong> on the other hand indicates that by pressing the left key ('S') you classify the displayed object as non-mechanical (N) <br> and by pressing the right key ('L') you classify the object as mechanical (M). <br><br>Please press the key corresponding to the correct classification as fast as possible as soon as the object is displayed and try to avoid making mistakes.<br>If you do not respond within a 2 second window, a corresponding feedback will be displayed and the next trial will start.<br> The experiment is divided into multiple blocks to give you the opportunity to take a break after each block. <br>First, you can now practice this task. <br><br>Please place your <strong>LEFT INDEX FINGER</strong> on the 'S' key and your <strong>RIGHT INDEX FINGER</strong> on the 'L' key now. <br><br>Press SPACE to continue.</div>","32","","","","","","","","","","","","","","","","","","","",""
"html-keyboard-response","9","175829","0.0-2.0-1.0","1q1r367yjoldvpw","instructions","5be373e07e3c9b0001c4d434","5f60e3c0a3b16e07647b2ff9","5f61dbfac287bf18da309131","false","8278.904999999213","<div align=left> You will now have time to practice this task.<br><br>Remember: <br> <br><li>Please place your index fingers on the <strong>'S'</strong> and <strong>'L'</strong> keys <br>to respond as fast and accurately as possible.</li><li>Every picture can be classified as either mechanical or non-mechanical.</li><li>If you do not respond in time or commit an error, you will receive a corresponding feedback. </li><li> Please try to respond as <strong> fast </strong> and as <strong> accurately as possible </strong> .<br><li>To ensure optimal results, please minimize distractions and stay focused. </li><br><br>Press SPACE to continue.</div>","32","","","","","","","","","","","","","","","","","","","",""
"html-keyboard-response","10","176532","0.0-2.0-2.0-0.0","1q1r367yjoldvpw","practice_no_cue","5be373e07e3c9b0001c4d434","5f60e3c0a3b16e07647b2ff9","5f61dbfac287bf18da309131","false","null","<span style=""color: black; font-size: 48px"">N + M</span>","null","","","","resp_prompt","","","","","","","","","","","","","","","",""
"categorize-image","11","179037","0.0-2.0-2.0-1.0","1q1r367yjoldvpw","practice_no_cue","5be373e07e3c9b0001c4d434","5f60e3c0a3b16e07647b2ff9","5f61dbfac287bf18da309131","true","null","./Stimuli/ImagesPractice/SN205.jpg","null","","","","test","false","N + M","83","","SN","SN205.jpg","remember","old","1","1","start","too_slow","","","",""
"html-keyboard-response","12","179739","0.0-2.0-2.0-0.1","1q1r367yjoldvpw","practice_no_cue","5be373e07e3c9b0001c4d434","5f60e3c0a3b16e07647b2ff9","5f61dbfac287bf18da309131","false","null","<span style=""color: black; font-size: 48px"">M + N</span>","null","","","","resp_prompt","","","","","","","","","","","","","","","",""
"categorize-image","13","181362","0.0-2.0-2.0-1.1","1q1r367yjoldvpw","practice_no_cue","5be373e07e3c9b0001c4d434","5f60e3c0a3b16e07647b2ff9","5f61dbfac287bf18da309131","true","1121.3750000006403","./Stimuli/ImagesPractice/LN72.jpg","76","","","","test","true","M + N","76","","LN","LN72.jpg","remember","old","2","1","start","right","","","",""
"html-keyboard-response","14","182064","0.0-2.0-2.0-0.2","1q1r367yjoldvpw","practice_no_cue","5be373e07e3c9b0001c4d434","5f60e3c0a3b16e07647b2ff9","5f61dbfac287bf18da309131","false","null","<span style=""color: black; font-size: 48px"">M + N</span>","null","","","","resp_prompt","","","","","","","","","","","","","","","",""
"categorize-image","15","183377","0.0-2.0-2.0-1.2","1q1r367yjoldvpw","practice_no_cue","5be373e07e3c9b0001c4d434","5f60e3c0a3b16e07647b2ff9","5f61dbfac287bf18da309131","true","811.0249999990629","./Stimuli/ImagesPractice/SN75.jpg","76","","","","test","true","M + N","76","","SN","SN75.jpg","forget","old","3","1","start","right","","","",""
"html-keyboard-response","16","184079","0.0-2.0-2.0-0.3","1q1r367yjoldvpw","practice_no_cue","5be373e07e3c9b0001c4d434","5f60e3c0a3b16e07647b2ff9","5f61dbfac287bf18da309131","false","null","<span style=""color: black; font-size: 48px"">M + N</span>","null","","","","resp_prompt","","","","","","","","","","","","","","","",""
"categorize-image","17","185270","0.0-2.0-2.0-1.3","1q1r367yjoldvpw","practice_no_cue","5be373e07e3c9b0001c4d434","5f60e3c0a3b16e07647b2ff9","5f61dbfac287bf18da309131","true","688.3699999998498","./Stimuli/ImagesPractice/LN4.jpg","76","","","","test","true","M + N","76","","LN","LN4.jpg","remember","old","4","1","start","right","","","",""
"html-keyboard-response","18","185973","0.0-2.0-2.0-0.4","1q1r367yjoldvpw","practice_no_cue","5be373e07e3c9b0001c4d434","5f60e3c0a3b16e07647b2ff9","5f61dbfac287bf18da309131","false","null","<span style=""color: black; font-size: 48px"">M + N</span>","null","","","","resp_prompt","","","","","","","","","","","","","","","",""
"categorize-image","19","187246","0.0-2.0-2.0-1.4","1q1r367yjoldvpw","practice_no_cue","5be373e07e3c9b0001c4d434","5f60e3c0a3b16e07647b2ff9","5f61dbfac287bf18da309131","true","770.5949999999721","./Stimuli/ImagesPractice/SM37.jpg","83","","","","test","true","M + N","83","","SM","SM37.jpg","forget","old","5","1","start","left","","","",""
"html-keyboard-response","20","187948","0.0-2.0-2.0-0.5","1q1r367yjoldvpw","practice_no_cue","5be373e07e3c9b0001c4d434","5f60e3c0a3b16e07647b2ff9","5f61dbfac287bf18da309131","false","null","<span style=""color: black; font-size: 48px"">N + M</span>","null","","","","resp_prompt","","","","","","","","","","","","","","","",""
"categorize-image","21","189558","0.0-2.0-2.0-1.5","1q1r367yjoldvpw","practice_no_cue","5be373e07e3c9b0001c4d434","5f60e3c0a3b16e07647b2ff9","5f61dbfac287bf18da309131","true","1107.4099999986938","./Stimuli/ImagesPractice/SM61.jpg","83","","","","test","false","N + M","76","","SM","SM61.jpg","forget","old","6","1","start","left","","","",""
"html-keyboard-response","22","190261","0.0-2.0-2.0-0.6","1q1r367yjoldvpw","practice_no_cue","5be373e07e3c9b0001c4d434","5f60e3c0a3b16e07647b2ff9","5f61dbfac287bf18da309131","false","null","<span style=""color: black; font-size: 48px"">N + M</span>","null","","","","resp_prompt","","","","","","","","","","","","","","","",""
"categorize-image","23","191974","0.0-2.0-2.0-1.6","1q1r367yjoldvpw","practice_no_cue","5be373e07e3c9b0001c4d434","5f60e3c0a3b16e07647b2ff9","5f61dbfac287bf18da309131","true","1210.4599999983911","./Stimuli/ImagesPractice/LM143.jpg","83","","","","test","false","N + M","76","","LM","LM143.jpg","remember","old","7","1","start","left","","","",""
"html-keyboard-response","24","192676","0.0-2.0-2.0-0.7","1q1r367yjoldvpw","practice_no_cue","5be373e07e3c9b0001c4d434","5f60e3c0a3b16e07647b2ff9","5f61dbfac287bf18da309131","false","null","<span style=""color: black; font-size: 48px"">N + M</span>","null","","","","resp_prompt","","","","","","","","","","","","","","","",""
"categorize-image","25","194278","0.0-2.0-2.0-1.7","1q1r367yjoldvpw","practice_no_cue","5be373e07e3c9b0001c4d434","5f60e3c0a3b16e07647b2ff9","5f61dbfac287bf18da309131","true","1099.1549999998824","./Stimuli/ImagesPractice/SM35.jpg","76","","","","test","true","N + M","76","","SM","SM35.jpg","forget","old","8","1","start","right","","","",""
"html-keyboard-response","26","194980","0.0-2.0-2.0-0.8","1q1r367yjoldvpw","practice_no_cue","5be373e07e3c9b0001c4d434","5f60e3c0a3b16e07647b2ff9","5f61dbfac287bf18da309131","false","null","<span style=""color: black; font-size: 48px"">M + N</span>","null","","","","resp_prompt","","","","","","","","","","","","","","","",""
"categorize-image","27","196614","0.0-2.0-2.0-1.8","1q1r367yjoldvpw","practice_no_cue","5be373e07e3c9b0001c4d434","5f60e3c0a3b16e07647b2ff9","5f61dbfac287bf18da309131","true","1131.4399999991874","./Stimuli/ImagesPractice/SM62.jpg","83","","","","test","true","M + N","83","","SM","SM62.jpg","forget","old","9","1","start","left","","","",""
"html-keyboard-response","28","197315","0.0-2.0-2.0-0.9","1q1r367yjoldvpw","practice_no_cue","5be373e07e3c9b0001c4d434","5f60e3c0a3b16e07647b2ff9","5f61dbfac287bf18da309131","false","null","<span style=""color: black; font-size: 48px"">N + M</span>","null","","","","resp_prompt","","","","","","","","","","","","","","","",""
"categorize-image","29","198597","0.0-2.0-2.0-1.9","1q1r367yjoldvpw","practice_no_cue","5be373e07e3c9b0001c4d434","5f60e3c0a3b16e07647b2ff9","5f61dbfac287bf18da309131","true","780.6099999998114","./Stimuli/ImagesPractice/SN76.jpg","76","","","","test","false","N + M","83","","SN","SN76.jpg","forget","old","10","1","start","right","","","",""
"html-keyboard-response","30","199299","0.0-2.0-2.0-0.10","1q1r367yjoldvpw","practice_no_cue","5be373e07e3c9b0001c4d434","5f60e3c0a3b16e07647b2ff9","5f61dbfac287bf18da309131","false","null","<span style=""color: black; font-size: 48px"">M + N</span>","null","","","","resp_prompt","","","","","","","","","","","","","","","",""
"categorize-image","31","200678","0.0-2.0-2.0-1.10","1q1r367yjoldvpw","practice_no_cue","5be373e07e3c9b0001c4d434","5f60e3c0a3b16e07647b2ff9","5f61dbfac287bf18da309131","true","876.7649999990535","./Stimuli/ImagesPractice/LN109.jpg","76","","","","test","true","M + N","76","","LN","LN109.jpg","forget","old","11","1","start","right","","","",""
"html-keyboard-response","32","201379","0.0-2.0-2.0-0.11","1q1r367yjoldvpw","practice_no_cue","5be373e07e3c9b0001c4d434","5f60e3c0a3b16e07647b2ff9","5f61dbfac287bf18da309131","false","null","<span style=""color: black; font-size: 48px"">M + N</span>","null","","","","resp_prompt","","","","","","","","","","","","","","","",""
"categorize-image","33","202558","0.0-2.0-2.0-1.11","1q1r367yjoldvpw","practice_no_cue","5be373e07e3c9b0001c4d434","5f60e3c0a3b16e07647b2ff9","5f61dbfac287bf18da309131","true","676.6900000002352","./Stimuli/ImagesPractice/LN2.jpg","76","","","","test","true","M + N","76","","LN","LN2.jpg","remember","old","12","1","start","right","","","",""
"html-keyboard-response","34","203259","0.0-2.0-2.0-0.12","1q1r367yjoldvpw","practice_no_cue","5be373e07e3c9b0001c4d434","5f60e3c0a3b16e07647b2ff9","5f61dbfac287bf18da309131","false","null","<span style=""color: black; font-size: 48px"">N + M</span>","null","","","","resp_prompt","","","","","","","","","","","","","","","",""
"categorize-image","35","204437","0.0-2.0-2.0-1.12","1q1r367yjoldvpw","practice_no_cue","5be373e07e3c9b0001c4d434","5f60e3c0a3b16e07647b2ff9","5f61dbfac287bf18da309131","true","676.5450000002747","./Stimuli/ImagesPractice/LM239.jpg","83","","","","test","false","N + M","76","","LM","LM239.jpg","remember","old","13","1","start","left","","","",""
"html-keyboard-response","36","205139","0.0-2.0-2.0-0.13","1q1r367yjoldvpw","practice_no_cue","5be373e07e3c9b0001c4d434","5f60e3c0a3b16e07647b2ff9","5f61dbfac287bf18da309131","false","null","<span style=""color: black; font-size: 48px"">N + M</span>","null","","","","resp_prompt","","","","","","","","","","","","","","","",""
"categorize-image","37","206365","0.0-2.0-2.0-1.13","1q1r367yjoldvpw","practice_no_cue","5be373e07e3c9b0001c4d434","5f60e3c0a3b16e07647b2ff9","5f61dbfac287bf18da309131","true","724.545000000915","./Stimuli/ImagesPractice/LN17.jpg","76","","","","test","false","N + M","83","","LN","LN17.jpg","remember","old","14","1","start","right","","","",""
"html-keyboard-response","38","207067","0.0-2.0-2.0-0.14","1q1r367yjoldvpw","practice_no_cue","5be373e07e3c9b0001c4d434","5f60e3c0a3b16e07647b2ff9","5f61dbfac287bf18da309131","false","null","<span style=""color: black; font-size: 48px"">M + N</span>","null","","","","resp_prompt","","","","","","","","","","","","","","","",""
"categorize-image","39","208230","0.0-2.0-2.0-1.14","1q1r367yjoldvpw","practice_no_cue","5be373e07e3c9b0001c4d434","5f60e3c0a3b16e07647b2ff9","5f61dbfac287bf18da309131","true","660.6749999991735","./Stimuli/ImagesPractice/SN221.jpg","76","","","","test","true","M + N","76","","SN","SN221.jpg","remember","old","15","1","start","right","","","",""
"html-keyboard-response","40","208931","0.0-2.0-2.0-0.15","1q1r367yjoldvpw","practice_no_cue","5be373e07e3c9b0001c4d434","5f60e3c0a3b16e07647b2ff9","5f61dbfac287bf18da309131","false","null","<span style=""color: black; font-size: 48px"">N + M</span>","null","","","","resp_prompt","","","","","","","","","","","","","","","",""
"categorize-image","41","210214","0.0-2.0-2.0-1.15","1q1r367yjoldvpw","practice_no_cue","5be373e07e3c9b0001c4d434","5f60e3c0a3b16e07647b2ff9","5f61dbfac287bf18da309131","true","780.5750000007101","./Stimuli/ImagesPractice/LM224.jpg","76","","","","test","true","N + M","76","","LM","LM224.jpg","forget","old","16","1","start","right","","","",""
"html-keyboard-response","42","324257","0.0-2.0-3.0","1q1r367yjoldvpw","break","5be373e07e3c9b0001c4d434","5f60e3c0a3b16e07647b2ff9","5f61dbfac287bf18da309131","false","114041.05999999956","<p style='font-size: 32px;'>Break</><br><br><br><br><br><p style='font-size: 24px;'>In the last block, you committed 5 errors and did not respond in time on 1 trials.
</p><p style='font-size: 24px;'>Try to respond as fast and accurately as possible in the next block as well! </p><p style='font-size: 24px;'>Press SPACE to continue.</p>","32","","","","","","","","","","","","","","","","","","","",""
"html-keyboard-response","43","331361","0.0-2.0-4.0","1q1r367yjoldvpw","instructions","5be373e07e3c9b0001c4d434","5f60e3c0a3b16e07647b2ff9","5f61dbfac287bf18da309131","false","7103.890000000305","<div align=left> Great!<br><br>Are you ready to continue?<br><br>If you want to reread the instructions and redo the practice trials, <br>please press „Z“. <br><br>Press SPACE to CONTINUE with the experiment when you are ready. </div>","32","","","","","","","","","","","","","","","","","","","",""
"html-keyboard-response","44","365109","0.0-3.0-0.0","1q1r367yjoldvpw","instructions","5be373e07e3c9b0001c4d434","5f60e3c0a3b16e07647b2ff9","5f61dbfac287bf18da309131","false","33746.22499999899","<div align=left>Great!<br> <strong>Attention</strong>! You will now receive a second, additional task! <br><br>To this point it was you <strong>first task</strong> to correctly <strong>classify objects</strong>. <br><br>As mentioned in the beginning, we aim to examine how well humans can remember previously learned information.<br>We would like to find out whether our memory improves if we only remember information that is relevant to us. <br><br>Therefore, your <strong>second task</strong> will be to <strong>remember</strong> the pictures you are to categorize. <br> After the learning phase, there will be a memory test phase, in which you will be asked to indicate whether you have seen a picture before or not. <br>Some, but not all pictures shown in the learning phase will appear in the memory test phase.<br>After classifying a picture, you will be told whether you should remember it for the memory test phase or not. <br>Thus, some pictures can be forgotten, whereas others have to be remembered. <br><br>Note: From now on, feedback will only be displayed if you responded incorrectly or not in time.<br><br>Press SPACE to continue.</div>","32","","","","","","","","","","","","","","","","","","","",""
"html-keyboard-response","45","373081","0.0-3.0-1.0","1q1r367yjoldvpw","instructions","5be373e07e3c9b0001c4d434","5f60e3c0a3b16e07647b2ff9","5f61dbfac287bf18da309131","false","7970.895000000368","<div align=left>In the following part, you will thus have to remember only some pictures. <br>Immediately after seeing and classifying the picture, a symbol will be displayed, indicating whether you should remember or forget the previous picture. <br><br>A <span style='color: dodgerblue; font-size: 28px'>O</span> indicates REMEMBER. That means, you have to remember this picture, because it will be tested later. <br><br>A <span style='color: darkorange; font-size:28px'>Ø</span> indicates FORGET. You do not have to remember this picture. <br><br> As you will have to remember a lot of pictures, it will be hard for you to remember all of them. <br>It will put you at an advantage if you instantly forget the pictures you are not asked to remember. <br> This will make it easier for you to remember the pictures that will be tested afterwards. <br><br>Press SPACE to continue.</div>","32","","","","","","","","","","","","","","","","","","","",""
"html-keyboard-response","46","381561","0.0-3.0-2.0","1q1r367yjoldvpw","instructions","5be373e07e3c9b0001c4d434","5f60e3c0a3b16e07647b2ff9","5f61dbfac287bf18da309131","false","8479.385000000533","<div align=left> Now you have the chance to practice both tasks together.<br><br>Remember: <br> <br><li>Please place your index fingers on the <strong>'S'</strong> and <strong>'L'</strong> keys <br>to respond as fast and accurately as possible.</li><li>Every picture can be classified as either mechanical or non-mechanical.</li><li>If you do not respond in time or commit an error, you will receive a corresponding feedback. <br>Please try to respond as <strong> fast </strong> and as <strong> accurately as possible </strong>.</li><li> Please remember only the to-be-remembered <span style='color: dodgerblue; font-size: 28px'>O</span> pictures. <br></li><li> Please minimize distractions and stay focused. </li><br><br>Press SPACE to START</div>","32","","","","","","","","","","","","","","","","","","","",""
"html-keyboard-response","47","382263","0.0-3.0-3.0-0.0","1q1r367yjoldvpw","practice_cue","5be373e07e3c9b0001c4d434","5f60e3c0a3b16e07647b2ff9","5f61dbfac287bf18da309131","false","null","<span style=""color: black; font-size: 48px"">M + N</span>","null","","","","resp_prompt","","","","","","","","","","","","","","","",""
"categorize-image","48","383051","0.0-3.0-3.0-1.0","1q1r367yjoldvpw","practice_cue","5be373e07e3c9b0001c4d434","5f60e3c0a3b16e07647b2ff9","5f61dbfac287bf18da309131","true","784.7149999997928","./Stimuli/ImagesPractice/SM62.jpg","76","","","","test","false","M + N","83","","SM","SM62.jpg","forget","old","17","2","practice_forget","right","","","",""
"html-keyboard-response","49","383552","0.0-3.0-3.0-2.0-0.0","1q1r367yjoldvpw","practice_cue","5be373e07e3c9b0001c4d434","5f60e3c0a3b16e07647b2ff9","5f61dbfac287bf18da309131","false","null","<span style=""color: red; font-size: 48px"">Error!</span>","null","","","","feedback","","","","","","","","","","","","","","","",""
"html-keyboard-response","50","385553","0.0-3.0-3.0-3.0","1q1r367yjoldvpw","practice_cue","5be373e07e3c9b0001c4d434","5f60e3c0a3b16e07647b2ff9","5f61dbfac287bf18da309131","false","null","<div style=""align-items: center; display: flex; color: darkorange; font-size: 90px""><b>ø</b></div>","null","","","","forget_cue","","","","","","","","","","","","","","","",""
"html-keyboard-response","51","386254","0.0-3.0-3.0-0.1","1q1r367yjoldvpw","practice_cue","5be373e07e3c9b0001c4d434","5f60e3c0a3b16e07647b2ff9","5f61dbfac287bf18da309131","false","null","<span style=""color: black; font-size: 48px"">M + N</span>","null","","","","resp_prompt","","","","","","","","","","","","","","","",""
"categorize-image","52","387673","0.0-3.0-3.0-1.1","1q1r367yjoldvpw","practice_cue","5be373e07e3c9b0001c4d434","5f60e3c0a3b16e07647b2ff9","5f61dbfac287bf18da309131","true","1415.9600000002538","./Stimuli/ImagesPractice/LN72.jpg","32","","","","test","false","M + N","76","","LN","LN72.jpg","remember","old","18","2","practice_forget","too_slow","","","",""
"html-keyboard-response","53","388174","0.0-3.0-3.0-2.1-0.1","1q1r367yjoldvpw","practice_cue","5be373e07e3c9b0001c4d434","5f60e3c0a3b16e07647b2ff9","5f61dbfac287bf18da309131","false","null","<span style=""color: red; font-size: 48px"">Error!</span>","null","","","","feedback","","","","","","","","","","","","","","","",""
"html-keyboard-response","54","390176","0.0-3.0-3.0-3.1","1q1r367yjoldvpw","practice_cue","5be373e07e3c9b0001c4d434","5f60e3c0a3b16e07647b2ff9","5f61dbfac287bf18da309131","false","null","<div style=""align-items: center; display: flex; color: dodgerblue; font-size: 90px""><b>o</b></div>","null","","","","forget_cue","","","","","","","","","","","","","","","",""
"html-keyboard-response","55","390878","0.0-3.0-3.0-0.2","1q1r367yjoldvpw","practice_cue","5be373e07e3c9b0001c4d434","5f60e3c0a3b16e07647b2ff9","5f61dbfac287bf18da309131","false","null","<span style=""color: black; font-size: 48px"">M + N</span>","null","","","","resp_prompt","","","","","","","","","","","","","","","",""
"categorize-image","56","391074","0.0-3.0-3.0-1.2","1q1r367yjoldvpw","practice_cue","5be373e07e3c9b0001c4d434","5f60e3c0a3b16e07647b2ff9","5f61dbfac287bf18da309131","true","192.64500000100816","./Stimuli/ImagesPractice/SN75.jpg","83","","","","test","false","M + N","76","","SN","SN75.jpg","forget","old","19","2","practice_forget","left","","","",""
"html-keyboard-response","57","391575","0.0-3.0-3.0-2.2-0.2","1q1r367yjoldvpw","practice_cue","5be373e07e3c9b0001c4d434","5f60e3c0a3b16e07647b2ff9","5f61dbfac287bf18da309131","false","null","<span style=""color: red; font-size: 48px"">Error!</span>","null","","","","feedback","","","","","","","","","","","","","","","",""
"html-keyboard-response","58","393576","0.0-3.0-3.0-3.2","1q1r367yjoldvpw","practice_cue","5be373e07e3c9b0001c4d434","5f60e3c0a3b16e07647b2ff9","5f61dbfac287bf18da309131","false","null","<div style=""align-items: center; display: flex; color: darkorange; font-size: 90px""><b>ø</b></div>","null","","","","forget_cue","","","","","","","","","","","","","","","",""
"html-keyboard-response","59","394278","0.0-3.0-3.0-0.3","1q1r367yjoldvpw","practice_cue","5be373e07e3c9b0001c4d434","5f60e3c0a3b16e07647b2ff9","5f61dbfac287bf18da309131","false","null","<span style=""color: black; font-size: 48px"">N + M</span>","null","","","","resp_prompt","","","","","","","","","","","","","","","",""
"categorize-image","60","395122","0.0-3.0-3.0-1.3","1q1r367yjoldvpw","practice_cue","5be373e07e3c9b0001c4d434","5f60e3c0a3b16e07647b2ff9","5f61dbfac287bf18da309131","true","840.4800000007381","./Stimuli/ImagesPractice/SM61.jpg","76","","","","test","true","N + M","76","","SM","SM61.jpg","forget","old","20","2","practice_forget","right","","","",""
"html-keyboard-response","61","397123","0.0-3.0-3.0-3.3","1q1r367yjoldvpw","practice_cue","5be373e07e3c9b0001c4d434","5f60e3c0a3b16e07647b2ff9","5f61dbfac287bf18da309131","false","null","<div style=""align-items: center; display: flex; color: darkorange; font-size: 90px""><b>ø</b></div>","null","","","","forget_cue","","","","","","","","","","","","","","","",""
"html-keyboard-response","62","397824","0.0-3.0-3.0-0.4","1q1r367yjoldvpw","practice_cue","5be373e07e3c9b0001c4d434","5f60e3c0a3b16e07647b2ff9","5f61dbfac287bf18da309131","false","null","<span style=""color: black; font-size: 48px"">N + M</span>","null","","","","resp_prompt","","","","","","","","","","","","","","","",""
"categorize-image","63","399070","0.0-3.0-3.0-1.4","1q1r367yjoldvpw","practice_cue","5be373e07e3c9b0001c4d434","5f60e3c0a3b16e07647b2ff9","5f61dbfac287bf18da309131","true","1242.949999999837","./Stimuli/ImagesPractice/LN17.jpg","83","","","","test","true","N + M","83","","LN","LN17.jpg","remember","old","21","2","practice_forget","left","","","",""
"html-keyboard-response","64","401072","0.0-3.0-3.0-3.4","1q1r367yjoldvpw","practice_cue","5be373e07e3c9b0001c4d434","5f60e3c0a3b16e07647b2ff9","5f61dbfac287bf18da309131","false","null","<div style=""align-items: center; display: flex; color: dodgerblue; font-size: 90px""><b>o</b></div>","null","","","","forget_cue","","","","","","","","","","","","","","","",""
"html-keyboard-response","65","401773","0.0-3.0-3.0-0.5","1q1r367yjoldvpw","practice_cue","5be373e07e3c9b0001c4d434","5f60e3c0a3b16e07647b2ff9","5f61dbfac287bf18da309131","false","null","<span style=""color: black; font-size: 48px"">N + M</span>","null","","","","resp_prompt","","","","","","","","","","","","","","","",""
"categorize-image","66","401871","0.0-3.0-3.0-1.5","1q1r367yjoldvpw","practice_cue","5be373e07e3c9b0001c4d434","5f60e3c0a3b16e07647b2ff9","5f61dbfac287bf18da309131","true","93.85499999916647","./Stimuli/ImagesPractice/LM224.jpg","83","","","","test","false","N + M","76","","LM","LM224.jpg","forget","old","22","2","practice_forget","left","","","",""
"html-keyboard-response","67","402373","0.0-3.0-3.0-2.5-0.5","1q1r367yjoldvpw","practice_cue","5be373e07e3c9b0001c4d434","5f60e3c0a3b16e07647b2ff9","5f61dbfac287bf18da309131","false","null","<span style=""color: red; font-size: 48px"">Error!</span>","null","","","","feedback","","","","","","","","","","","","","","","",""
"html-keyboard-response","68","404375","0.0-3.0-3.0-3.5","1q1r367yjoldvpw","practice_cue","5be373e07e3c9b0001c4d434","5f60e3c0a3b16e07647b2ff9","5f61dbfac287bf18da309131","false","null","<div style=""align-items: center; display: flex; color: darkorange; font-size: 90px""><b>ø</b></div>","null","","","","forget_cue","","","","","","","","","","","","","","","",""
"html-keyboard-response","69","405077","0.0-3.0-3.0-0.6","1q1r367yjoldvpw","practice_cue","5be373e07e3c9b0001c4d434","5f60e3c0a3b16e07647b2ff9","5f61dbfac287bf18da309131","false","null","<span style=""color: black; font-size: 48px"">M + N</span>","null","","","","resp_prompt","","","","","","","","","","","","","","","",""
"categorize-image","70","405110","0.0-3.0-3.0-1.6","1q1r367yjoldvpw","practice_cue","5be373e07e3c9b0001c4d434","5f60e3c0a3b16e07647b2ff9","5f61dbfac287bf18da309131","true","30.44000000046799","./Stimuli/ImagesPractice/SM37.jpg","76","","","","test","false","M + N","83","","SM","SM37.jpg","forget","old","23","2","practice_forget","right","","","",""
"html-keyboard-response","71","405612","0.0-3.0-3.0-2.6-0.6","1q1r367yjoldvpw","practice_cue","5be373e07e3c9b0001c4d434","5f60e3c0a3b16e07647b2ff9","5f61dbfac287bf18da309131","false","null","<span style=""color: red; font-size: 48px"">Error!</span>","null","","","","feedback","","","","","","","","","","","","","","","",""
"html-keyboard-response","72","407613","0.0-3.0-3.0-3.6","1q1r367yjoldvpw","practice_cue","5be373e07e3c9b0001c4d434","5f60e3c0a3b16e07647b2ff9","5f61dbfac287bf18da309131","false","null","<div style=""align-items: center; display: flex; color: darkorange; font-size: 90px""><b>ø</b></div>","null","","","","forget_cue","","","","","","","","","","","","","","","",""
"html-keyboard-response","73","408315","0.0-3.0-3.0-0.7","1q1r367yjoldvpw","practice_cue","5be373e07e3c9b0001c4d434","5f60e3c0a3b16e07647b2ff9","5f61dbfac287bf18da309131","false","null","<span style=""color: black; font-size: 48px"">M + N</span>","null","","","","resp_prompt","","","","","","","","","","","","","","","",""
"categorize-image","74","409214","0.0-3.0-3.0-1.7","1q1r367yjoldvpw","practice_cue","5be373e07e3c9b0001c4d434","5f60e3c0a3b16e07647b2ff9","5f61dbfac287bf18da309131","true","895.3550000005635","./Stimuli/ImagesPractice/LN2.jpg","83","","","","test","false","M + N","76","","LN","LN2.jpg","remember","old","24","2","practice_forget","left","","","",""
"html-keyboard-response","75","409715","0.0-3.0-3.0-2.7-0.7","1q1r367yjoldvpw","practice_cue","5be373e07e3c9b0001c4d434","5f60e3c0a3b16e07647b2ff9","5f61dbfac287bf18da309131","false","null","<span style=""color: red; font-size: 48px"">Error!</span>","null","","","","feedback","","","","","","","","","","","","","","","",""
"html-keyboard-response","76","411717","0.0-3.0-3.0-3.7","1q1r367yjoldvpw","practice_cue","5be373e07e3c9b0001c4d434","5f60e3c0a3b16e07647b2ff9","5f61dbfac287bf18da309131","false","null","<div style=""align-items: center; display: flex; color: dodgerblue; font-size: 90px""><b>o</b></div>","null","","","","forget_cue","","","","","","","","","","","","","","","",""
"html-keyboard-response","77","412417","0.0-3.0-3.0-0.8","1q1r367yjoldvpw","practice_cue","5be373e07e3c9b0001c4d434","5f60e3c0a3b16e07647b2ff9","5f61dbfac287bf18da309131","false","null","<span style=""color: black; font-size: 48px"">N + M</span>","null","","","","resp_prompt","","","","","","","","","","","","","","","",""
"categorize-image","78","414425","0.0-3.0-3.0-1.8","1q1r367yjoldvpw","practice_cue","5be373e07e3c9b0001c4d434","5f60e3c0a3b16e07647b2ff9","5f61dbfac287bf18da309131","true","null","./Stimuli/ImagesPractice/SM35.jpg","null","","","","test","false","N + M","76","","SM","SM35.jpg","forget","old","25","2","practice_forget","too_slow","","","",""
"html-keyboard-response","79","414927","0.0-3.0-3.0-2.8-0.8","1q1r367yjoldvpw","practice_cue","5be373e07e3c9b0001c4d434","5f60e3c0a3b16e07647b2ff9","5f61dbfac287bf18da309131","false","null","<span style=""color: red; font-size: 48px"">Too slow!</span>","null","","","","feedback","","","","","","","","","","","","","","","",""
"html-keyboard-response","80","416928","0.0-3.0-3.0-3.8","1q1r367yjoldvpw","practice_cue","5be373e07e3c9b0001c4d434","5f60e3c0a3b16e07647b2ff9","5f61dbfac287bf18da309131","false","null","<div style=""align-items: center; display: flex; color: darkorange; font-size: 90px""><b>ø</b></div>","null","","","","forget_cue","","","","","","","","","","","","","","","",""
"html-keyboard-response","81","417629","0.0-3.0-3.0-0.9","1q1r367yjoldvpw","practice_cue","5be373e07e3c9b0001c4d434","5f60e3c0a3b16e07647b2ff9","5f61dbfac287bf18da309131","false","null","<span style=""color: black; font-size: 48px"">N + M</span>","null","","","","resp_prompt","","","","","","","","","","","","","","","",""
"categorize-image","82","418341","0.0-3.0-3.0-1.9","1q1r367yjoldvpw","practice_cue","5be373e07e3c9b0001c4d434","5f60e3c0a3b16e07647b2ff9","5f61dbfac287bf18da309131","true","709.6149999997579","./Stimuli/ImagesPractice/LM143.jpg","83","","","","test","false","N + M","76","","LM","LM143.jpg","remember","old","26","2","practice_forget","left","","","",""
"html-keyboard-response","83","418842","0.0-3.0-3.0-2.9-0.9","1q1r367yjoldvpw","practice_cue","5be373e07e3c9b0001c4d434","5f60e3c0a3b16e07647b2ff9","5f61dbfac287bf18da309131","false","null","<span style=""color: red; font-size: 48px"">Error!</span>","null","","","","feedback","","","","","","","","","","","","","","","",""
"html-keyboard-response","84","420844","0.0-3.0-3.0-3.9","1q1r367yjoldvpw","practice_cue","5be373e07e3c9b0001c4d434","5f60e3c0a3b16e07647b2ff9","5f61dbfac287bf18da309131","false","null","<div style=""align-items: center; display: flex; color: dodgerblue; font-size: 90px""><b>o</b></div>","null","","","","forget_cue","","","","","","","","","","","","","","","",""
"html-keyboard-response","85","421545","0.0-3.0-3.0-0.10","1q1r367yjoldvpw","practice_cue","5be373e07e3c9b0001c4d434","5f60e3c0a3b16e07647b2ff9","5f61dbfac287bf18da309131","false","null","<span style=""color: black; font-size: 48px"">N + M</span>","null","","","","resp_prompt","","","","","","","","","","","","","","","",""
"categorize-image","86","421886","0.0-3.0-3.0-1.10","1q1r367yjoldvpw","practice_cue","5be373e07e3c9b0001c4d434","5f60e3c0a3b16e07647b2ff9","5f61dbfac287bf18da309131","true","338.0800000013551","./Stimuli/ImagesPractice/SN205.jpg","83","","","","test","true","N + M","83","","SN","SN205.jpg","remember","old","27","2","practice_forget","left","","","",""
"html-keyboard-response","87","423887","0.0-3.0-3.0-3.10","1q1r367yjoldvpw","practice_cue","5be373e07e3c9b0001c4d434","5f60e3c0a3b16e07647b2ff9","5f61dbfac287bf18da309131","false","null","<div style=""align-items: center; display: flex; color: dodgerblue; font-size: 90px""><b>o</b></div>","null","","","","forget_cue","","","","","","","","","","","","","","","",""
"html-keyboard-response","88","424588","0.0-3.0-3.0-0.11","1q1r367yjoldvpw","practice_cue","5be373e07e3c9b0001c4d434","5f60e3c0a3b16e07647b2ff9","5f61dbfac287bf18da309131","false","null","<span style=""color: black; font-size: 48px"">M + N</span>","null","","","","resp_prompt","","","","","","","","","","","","","","","",""
"categorize-image","89","425134","0.0-3.0-3.0-1.11","1q1r367yjoldvpw","practice_cue","5be373e07e3c9b0001c4d434","5f60e3c0a3b16e07647b2ff9","5f61dbfac287bf18da309131","true","542.5350000004983","./Stimuli/ImagesPractice/LN4.jpg","83","","","","test","false","M + N","76","","LN","LN4.jpg","remember","old","28","2","practice_forget","left","","","",""
"html-keyboard-response","90","425635","0.0-3.0-3.0-2.11-0.11","1q1r367yjoldvpw","practice_cue","5be373e07e3c9b0001c4d434","5f60e3c0a3b16e07647b2ff9","5f61dbfac287bf18da309131","false","null","<span style=""color: red; font-size: 48px"">Error!</span>","null","","","","feedback","","","","","","","","","","","","","","","",""
"html-keyboard-response","91","427636","0.0-3.0-3.0-3.11","1q1r367yjoldvpw","practice_cue","5be373e07e3c9b0001c4d434","5f60e3c0a3b16e07647b2ff9","5f61dbfac287bf18da309131","false","null","<div style=""align-items: center; display: flex; color: dodgerblue; font-size: 90px""><b>o</b></div>","null","","","","forget_cue","","","","","","","","","","","","","","","",""
"html-keyboard-response","92","428337","0.0-3.0-3.0-0.12","1q1r367yjoldvpw","practice_cue","5be373e07e3c9b0001c4d434","5f60e3c0a3b16e07647b2ff9","5f61dbfac287bf18da309131","false","null","<span style=""color: black; font-size: 48px"">M + N</span>","null","","","","resp_prompt","","","","","","","","","","","","","","","",""
"categorize-image","93","428434","0.0-3.0-3.0-1.12","1q1r367yjoldvpw","practice_cue","5be373e07e3c9b0001c4d434","5f60e3c0a3b16e07647b2ff9","5f61dbfac287bf18da309131","true","94.10999999998603","./Stimuli/ImagesPractice/SN221.jpg","76","","","","test","true","M + N","76","","SN","SN221.jpg","remember","old","29","2","practice_forget","right","","","",""
"html-keyboard-response","94","430436","0.0-3.0-3.0-3.12","1q1r367yjoldvpw","practice_cue","5be373e07e3c9b0001c4d434","5f60e3c0a3b16e07647b2ff9","5f61dbfac287bf18da309131","false","null","<div style=""align-items: center; display: flex; color: dodgerblue; font-size: 90px""><b>o</b></div>","null","","","","forget_cue","","","","","","","","","","","","","","","",""
"html-keyboard-response","95","431137","0.0-3.0-3.0-0.13","1q1r367yjoldvpw","practice_cue","5be373e07e3c9b0001c4d434","5f60e3c0a3b16e07647b2ff9","5f61dbfac287bf18da309131","false","null","<span style=""color: black; font-size: 48px"">M + N</span>","null","","","","resp_prompt","","","","","","","","","","","","","","","",""
"categorize-image","96","432210","0.0-3.0-3.0-1.13","1q1r367yjoldvpw","practice_cue","5be373e07e3c9b0001c4d434","5f60e3c0a3b16e07647b2ff9","5f61dbfac287bf18da309131","true","1070.1049999988754","./Stimuli/ImagesPractice/LN109.jpg","83","","","","test","false","M + N","76","","LN","LN109.jpg","forget","old","30","2","practice_forget","left","","","",""
"html-keyboard-response","97","432710","0.0-3.0-3.0-2.13-0.13","1q1r367yjoldvpw","practice_cue","5be373e07e3c9b0001c4d434","5f60e3c0a3b16e07647b2ff9","5f61dbfac287bf18da309131","false","null","<span style=""color: red; font-size: 48px"">Error!</span>","null","","","","feedback","","","","","","","","","","","","","","","",""
"html-keyboard-response","98","434712","0.0-3.0-3.0-3.13","1q1r367yjoldvpw","practice_cue","5be373e07e3c9b0001c4d434","5f60e3c0a3b16e07647b2ff9","5f61dbfac287bf18da309131","false","null","<div style=""align-items: center; display: flex; color: darkorange; font-size: 90px""><b>ø</b></div>","null","","","","forget_cue","","","","","","","","","","","","","","","",""
"html-keyboard-response","99","435414","0.0-3.0-3.0-0.14","1q1r367yjoldvpw","practice_cue","5be373e07e3c9b0001c4d434","5f60e3c0a3b16e07647b2ff9","5f61dbfac287bf18da309131","false","null","<span style=""color: black; font-size: 48px"">N + M</span>","null","","","","resp_prompt","","","","","","","","","","","","","","","",""
"categorize-image","100","437422","0.0-3.0-3.0-1.14","1q1r367yjoldvpw","practice_cue","5be373e07e3c9b0001c4d434","5f60e3c0a3b16e07647b2ff9","5f61dbfac287bf18da309131","true","null","./Stimuli/ImagesPractice/SN76.jpg","null","","","","test","false","N + M","83","","SN","SN76.jpg","forget","old","31","2","practice_forget","too_slow","","","",""
"html-keyboard-response","101","437924","0.0-3.0-3.0-2.14-0.14","1q1r367yjoldvpw","practice_cue","5be373e07e3c9b0001c4d434","5f60e3c0a3b16e07647b2ff9","5f61dbfac287bf18da309131","false","null","<span style=""color: red; font-size: 48px"">Too slow!</span>","null","","","","feedback","","","","","","","","","","","","","","","",""
"html-keyboard-response","102","439925","0.0-3.0-3.0-3.14","1q1r367yjoldvpw","practice_cue","5be373e07e3c9b0001c4d434","5f60e3c0a3b16e07647b2ff9","5f61dbfac287bf18da309131","false","null","<div style=""align-items: center; display: flex; color: darkorange; font-size: 90px""><b>ø</b></div>","null","","","","forget_cue","","","","","","","","","","","","","","","",""
"html-keyboard-response","103","440627","0.0-3.0-3.0-0.15","1q1r367yjoldvpw","practice_cue","5be373e07e3c9b0001c4d434","5f60e3c0a3b16e07647b2ff9","5f61dbfac287bf18da309131","false","null","<span style=""color: black; font-size: 48px"">N + M</span>","null","","","","resp_prompt","","","","","","","","","","","","","","","",""
"categorize-image","104","440762","0.0-3.0-3.0-1.15","1q1r367yjoldvpw","practice_cue","5be373e07e3c9b0001c4d434","5f60e3c0a3b16e07647b2ff9","5f61dbfac287bf18da309131","true","131.66999999881955","./Stimuli/ImagesPractice/LM239.jpg","76","","","","test","true","N + M","76","","LM","LM239.jpg","remember","old","32","2","practice_forget","right","","","",""
"html-keyboard-response","105","442763","0.0-3.0-3.0-3.15","1q1r367yjoldvpw","practice_cue","5be373e07e3c9b0001c4d434","5f60e3c0a3b16e07647b2ff9","5f61dbfac287bf18da309131","false","null","<div style=""align-items: center; display: flex; color: dodgerblue; font-size: 90px""><b>o</b></div>","null","","","","forget_cue","","","","","","","","","","","","","","","",""
"html-keyboard-response","106","447327","0.0-3.0-4.0","1q1r367yjoldvpw","break","5be373e07e3c9b0001c4d434","5f60e3c0a3b16e07647b2ff9","5f61dbfac287bf18da309131","false","4563.6599999998","<p style='font-size: 32px;'>Break</><br><br><br><br><br><p style='font-size: 24px;'>In the last block, you committed 8 errors and did not respond in time on 2 trials.
</p><p style='font-size: 24px;'>Try to respond as fast and accurately as possible in the next block as well! </p><p style='font-size: 24px;'>Press SPACE to continue.</p>","32","","","","","","","","","","","","","","","","","","","",""
"html-keyboard-response","107","454327","0.0-3.0-5.0","1q1r367yjoldvpw","instructions","5be373e07e3c9b0001c4d434","5f60e3c0a3b16e07647b2ff9","5f61dbfac287bf18da309131","false","6999.829999998852","<div align=left> Now, to practice, we kindly ask you to remember as many of the to-be-remembered pictures<br>of the previous learning phase as possible.<br><br>The pictures you were instructed to remember were the pictures followed by a <span style='color: dodgerblue; font-size: 28px'>O</span>.<br><br>In this memory test phase, you will also see some new pictures.<br>It is your task to remember whether you were presented with this specific picture in this study so far or not.<br>If you recognize an object (you have already seen it in this study), it is an OLD object. <br>If you do not recognize an object (you have NOT seen it in this study), it is a NEW object. <br><strong> Attention</strong>: As already mentioned, <span style='color: darkorange; font-size:28px'>Ø</span>-pictures will <strong>never</strong> appear in this memory test (neither as new objects). <br><br>Press SPACE to continue. </div>","32","","","","","","","","","","","","","","","","","","","",""
"html-keyboard-response","108","461747","0.0-3.0-6.0","1q1r367yjoldvpw","instructions","5be373e07e3c9b0001c4d434","5f60e3c0a3b16e07647b2ff9","5f61dbfac287bf18da309131","false","7418.494999999937","<div align=left> M and N no longer will appear on the left/right of the fixation cross. <br>Instead there will be a note at the bottom of the left or right side  <br>indicating which key you should press for an old or new object:  <br> <br>Press the <strong>right</strong> key to classify an object as <strong>old</strong> and press the <strong>left</strong>, to classify an object as <strong>new</strong>.<br>Please classify the objects as new/old by again placing your index finger on the 'S' and 'L' keys <br>and press them accordingly.<br><br><strong>Old:</strong> This object has been presented before. <br><strong>New:</strong> This object has <strong>not</strong> been presented.<br><br>Now please put your right and left index fingers on the 'S' and 'L' keys of your keyboard. <br>Please respond as fast and as accurately as possible!<br><br>Press SPACE to continue. </div>","32","","","","","","","","","","","","","","","","","","","",""
"categorize-image","109","464311","0.0-3.0-7.0-0.0","1q1r367yjoldvpw","practice_recog","5be373e07e3c9b0001c4d434","5f60e3c0a3b16e07647b2ff9","5f61dbfac287bf18da309131","true","2062.004999999772","./Stimuli/ImagesPractice/LM239.jpg","83","","","","test","true","","83","","LM","LM239.jpg","","old","33","3","practice_recog","left","","","",""
"categorize-image","110","465864","0.0-3.0-7.0-0.1","1q1r367yjoldvpw","practice_recog","5be373e07e3c9b0001c4d434","5f60e3c0a3b16e07647b2ff9","5f61dbfac287bf18da309131","true","1050.2649999998393","./Stimuli/ImagesPractice/LN15.jpg","76","","","","test","true","","76","","LN","LN15.jpg","","new","34","3","practice_recog","right","","","",""
"categorize-image","111","467664","0.0-3.0-7.0-0.2","1q1r367yjoldvpw","practice_recog","5be373e07e3c9b0001c4d434","5f60e3c0a3b16e07647b2ff9","5f61dbfac287bf18da309131","true","1297.2050000007148","./Stimuli/ImagesPractice/LM143.jpg","83","","","","test","true","","83","","LM","LM143.jpg","","old","35","3","practice_recog","left","","","",""
"categorize-image","112","469176","0.0-3.0-7.0-0.3","1q1r367yjoldvpw","practice_recog","5be373e07e3c9b0001c4d434","5f60e3c0a3b16e07647b2ff9","5f61dbfac287bf18da309131","true","1009.715000000142","./Stimuli/ImagesPractice/SN205.jpg","83","","","","test","true","","83","","SN","SN205.jpg","","old","36","3","practice_recog","left","","","",""
"categorize-image","113","470240","0.0-3.0-7.0-0.4","1q1r367yjoldvpw","practice_recog","5be373e07e3c9b0001c4d434","5f60e3c0a3b16e07647b2ff9","5f61dbfac287bf18da309131","true","561.4749999985797","./Stimuli/ImagesPractice/LN72.jpg","83","","","","test","true","","83","","LN","LN72.jpg","","old","37","3","practice_recog","left","","","",""
"categorize-image","114","471393","0.0-3.0-7.0-0.5","1q1r367yjoldvpw","practice_recog","5be373e07e3c9b0001c4d434","5f60e3c0a3b16e07647b2ff9","5f61dbfac287bf18da309131","true","649.5450000002165","./Stimuli/ImagesPractice/SN221.jpg","83","","","","test","true","","83","","SN","SN221.jpg","","old","38","3","practice_recog","left","","","",""
"categorize-image","115","472584","0.0-3.0-7.0-0.6","1q1r367yjoldvpw","practice_recog","5be373e07e3c9b0001c4d434","5f60e3c0a3b16e07647b2ff9","5f61dbfac287bf18da309131","true","689.5100000001257","./Stimuli/ImagesPractice/SN220.jpg","76","","","","test","true","","76","","SN","SN220.jpg","","new","39","3","practice_recog","right","","","",""
"categorize-image","116","473920","0.0-3.0-7.0-0.7","1q1r367yjoldvpw","practice_recog","5be373e07e3c9b0001c4d434","5f60e3c0a3b16e07647b2ff9","5f61dbfac287bf18da309131","true","833.6849999996484","./Stimuli/ImagesPractice/LM230.jpg","76","","","","test","true","","76","","LM","LM230.jpg","","new","40","3","practice_recog","right","","","",""
"categorize-image","117","475312","0.0-3.0-7.0-0.8","1q1r367yjoldvpw","practice_recog","5be373e07e3c9b0001c4d434","5f60e3c0a3b16e07647b2ff9","5f61dbfac287bf18da309131","true","889.6999999997206","./Stimuli/ImagesPractice/LM147.jpg","76","","","","test","true","","76","","LM","LM147.jpg","","new","41","3","practice_recog","right","","","",""
"categorize-image","118","476560","0.0-3.0-7.0-0.9","1q1r367yjoldvpw","practice_recog","5be373e07e3c9b0001c4d434","5f60e3c0a3b16e07647b2ff9","5f61dbfac287bf18da309131","true","745.4249999991152","./Stimuli/ImagesPractice/LN4.jpg","83","","","","test","true","","83","","LN","LN4.jpg","","old","42","3","practice_recog","left","","","",""
"categorize-image","119","478712","0.0-3.0-7.0-0.10","1q1r367yjoldvpw","practice_recog","5be373e07e3c9b0001c4d434","5f60e3c0a3b16e07647b2ff9","5f61dbfac287bf18da309131","true","1650.1449999996112","./Stimuli/ImagesPractice/SM98.jpg","76","","","","test","true","","76","","SM","SM98.jpg","","new","43","3","practice_recog","right","","","",""
"categorize-image","120","480032","0.0-3.0-7.0-0.11","1q1r367yjoldvpw","practice_recog","5be373e07e3c9b0001c4d434","5f60e3c0a3b16e07647b2ff9","5f61dbfac287bf18da309131","true","818.0100000008824","./Stimuli/ImagesPractice/LN2.jpg","83","","","","test","true","","83","","LN","LN2.jpg","","old","44","3","practice_recog","left","","","",""
"categorize-image","121","481727","0.0-3.0-7.0-0.12","1q1r367yjoldvpw","practice_recog","5be373e07e3c9b0001c4d434","5f60e3c0a3b16e07647b2ff9","5f61dbfac287bf18da309131","true","1193.9449999990757","./Stimuli/ImagesPractice/LM55.jpg","76","","","","test","true","","76","","LM","LM55.jpg","","new","45","3","practice_recog","right","","","",""
"categorize-image","122","483279","0.0-3.0-7.0-0.13","1q1r367yjoldvpw","practice_recog","5be373e07e3c9b0001c4d434","5f60e3c0a3b16e07647b2ff9","5f61dbfac287bf18da309131","true","1050.4849999997532","./Stimuli/ImagesPractice/SM97.jpg","76","","","","test","true","","76","","SM","SM97.jpg","","new","46","3","practice_recog","right","","","",""
"categorize-image","123","484568","0.0-3.0-7.0-0.14","1q1r367yjoldvpw","practice_recog","5be373e07e3c9b0001c4d434","5f60e3c0a3b16e07647b2ff9","5f61dbfac287bf18da309131","true","786.2299999997485","./Stimuli/ImagesPractice/SN222.jpg","76","","","","test","true","","76","","SN","SN222.jpg","","new","47","3","practice_recog","right","","","",""
"categorize-image","124","485784","0.0-3.0-7.0-0.15","1q1r367yjoldvpw","practice_recog","5be373e07e3c9b0001c4d434","5f60e3c0a3b16e07647b2ff9","5f61dbfac287bf18da309131","true","714.2100000000792","./Stimuli/ImagesPractice/LN17.jpg","83","","","","test","true","","83","","LN","LN17.jpg","","old","48","3","practice_recog","left","","","",""
"html-keyboard-response","125","491431","0.0-3.0-8.0","1q1r367yjoldvpw","instructions","5be373e07e3c9b0001c4d434","5f60e3c0a3b16e07647b2ff9","5f61dbfac287bf18da309131","false","5646.570000000822","<div align=left> Great!<br><br>Are you ready to continue?<br>If you want to reread the instructions and redo the practice trials, please <br>press „Z“.<br><br>You can proceed when you are ready.<br><br>After the presentation of each object, you will receive an instruction whether to <br>remember or to forget the object.<br>We will test your memory of the following pictures only at the very end of <br>the experiment after all learning blocks are completed. <br><br>Press SPACE to CONTINUE when you are ready. </div>","32","","","","","","","","","","","","","","","","","","","",""
"html-keyboard-response","126","498375","0.0-4.0-0.0","1q1r367yjoldvpw","instructions","5be373e07e3c9b0001c4d434","5f60e3c0a3b16e07647b2ff9","5f61dbfac287bf18da309131","false","6942.980000001669","<div align=left> The actual experiment is about to start.<br>The practice trials are over!<br><br>Please always respond both fast and accurately!<br><br>Remember: <br> <br><li> Please place your index fingers on the <strong>'S'</strong> and <strong>'L'</strong> keys <br>to respond as fast and accurately as possible.</li><li> Every picture can be classified as either mechanical or non-mechanical.</li><li> If you do not respond in time or commit an error, you will receive a corresponding feedback.<br> Please try to respond as <strong> fast </strong> and as <strong> accurately as possible </strong>.</li><li> Remember the <span style='color: dodgerblue; font-size: 28px'>O</span> pictures. <br></li><li> Please minimize distractions and stay focused. </li><br><br>Press SPACE to START.</div>","32","","","","","","","","","","","","","","","","","","","",""
"html-keyboard-response","127","499077","0.0-4.0-1.0-0.0","1q1r367yjoldvpw","prime","5be373e07e3c9b0001c4d434","5f60e3c0a3b16e07647b2ff9","5f61dbfac287bf18da309131","false","null","<span style=""color: black; font-size: 48px"">M + N</span>","null","","","","resp_prompt","","","","","","","","","","","","","","","",""
"categorize-image","128","499960","0.0-4.0-1.0-1.0","1q1r367yjoldvpw","prime","5be373e07e3c9b0001c4d434","5f60e3c0a3b16e07647b2ff9","5f61dbfac287bf18da309131","true","879.9899999994668","./Stimuli/SelectedImages/SM/SM128.bmp","76","","","","test","false","M + N","83","switch","SM","SM128.bmp","forget","","49","3","prime1","right","","","",""
"html-keyboard-response","129","500462","0.0-4.0-1.0-2.0-0.0","1q1r367yjoldvpw","prime","5be373e07e3c9b0001c4d434","5f60e3c0a3b16e07647b2ff9","5f61dbfac287bf18da309131","false","null","<span style=""color: red; font-size: 48px"">Error!</span>","null","","","","feedback","","","","","","","","","","","","","","","",""
"html-keyboard-response","130","502463","0.0-4.0-1.0-3.0","1q1r367yjoldvpw","prime","5be373e07e3c9b0001c4d434","5f60e3c0a3b16e07647b2ff9","5f61dbfac287bf18da309131","false","null","<div style=""align-items: center; display: flex; color: darkorange; font-size: 90px""><b>ø</b></div>","null","","","","forget_cue","","","","","","","","","","","","","","","",""
"html-keyboard-response","131","503166","0.0-4.0-1.0-0.1","1q1r367yjoldvpw","prime","5be373e07e3c9b0001c4d434","5f60e3c0a3b16e07647b2ff9","5f61dbfac287bf18da309131","false","null","<span style=""color: black; font-size: 48px"">N + M</span>","null","","","","resp_prompt","","","","","","","","","","","","","","","",""
"categorize-image","132","503937","0.0-4.0-1.0-1.1","1q1r367yjoldvpw","prime","5be373e07e3c9b0001c4d434","5f60e3c0a3b16e07647b2ff9","5f61dbfac287bf18da309131","true","767.9499999994878","./Stimuli/SelectedImages/LM/LM100.bmp","76","","","","test","true","N + M","76","switch","LM","LM100.bmp","remember","","50","3","prime1","right","","","",""
"html-keyboard-response","133","505939","0.0-4.0-1.0-3.1","1q1r367yjoldvpw","prime","5be373e07e3c9b0001c4d434","5f60e3c0a3b16e07647b2ff9","5f61dbfac287bf18da309131","false","null","<div style=""align-items: center; display: flex; color: dodgerblue; font-size: 90px""><b>o</b></div>","null","","","","forget_cue","","","","","","","","","","","","","","","",""
"html-keyboard-response","134","506640","0.0-4.0-1.0-0.2","1q1r367yjoldvpw","prime","5be373e07e3c9b0001c4d434","5f60e3c0a3b16e07647b2ff9","5f61dbfac287bf18da309131","false","null","<span style=""color: black; font-size: 48px"">M + N</span>","null","","","","resp_prompt","","","","","","","","","","","","","","","",""
"categorize-image","135","507280","0.0-4.0-1.0-1.2","1q1r367yjoldvpw","prime","5be373e07e3c9b0001c4d434","5f60e3c0a3b16e07647b2ff9","5f61dbfac287bf18da309131","true","637.7900000006775","./Stimuli/SelectedImages/SN/SN93.bmp","76","","","","test","true","M + N","76","repetition","SN","SN93.bmp","remember","","51","3","prime1","right","","","",""
"html-keyboard-response","136","509281","0.0-4.0-1.0-3.2","1q1r367yjoldvpw","prime","5be373e07e3c9b0001c4d434","5f60e3c0a3b16e07647b2ff9","5f61dbfac287bf18da309131","false","null","<div style=""align-items: center; display: flex; color: dodgerblue; font-size: 90px""><b>o</b></div>","null","","","","forget_cue","","","","","","","","","","","","","","","",""
"html-keyboard-response","137","509982","0.0-4.0-1.0-0.3","1q1r367yjoldvpw","prime","5be373e07e3c9b0001c4d434","5f60e3c0a3b16e07647b2ff9","5f61dbfac287bf18da309131","false","null","<span style=""color: black; font-size: 48px"">M + N</span>","null","","","","resp_prompt","","","","","","","","","","","","","","","",""
"categorize-image","138","510816","0.0-4.0-1.0-1.3","1q1r367yjoldvpw","prime","5be373e07e3c9b0001c4d434","5f60e3c0a3b16e07647b2ff9","5f61dbfac287bf18da309131","true","831.6299999987823","./Stimuli/SelectedImages/LN/LN59.bmp","76","","","","test","true","M + N","76","switch","LN","LN59.bmp","forget","","52","3","prime1","right","","","",""
"html-keyboard-response","139","512818","0.0-4.0-1.0-3.3","1q1r367yjoldvpw","prime","5be373e07e3c9b0001c4d434","5f60e3c0a3b16e07647b2ff9","5f61dbfac287bf18da309131","false","null","<div style=""align-items: center; display: flex; color: darkorange; font-size: 90px""><b>ø</b></div>","null","","","","forget_cue","","","","","","","","","","","","","","","",""
"html-keyboard-response","140","513519","0.0-4.0-1.0-0.4","1q1r367yjoldvpw","prime","5be373e07e3c9b0001c4d434","5f60e3c0a3b16e07647b2ff9","5f61dbfac287bf18da309131","false","null","<span style=""color: black; font-size: 48px"">N + M</span>","null","","","","resp_prompt","","","","","","","","","","","","","","","",""
"categorize-image","141","514713","0.0-4.0-1.0-1.4","1q1r367yjoldvpw","prime","5be373e07e3c9b0001c4d434","5f60e3c0a3b16e07647b2ff9","5f61dbfac287bf18da309131","true","1190.650000000489","./Stimuli/SelectedImages/LN/LN42.bmp","76","","","","test","false","N + M","83","repetition","LN","LN42.bmp","forget","","53","3","prime1","right","","","",""
"html-keyboard-response","142","515215","0.0-4.0-1.0-2.4-0.4","1q1r367yjoldvpw","prime","5be373e07e3c9b0001c4d434","5f60e3c0a3b16e07647b2ff9","5f61dbfac287bf18da309131","false","null","<span style=""color: red; font-size: 48px"">Error!</span>","null","","","","feedback","","","","","","","","","","","","","","","",""
"html-keyboard-response","143","517216","0.0-4.0-1.0-3.4","1q1r367yjoldvpw","prime","5be373e07e3c9b0001c4d434","5f60e3c0a3b16e07647b2ff9","5f61dbfac287bf18da309131","false","null","<div style=""align-items: center; display: flex; color: darkorange; font-size: 90px""><b>ø</b></div>","null","","","","forget_cue","","","","","","","","","","","","","","","",""
"html-keyboard-response","144","517917","0.0-4.0-1.0-0.5","1q1r367yjoldvpw","prime","5be373e07e3c9b0001c4d434","5f60e3c0a3b16e07647b2ff9","5f61dbfac287bf18da309131","false","null","<span style=""color: black; font-size: 48px"">M + N</span>","null","","","","resp_prompt","","","","","","","","","","","","","","","",""
"categorize-image","145","518680","0.0-4.0-1.0-1.5","1q1r367yjoldvpw","prime","5be373e07e3c9b0001c4d434","5f60e3c0a3b16e07647b2ff9","5f61dbfac287bf18da309131","true","759.9200000005076","./Stimuli/SelectedImages/LN/LN128.bmp","76","","","","test","true","M + N","76","switch","LN","LN128.bmp","forget","","54","3","prime1","right","","","",""
"html-keyboard-response","146","520681","0.0-4.0-1.0-3.5","1q1r367yjoldvpw","prime","5be373e07e3c9b0001c4d434","5f60e3c0a3b16e07647b2ff9","5f61dbfac287bf18da309131","false","null","<div style=""align-items: center; display: flex; color: darkorange; font-size: 90px""><b>ø</b></div>","null","","","","forget_cue","","","","","","","","","","","","","","","",""
"html-keyboard-response","147","521382","0.0-4.0-1.0-0.6","1q1r367yjoldvpw","prime","5be373e07e3c9b0001c4d434","5f60e3c0a3b16e07647b2ff9","5f61dbfac287bf18da309131","false","null","<span style=""color: black; font-size: 48px"">N + M</span>","null","","","","resp_prompt","","","","","","","","","","","","","","","",""
"categorize-image","148","521981","0.0-4.0-1.0-1.6","1q1r367yjoldvpw","prime","5be373e07e3c9b0001c4d434","5f60e3c0a3b16e07647b2ff9","5f61dbfac287bf18da309131","true","595.5499999999302","./Stimuli/SelectedImages/SN/SN111.bmp","76","","","","test","false","N + M","83","switch","SN","SN111.bmp","forget","","55","3","prime1","right","","","",""
"html-keyboard-response","149","522482","0.0-4.0-1.0-2.6-0.6","1q1r367yjoldvpw","prime","5be373e07e3c9b0001c4d434","5f60e3c0a3b16e07647b2ff9","5f61dbfac287bf18da309131","false","null","<span style=""color: red; font-size: 48px"">Error!</span>","null","","","","feedback","","","","","","","","","","","","","","","",""
"html-keyboard-response","150","524484","0.0-4.0-1.0-3.6","1q1r367yjoldvpw","prime","5be373e07e3c9b0001c4d434","5f60e3c0a3b16e07647b2ff9","5f61dbfac287bf18da309131","false","null","<div style=""align-items: center; display: flex; color: darkorange; font-size: 90px""><b>ø</b></div>","null","","","","forget_cue","","","","","","","","","","","","","","","",""
"html-keyboard-response","151","525185","0.0-4.0-1.0-0.7","1q1r367yjoldvpw","prime","5be373e07e3c9b0001c4d434","5f60e3c0a3b16e07647b2ff9","5f61dbfac287bf18da309131","false","null","<span style=""color: black; font-size: 48px"">N + M</span>","null","","","","resp_prompt","","","","","","","","","","","","","","","",""
"categorize-image","152","526557","0.0-4.0-1.0-1.7","1q1r367yjoldvpw","prime","5be373e07e3c9b0001c4d434","5f60e3c0a3b16e07647b2ff9","5f61dbfac287bf18da309131","true","1368.3549999987008","./Stimuli/SelectedImages/SM/SM195.bmp","76","","","","test","true","N + M","76","switch","SM","SM195.bmp","forget","","56","3","prime1","right","","","",""
"html-keyboard-response","153","528559","0.0-4.0-1.0-3.7","1q1r367yjoldvpw","prime","5be373e07e3c9b0001c4d434","5f60e3c0a3b16e07647b2ff9","5f61dbfac287bf18da309131","false","null","<div style=""align-items: center; display: flex; color: darkorange; font-size: 90px""><b>ø</b></div>","null","","","","forget_cue","","","","","","","","","","","","","","","",""
"html-keyboard-response","154","529260","0.0-4.0-1.0-0.8","1q1r367yjoldvpw","prime","5be373e07e3c9b0001c4d434","5f60e3c0a3b16e07647b2ff9","5f61dbfac287bf18da309131","false","null","<span style=""color: black; font-size: 48px"">N + M</span>","null","","","","resp_prompt","","","","","","","","","","","","","","","",""
"categorize-image","155","529636","0.0-4.0-1.0-1.8","1q1r367yjoldvpw","prime","5be373e07e3c9b0001c4d434","5f60e3c0a3b16e07647b2ff9","5f61dbfac287bf18da309131","true","372.6499999993248","./Stimuli/SelectedImages/LN/LN149.bmp","76","","","","test","false","N + M","83","switch","LN","LN149.bmp","remember","","57","3","prime1","right","","","",""
"html-keyboard-response","156","530137","0.0-4.0-1.0-2.8-0.8","1q1r367yjoldvpw","prime","5be373e07e3c9b0001c4d434","5f60e3c0a3b16e07647b2ff9","5f61dbfac287bf18da309131","false","null","<span style=""color: red; font-size: 48px"">Error!</span>","null","","","","feedback","","","","","","","","","","","","","","","",""
"html-keyboard-response","157","532138","0.0-4.0-1.0-3.8","1q1r367yjoldvpw","prime","5be373e07e3c9b0001c4d434","5f60e3c0a3b16e07647b2ff9","5f61dbfac287bf18da309131","false","null","<div style=""align-items: center; display: flex; color: dodgerblue; font-size: 90px""><b>o</b></div>","null","","","","forget_cue","","","","","","","","","","","","","","","",""
"html-keyboard-response","158","532840","0.0-4.0-1.0-0.9","1q1r367yjoldvpw","prime","5be373e07e3c9b0001c4d434","5f60e3c0a3b16e07647b2ff9","5f61dbfac287bf18da309131","false","null","<span style=""color: black; font-size: 48px"">N + M</span>","null","","","","resp_prompt","","","","","","","","","","","","","","","",""
"categorize-image","159","533964","0.0-4.0-1.0-1.9","1q1r367yjoldvpw","prime","5be373e07e3c9b0001c4d434","5f60e3c0a3b16e07647b2ff9","5f61dbfac287bf18da309131","true","1121.6100000001024","./Stimuli/SelectedImages/LN/LN166.bmp","83","","","","test","true","N + M","83","repetition","LN","LN166.bmp","remember","","58","3","prime1","left","","","",""
"html-keyboard-response","160","535965","0.0-4.0-1.0-3.9","1q1r367yjoldvpw","prime","5be373e07e3c9b0001c4d434","5f60e3c0a3b16e07647b2ff9","5f61dbfac287bf18da309131","false","null","<div style=""align-items: center; display: flex; color: dodgerblue; font-size: 90px""><b>o</b></div>","null","","","","forget_cue","","","","","","","","","","","","","","","",""
"html-keyboard-response","161","536667","0.0-4.0-1.0-0.10","1q1r367yjoldvpw","prime","5be373e07e3c9b0001c4d434","5f60e3c0a3b16e07647b2ff9","5f61dbfac287bf18da309131","false","null","<span style=""color: black; font-size: 48px"">M + N</span>","null","","","","resp_prompt","","","","","","","","","","","","","","","",""
"categorize-image","162","536933","0.0-4.0-1.0-1.10","1q1r367yjoldvpw","prime","5be373e07e3c9b0001c4d434","5f60e3c0a3b16e07647b2ff9","5f61dbfac287bf18da309131","true","262.7400000001071","./Stimuli/SelectedImages/SM/SM108.bmp","76","","","","test","false","M + N","83","switch","SM","SM108.bmp","remember","","59","3","prime1","right","","","",""
"html-keyboard-response","163","537435","0.0-4.0-1.0-2.10-0.10","1q1r367yjoldvpw","prime","5be373e07e3c9b0001c4d434","5f60e3c0a3b16e07647b2ff9","5f61dbfac287bf18da309131","false","null","<span style=""color: red; font-size: 48px"">Error!</span>","null","","","","feedback","","","","","","","","","","","","","","","",""
"html-keyboard-response","164","539436","0.0-4.0-1.0-3.10","1q1r367yjoldvpw","prime","5be373e07e3c9b0001c4d434","5f60e3c0a3b16e07647b2ff9","5f61dbfac287bf18da309131","false","null","<div style=""align-items: center; display: flex; color: dodgerblue; font-size: 90px""><b>o</b></div>","null","","","","forget_cue","","","","","","","","","","","","","","","",""
"html-keyboard-response","165","540138","0.0-4.0-1.0-0.11","1q1r367yjoldvpw","prime","5be373e07e3c9b0001c4d434","5f60e3c0a3b16e07647b2ff9","5f61dbfac287bf18da309131","false","null","<span style=""color: black; font-size: 48px"">M + N</span>","null","","","","resp_prompt","","","","","","","","","","","","","","","",""
"categorize-image","166","540476","0.0-4.0-1.0-1.11","1q1r367yjoldvpw","prime","5be373e07e3c9b0001c4d434","5f60e3c0a3b16e07647b2ff9","5f61dbfac287bf18da309131","true","335.6149999999907","./Stimuli/SelectedImages/SN/SN60.bmp","76","","","","test","true","M + N","76","switch","SN","SN60.bmp","remember","","60","3","prime1","right","","","",""
"html-keyboard-response","167","542477","0.0-4.0-1.0-3.11","1q1r367yjoldvpw","prime","5be373e07e3c9b0001c4d434","5f60e3c0a3b16e07647b2ff9","5f61dbfac287bf18da309131","false","null","<div style=""align-items: center; display: flex; color: dodgerblue; font-size: 90px""><b>o</b></div>","null","","","","forget_cue","","","","","","","","","","","","","","","",""
"html-keyboard-response","168","543178","0.0-4.0-1.0-0.12","1q1r367yjoldvpw","prime","5be373e07e3c9b0001c4d434","5f60e3c0a3b16e07647b2ff9","5f61dbfac287bf18da309131","false","null","<span style=""color: black; font-size: 48px"">M + N</span>","null","","","","resp_prompt","","","","","","","","","","","","","","","",""
"categorize-image","169","543749","0.0-4.0-1.0-1.12","1q1r367yjoldvpw","prime","5be373e07e3c9b0001c4d434","5f60e3c0a3b16e07647b2ff9","5f61dbfac287bf18da309131","true","567.1000000002095","./Stimuli/SelectedImages/LN/LN9.bmp","76","","","","test","true","M + N","76","switch","LN","LN9.bmp","remember","","61","3","prime1","right","","","",""
"html-keyboard-response","170","545750","0.0-4.0-1.0-3.12","1q1r367yjoldvpw","prime","5be373e07e3c9b0001c4d434","5f60e3c0a3b16e07647b2ff9","5f61dbfac287bf18da309131","false","null","<div style=""align-items: center; display: flex; color: dodgerblue; font-size: 90px""><b>o</b></div>","null","","","","forget_cue","","","","","","","","","","","","","","","",""
"html-keyboard-response","171","546451","0.0-4.0-1.0-0.13","1q1r367yjoldvpw","prime","5be373e07e3c9b0001c4d434","5f60e3c0a3b16e07647b2ff9","5f61dbfac287bf18da309131","false","null","<span style=""color: black; font-size: 48px"">M + N</span>","null","","","","resp_prompt","","","","","","","","","","","","","","","",""
"categorize-image","172","546804","0.0-4.0-1.0-1.13","1q1r367yjoldvpw","prime","5be373e07e3c9b0001c4d434","5f60e3c0a3b16e07647b2ff9","5f61dbfac287bf18da309131","true","350.41999999887776","./Stimuli/SelectedImages/LM/LM129.bmp","76","","","","test","false","M + N","83","switch","LM","LM129.bmp","forget","","62","3","prime1","right","","","",""
"html-keyboard-response","173","547306","0.0-4.0-1.0-2.13-0.13","1q1r367yjoldvpw","prime","5be373e07e3c9b0001c4d434","5f60e3c0a3b16e07647b2ff9","5f61dbfac287bf18da309131","false","null","<span style=""color: red; font-size: 48px"">Error!</span>","null","","","","feedback","","","","","","","","","","","","","","","",""
"html-keyboard-response","174","549308","0.0-4.0-1.0-3.13","1q1r367yjoldvpw","prime","5be373e07e3c9b0001c4d434","5f60e3c0a3b16e07647b2ff9","5f61dbfac287bf18da309131","false","null","<div style=""align-items: center; display: flex; color: darkorange; font-size: 90px""><b>ø</b></div>","null","","","","forget_cue","","","","","","","","","","","","","","","",""
"html-keyboard-response","175","550009","0.0-4.0-1.0-0.14","1q1r367yjoldvpw","prime","5be373e07e3c9b0001c4d434","5f60e3c0a3b16e07647b2ff9","5f61dbfac287bf18da309131","false","null","<span style=""color: black; font-size: 48px"">N + M</span>","null","","","","resp_prompt","","","","","","","","","","","","","","","",""
"categorize-image","176","550748","0.0-4.0-1.0-1.14","1q1r367yjoldvpw","prime","5be373e07e3c9b0001c4d434","5f60e3c0a3b16e07647b2ff9","5f61dbfac287bf18da309131","true","736.6000000002095","./Stimuli/SelectedImages/LM/LM103.bmp","76","","","","test","true","N + M","76","repetition","LM","LM103.bmp","remember","","63","3","prime1","right","","","",""
"html-keyboard-response","177","552750","0.0-4.0-1.0-3.14","1q1r367yjoldvpw","prime","5be373e07e3c9b0001c4d434","5f60e3c0a3b16e07647b2ff9","5f61dbfac287bf18da309131","false","null","<div style=""align-items: center; display: flex; color: dodgerblue; font-size: 90px""><b>o</b></div>","null","","","","forget_cue","","","","","","","","","","","","","","","",""
"html-keyboard-response","178","553452","0.0-4.0-1.0-0.15","1q1r367yjoldvpw","prime","5be373e07e3c9b0001c4d434","5f60e3c0a3b16e07647b2ff9","5f61dbfac287bf18da309131","false","null","<span style=""color: black; font-size: 48px"">N + M</span>","null","","","","resp_prompt","","","","","","","","","","","","","","","",""
"categorize-image","179","554020","0.0-4.0-1.0-1.15","1q1r367yjoldvpw","prime","5be373e07e3c9b0001c4d434","5f60e3c0a3b16e07647b2ff9","5f61dbfac287bf18da309131","true","565.4549999999581","./Stimuli/SelectedImages/SN/SN155.bmp","76","","","","test","false","N + M","83","repetition","SN","SN155.bmp","forget","","64","3","prime1","right","","","",""
"html-keyboard-response","180","554522","0.0-4.0-1.0-2.15-0.15","1q1r367yjoldvpw","prime","5be373e07e3c9b0001c4d434","5f60e3c0a3b16e07647b2ff9","5f61dbfac287bf18da309131","false","null","<span style=""color: red; font-size: 48px"">Error!</span>","null","","","","feedback","","","","","","","","","","","","","","","",""
"html-keyboard-response","181","556523","0.0-4.0-1.0-3.15","1q1r367yjoldvpw","prime","5be373e07e3c9b0001c4d434","5f60e3c0a3b16e07647b2ff9","5f61dbfac287bf18da309131","false","null","<div style=""align-items: center; display: flex; color: darkorange; font-size: 90px""><b>ø</b></div>","null","","","","forget_cue","","","","","","","","","","","","","","","",""
"html-keyboard-response","182","557224","0.0-4.0-1.0-0.16","1q1r367yjoldvpw","prime","5be373e07e3c9b0001c4d434","5f60e3c0a3b16e07647b2ff9","5f61dbfac287bf18da309131","false","null","<span style=""color: black; font-size: 48px"">N + M</span>","null","","","","resp_prompt","","","","","","","","","","","","","","","",""
"categorize-image","183","557612","0.0-4.0-1.0-1.16","1q1r367yjoldvpw","prime","5be373e07e3c9b0001c4d434","5f60e3c0a3b16e07647b2ff9","5f61dbfac287bf18da309131","true","385.5799999983283","./Stimuli/SelectedImages/SN/SN181.bmp","76","","","","test","false","N + M","83","repetition","SN","SN181.bmp","remember","","65","3","prime1","right","","","",""
"html-keyboard-response","184","558114","0.0-4.0-1.0-2.16-0.16","1q1r367yjoldvpw","prime","5be373e07e3c9b0001c4d434","5f60e3c0a3b16e07647b2ff9","5f61dbfac287bf18da309131","false","null","<span style=""color: red; font-size: 48px"">Error!</span>","null","","","","feedback","","","","","","","","","","","","","","","",""
"html-keyboard-response","185","560116","0.0-4.0-1.0-3.16","1q1r367yjoldvpw","prime","5be373e07e3c9b0001c4d434","5f60e3c0a3b16e07647b2ff9","5f61dbfac287bf18da309131","false","null","<div style=""align-items: center; display: flex; color: dodgerblue; font-size: 90px""><b>o</b></div>","null","","","","forget_cue","","","","","","","","","","","","","","","",""
"html-keyboard-response","186","560817","0.0-4.0-1.0-0.17","1q1r367yjoldvpw","prime","5be373e07e3c9b0001c4d434","5f60e3c0a3b16e07647b2ff9","5f61dbfac287bf18da309131","false","null","<span style=""color: black; font-size: 48px"">M + N</span>","null","","","","resp_prompt","","","","","","","","","","","","","","","",""
"categorize-image","187","561173","0.0-4.0-1.0-1.17","1q1r367yjoldvpw","prime","5be373e07e3c9b0001c4d434","5f60e3c0a3b16e07647b2ff9","5f61dbfac287bf18da309131","true","352.61499999987427","./Stimuli/SelectedImages/SM/SM207.bmp","76","","","","test","false","M + N","83","repetition","SM","SM207.bmp","remember","","66","3","prime1","right","","","",""
"html-keyboard-response","188","561674","0.0-4.0-1.0-2.17-0.17","1q1r367yjoldvpw","prime","5be373e07e3c9b0001c4d434","5f60e3c0a3b16e07647b2ff9","5f61dbfac287bf18da309131","false","null","<span style=""color: red; font-size: 48px"">Error!</span>","null","","","","feedback","","","","","","","","","","","","","","","",""
"html-keyboard-response","189","563675","0.0-4.0-1.0-3.17","1q1r367yjoldvpw","prime","5be373e07e3c9b0001c4d434","5f60e3c0a3b16e07647b2ff9","5f61dbfac287bf18da309131","false","null","<div style=""align-items: center; display: flex; color: dodgerblue; font-size: 90px""><b>o</b></div>","null","","","","forget_cue","","","","","","","","","","","","","","","",""
"html-keyboard-response","190","564376","0.0-4.0-1.0-0.18","1q1r367yjoldvpw","prime","5be373e07e3c9b0001c4d434","5f60e3c0a3b16e07647b2ff9","5f61dbfac287bf18da309131","false","null","<span style=""color: black; font-size: 48px"">M + N</span>","null","","","","resp_prompt","","","","","","","","","","","","","","","",""
"categorize-image","191","564728","0.0-4.0-1.0-1.18","1q1r367yjoldvpw","prime","5be373e07e3c9b0001c4d434","5f60e3c0a3b16e07647b2ff9","5f61dbfac287bf18da309131","true","349.8899999995483","./Stimuli/SelectedImages/SN/SN179.bmp","76","","","","test","true","M + N","76","repetition","SN","SN179.bmp","forget","","67","3","prime1","right","","","",""
"html-keyboard-response","192","566729","0.0-4.0-1.0-3.18","1q1r367yjoldvpw","prime","5be373e07e3c9b0001c4d434","5f60e3c0a3b16e07647b2ff9","5f61dbfac287bf18da309131","false","null","<div style=""align-items: center; display: flex; color: darkorange; font-size: 90px""><b>ø</b></div>","null","","","","forget_cue","","","","","","","","","","","","","","","",""
"html-keyboard-response","193","567431","0.0-4.0-1.0-0.19","1q1r367yjoldvpw","prime","5be373e07e3c9b0001c4d434","5f60e3c0a3b16e07647b2ff9","5f61dbfac287bf18da309131","false","null","<span style=""color: black; font-size: 48px"">N + M</span>","null","","","","resp_prompt","","","","","","","","","","","","","","","",""
"categorize-image","194","569232","0.0-4.0-1.0-1.19","1q1r367yjoldvpw","prime","5be373e07e3c9b0001c4d434","5f60e3c0a3b16e07647b2ff9","5f61dbfac287bf18da309131","true","1798.6700000001583","./Stimuli/SelectedImages/LM/LM167.bmp","76","","","","test","true","N + M","76","repetition","LM","LM167.bmp","forget","","68","3","prime1","right","","","",""
"html-keyboard-response","195","571234","0.0-4.0-1.0-3.19","1q1r367yjoldvpw","prime","5be373e07e3c9b0001c4d434","5f60e3c0a3b16e07647b2ff9","5f61dbfac287bf18da309131","false","null","<div style=""align-items: center; display: flex; color: darkorange; font-size: 90px""><b>ø</b></div>","null","","","","forget_cue","","","","","","","","","","","","","","","",""
"html-keyboard-response","196","571937","0.0-4.0-1.0-0.20","1q1r367yjoldvpw","prime","5be373e07e3c9b0001c4d434","5f60e3c0a3b16e07647b2ff9","5f61dbfac287bf18da309131","false","null","<span style=""color: black; font-size: 48px"">N + M</span>","null","","","","resp_prompt","","","","","","","","","","","","","","","",""
"categorize-image","197","572239","0.0-4.0-1.0-1.20","1q1r367yjoldvpw","prime","5be373e07e3c9b0001c4d434","5f60e3c0a3b16e07647b2ff9","5f61dbfac287bf18da309131","true","299.625000001397","./Stimuli/SelectedImages/LM/LM157.bmp","76","","","","test","true","N + M","76","repetition","LM","LM157.bmp","forget","","69","3","prime1","right","","","",""
"html-keyboard-response","198","574242","0.0-4.0-1.0-3.20","1q1r367yjoldvpw","prime","5be373e07e3c9b0001c4d434","5f60e3c0a3b16e07647b2ff9","5f61dbfac287bf18da309131","false","null","<div style=""align-items: center; display: flex; color: darkorange; font-size: 90px""><b>ø</b></div>","null","","","","forget_cue","","","","","","","","","","","","","","","",""
"html-keyboard-response","199","574943","0.0-4.0-1.0-0.21","1q1r367yjoldvpw","prime","5be373e07e3c9b0001c4d434","5f60e3c0a3b16e07647b2ff9","5f61dbfac287bf18da309131","false","null","<span style=""color: black; font-size: 48px"">N + M</span>","null","","","","resp_prompt","","","","","","","","","","","","","","","",""
"categorize-image","200","575328","0.0-4.0-1.0-1.21","1q1r367yjoldvpw","prime","5be373e07e3c9b0001c4d434","5f60e3c0a3b16e07647b2ff9","5f61dbfac287bf18da309131","true","382.2650000002468","./Stimuli/SelectedImages/SM/SM74.bmp","76","","","","test","true","N + M","76","switch","SM","SM74.bmp","forget","","70","3","prime1","right","","","",""
"html-keyboard-response","201","577330","0.0-4.0-1.0-3.21","1q1r367yjoldvpw","prime","5be373e07e3c9b0001c4d434","5f60e3c0a3b16e07647b2ff9","5f61dbfac287bf18da309131","false","null","<div style=""align-items: center; display: flex; color: darkorange; font-size: 90px""><b>ø</b></div>","null","","","","forget_cue","","","","","","","","","","","","","","","",""
"html-keyboard-response","202","578032","0.0-4.0-1.0-0.22","1q1r367yjoldvpw","prime","5be373e07e3c9b0001c4d434","5f60e3c0a3b16e07647b2ff9","5f61dbfac287bf18da309131","false","null","<span style=""color: black; font-size: 48px"">N + M</span>","null","","","","resp_prompt","","","","","","","","","","","","","","","",""
"categorize-image","203","578472","0.0-4.0-1.0-1.22","1q1r367yjoldvpw","prime","5be373e07e3c9b0001c4d434","5f60e3c0a3b16e07647b2ff9","5f61dbfac287bf18da309131","true","436.63999999989755","./Stimuli/SelectedImages/LM/LM150.bmp","76","","","","test","true","N + M","76","switch","LM","LM150.bmp","forget","","71","3","prime1","right","","","",""
"html-keyboard-response","204","580473","0.0-4.0-1.0-3.22","1q1r367yjoldvpw","prime","5be373e07e3c9b0001c4d434","5f60e3c0a3b16e07647b2ff9","5f61dbfac287bf18da309131","false","null","<div style=""align-items: center; display: flex; color: darkorange; font-size: 90px""><b>ø</b></div>","null","","","","forget_cue","","","","","","","","","","","","","","","",""
"html-keyboard-response","205","581175","0.0-4.0-1.0-0.23","1q1r367yjoldvpw","prime","5be373e07e3c9b0001c4d434","5f60e3c0a3b16e07647b2ff9","5f61dbfac287bf18da309131","false","null","<span style=""color: black; font-size: 48px"">N + M</span>","null","","","","resp_prompt","","","","","","","","","","","","","","","",""
"categorize-image","206","581848","0.0-4.0-1.0-1.23","1q1r367yjoldvpw","prime","5be373e07e3c9b0001c4d434","5f60e3c0a3b16e07647b2ff9","5f61dbfac287bf18da309131","true","669.545000000624","./Stimuli/SelectedImages/SN/SN187.bmp","76","","","","test","false","N + M","83","switch","SN","SN187.bmp","remember","","72","3","prime1","right","","","",""
"html-keyboard-response","207","582349","0.0-4.0-1.0-2.23-0.23","1q1r367yjoldvpw","prime","5be373e07e3c9b0001c4d434","5f60e3c0a3b16e07647b2ff9","5f61dbfac287bf18da309131","false","null","<span style=""color: red; font-size: 48px"">Error!</span>","null","","","","feedback","","","","","","","","","","","","","","","",""
"html-keyboard-response","208","584351","0.0-4.0-1.0-3.23","1q1r367yjoldvpw","prime","5be373e07e3c9b0001c4d434","5f60e3c0a3b16e07647b2ff9","5f61dbfac287bf18da309131","false","null","<div style=""align-items: center; display: flex; color: dodgerblue; font-size: 90px""><b>o</b></div>","null","","","","forget_cue","","","","","","","","","","","","","","","",""
"html-keyboard-response","209","585053","0.0-4.0-1.0-0.24","1q1r367yjoldvpw","prime","5be373e07e3c9b0001c4d434","5f60e3c0a3b16e07647b2ff9","5f61dbfac287bf18da309131","false","null","<span style=""color: black; font-size: 48px"">N + M</span>","null","","","","resp_prompt","","","","","","","","","","","","","","","",""
"categorize-image","210","585697","0.0-4.0-1.0-1.24","1q1r367yjoldvpw","prime","5be373e07e3c9b0001c4d434","5f60e3c0a3b16e07647b2ff9","5f61dbfac287bf18da309131","true","640.2349999989383","./Stimuli/SelectedImages/SM/SM106.bmp","76","","","","test","true","N + M","76","repetition","SM","SM106.bmp","remember","","73","3","prime1","right","","","",""
"html-keyboard-response","211","587698","0.0-4.0-1.0-3.24","1q1r367yjoldvpw","prime","5be373e07e3c9b0001c4d434","5f60e3c0a3b16e07647b2ff9","5f61dbfac287bf18da309131","false","null","<div style=""align-items: center; display: flex; color: dodgerblue; font-size: 90px""><b>o</b></div>","null","","","","forget_cue","","","","","","","","","","","","","","","",""
"html-keyboard-response","212","588399","0.0-4.0-1.0-0.25","1q1r367yjoldvpw","prime","5be373e07e3c9b0001c4d434","5f60e3c0a3b16e07647b2ff9","5f61dbfac287bf18da309131","false","null","<span style=""color: black; font-size: 48px"">M + N</span>","null","","","","resp_prompt","","","","","","","","","","","","","","","",""
"categorize-image","213","589271","0.0-4.0-1.0-1.25","1q1r367yjoldvpw","prime","5be373e07e3c9b0001c4d434","5f60e3c0a3b16e07647b2ff9","5f61dbfac287bf18da309131","true","870.0749999989057","./Stimuli/SelectedImages/SN/SN182.bmp","76","","","","test","true","M + N","76","repetition","SN","SN182.bmp","remember","","74","3","prime1","right","","","",""
"html-keyboard-response","214","591273","0.0-4.0-1.0-3.25","1q1r367yjoldvpw","prime","5be373e07e3c9b0001c4d434","5f60e3c0a3b16e07647b2ff9","5f61dbfac287bf18da309131","false","null","<div style=""align-items: center; display: flex; color: dodgerblue; font-size: 90px""><b>o</b></div>","null","","","","forget_cue","","","","","","","","","","","","","","","",""
"html-keyboard-response","215","591975","0.0-4.0-1.0-0.26","1q1r367yjoldvpw","prime","5be373e07e3c9b0001c4d434","5f60e3c0a3b16e07647b2ff9","5f61dbfac287bf18da309131","false","null","<span style=""color: black; font-size: 48px"">N + M</span>","null","","","","resp_prompt","","","","","","","","","","","","","","","",""
"categorize-image","216","593982","0.0-4.0-1.0-1.26","1q1r367yjoldvpw","prime","5be373e07e3c9b0001c4d434","5f60e3c0a3b16e07647b2ff9","5f61dbfac287bf18da309131","true","null","./Stimuli/SelectedImages/LN/LN13.bmp","null","","","","test","false","N + M","83","switch","LN","LN13.bmp","forget","","75","3","prime1","too_slow","","","",""
"html-keyboard-response","217","594484","0.0-4.0-1.0-2.26-0.26","1q1r367yjoldvpw","prime","5be373e07e3c9b0001c4d434","5f60e3c0a3b16e07647b2ff9","5f61dbfac287bf18da309131","false","null","<span style=""color: red; font-size: 48px"">Too slow!</span>","null","","","","feedback","","","","","","","","","","","","","","","",""
"html-keyboard-response","218","596486","0.0-4.0-1.0-3.26","1q1r367yjoldvpw","prime","5be373e07e3c9b0001c4d434","5f60e3c0a3b16e07647b2ff9","5f61dbfac287bf18da309131","false","null","<div style=""align-items: center; display: flex; color: darkorange; font-size: 90px""><b>ø</b></div>","null","","","","forget_cue","","","","","","","","","","","","","","","",""
"html-keyboard-response","219","597188","0.0-4.0-1.0-0.27","1q1r367yjoldvpw","prime","5be373e07e3c9b0001c4d434","5f60e3c0a3b16e07647b2ff9","5f61dbfac287bf18da309131","false","null","<span style=""color: black; font-size: 48px"">N + M</span>","null","","","","resp_prompt","","","","","","","","","","","","","","","",""
"categorize-image","220","598012","0.0-4.0-1.0-1.27","1q1r367yjoldvpw","prime","5be373e07e3c9b0001c4d434","5f60e3c0a3b16e07647b2ff9","5f61dbfac287bf18da309131","true","821.7649999988498","./Stimuli/SelectedImages/LM/LM235.bmp","83","","","","test","false","N + M","76","switch","LM","LM235.bmp","remember","","76","3","prime1","left","","","",""
"html-keyboard-response","221","598514","0.0-4.0-1.0-2.27-0.27","1q1r367yjoldvpw","prime","5be373e07e3c9b0001c4d434","5f60e3c0a3b16e07647b2ff9","5f61dbfac287bf18da309131","false","null","<span style=""color: red; font-size: 48px"">Error!</span>","null","","","","feedback","","","","","","","","","","","","","","","",""
"html-keyboard-response","222","600515","0.0-4.0-1.0-3.27","1q1r367yjoldvpw","prime","5be373e07e3c9b0001c4d434","5f60e3c0a3b16e07647b2ff9","5f61dbfac287bf18da309131","false","null","<div style=""align-items: center; display: flex; color: dodgerblue; font-size: 90px""><b>o</b></div>","null","","","","forget_cue","","","","","","","","","","","","","","","",""
"html-keyboard-response","223","601217","0.0-4.0-1.0-0.28","1q1r367yjoldvpw","prime","5be373e07e3c9b0001c4d434","5f60e3c0a3b16e07647b2ff9","5f61dbfac287bf18da309131","false","null","<span style=""color: black; font-size: 48px"">M + N</span>","null","","","","resp_prompt","","","","","","","","","","","","","","","",""
"categorize-image","224","601292","0.0-4.0-1.0-1.28","1q1r367yjoldvpw","prime","5be373e07e3c9b0001c4d434","5f60e3c0a3b16e07647b2ff9","5f61dbfac287bf18da309131","true","71.82499999913853","./Stimuli/SelectedImages/SN/SN240.bmp","76","","","","test","true","M + N","76","switch","SN","SN240.bmp","forget","","77","3","prime1","right","","","",""
"html-keyboard-response","225","603294","0.0-4.0-1.0-3.28","1q1r367yjoldvpw","prime","5be373e07e3c9b0001c4d434","5f60e3c0a3b16e07647b2ff9","5f61dbfac287bf18da309131","false","null","<div style=""align-items: center; display: flex; color: darkorange; font-size: 90px""><b>ø</b></div>","null","","","","forget_cue","","","","","","","","","","","","","","","",""
"html-keyboard-response","226","603995","0.0-4.0-1.0-0.29","1q1r367yjoldvpw","prime","5be373e07e3c9b0001c4d434","5f60e3c0a3b16e07647b2ff9","5f61dbfac287bf18da309131","false","null","<span style=""color: black; font-size: 48px"">N + M</span>","null","","","","resp_prompt","","","","","","","","","","","","","","","",""
"categorize-image","227","604771","0.0-4.0-1.0-1.29","1q1r367yjoldvpw","prime","5be373e07e3c9b0001c4d434","5f60e3c0a3b16e07647b2ff9","5f61dbfac287bf18da309131","true","774.1199999999953","./Stimuli/SelectedImages/LM/LM57.bmp","76","","","","test","true","N + M","76","repetition","LM","LM57.bmp","remember","","78","3","prime1","right","","","",""
"html-keyboard-response","228","606773","0.0-4.0-1.0-3.29","1q1r367yjoldvpw","prime","5be373e07e3c9b0001c4d434","5f60e3c0a3b16e07647b2ff9","5f61dbfac287bf18da309131","false","null","<div style=""align-items: center; display: flex; color: dodgerblue; font-size: 90px""><b>o</b></div>","null","","","","forget_cue","","","","","","","","","","","","","","","",""
"html-keyboard-response","229","607475","0.0-4.0-1.0-0.30","1q1r367yjoldvpw","prime","5be373e07e3c9b0001c4d434","5f60e3c0a3b16e07647b2ff9","5f61dbfac287bf18da309131","false","null","<span style=""color: black; font-size: 48px"">M + N</span>","null","","","","resp_prompt","","","","","","","","","","","","","","","",""
"categorize-image","230","607812","0.0-4.0-1.0-1.30","1q1r367yjoldvpw","prime","5be373e07e3c9b0001c4d434","5f60e3c0a3b16e07647b2ff9","5f61dbfac287bf18da309131","true","334.53000000002794","./Stimuli/SelectedImages/LM/LM58.bmp","76","","","","test","false","M + N","83","repetition","LM","LM58.bmp","forget","","79","3","prime1","right","","","",""
"html-keyboard-response","231","608314","0.0-4.0-1.0-2.30-0.30","1q1r367yjoldvpw","prime","5be373e07e3c9b0001c4d434","5f60e3c0a3b16e07647b2ff9","5f61dbfac287bf18da309131","false","null","<span style=""color: red; font-size: 48px"">Error!</span>","null","","","","feedback","","","","","","","","","","","","","","","",""
"html-keyboard-response","232","610316","0.0-4.0-1.0-3.30","1q1r367yjoldvpw","prime","5be373e07e3c9b0001c4d434","5f60e3c0a3b16e07647b2ff9","5f61dbfac287bf18da309131","false","null","<div style=""align-items: center; display: flex; color: darkorange; font-size: 90px""><b>ø</b></div>","null","","","","forget_cue","","","","","","","","","","","","","","","",""
"html-keyboard-response","233","611017","0.0-4.0-1.0-0.31","1q1r367yjoldvpw","prime","5be373e07e3c9b0001c4d434","5f60e3c0a3b16e07647b2ff9","5f61dbfac287bf18da309131","false","null","<span style=""color: black; font-size: 48px"">M + N</span>","null","","","","resp_prompt","","","","","","","","","","","","","","","",""
"categorize-image","234","611604","0.0-4.0-1.0-1.31","1q1r367yjoldvpw","prime","5be373e07e3c9b0001c4d434","5f60e3c0a3b16e07647b2ff9","5f61dbfac287bf18da309131","true","583.8400000011316","./Stimuli/SelectedImages/LN/LN28.bmp","76","","","","test","true","M + N","76","repetition","LN","LN28.bmp","remember","","80","3","prime1","right","","","",""
"html-keyboard-response","235","613605","0.0-4.0-1.0-3.31","1q1r367yjoldvpw","prime","5be373e07e3c9b0001c4d434","5f60e3c0a3b16e07647b2ff9","5f61dbfac287bf18da309131","false","null","<div style=""align-items: center; display: flex; color: dodgerblue; font-size: 90px""><b>o</b></div>","null","","","","forget_cue","","","","","","","","","","","","","","","",""
"html-keyboard-response","236","614306","0.0-4.0-1.0-0.32","1q1r367yjoldvpw","prime","5be373e07e3c9b0001c4d434","5f60e3c0a3b16e07647b2ff9","5f61dbfac287bf18da309131","false","null","<span style=""color: black; font-size: 48px"">M + N</span>","null","","","","resp_prompt","","","","","","","","","","","","","","","",""
"categorize-image","237","614787","0.0-4.0-1.0-1.32","1q1r367yjoldvpw","prime","5be373e07e3c9b0001c4d434","5f60e3c0a3b16e07647b2ff9","5f61dbfac287bf18da309131","true","478.5599999995902","./Stimuli/SelectedImages/SM/SM78.bmp","76","","","","test","false","M + N","83","switch","SM","SM78.bmp","forget","","81","3","prime1","right","","","",""
"html-keyboard-response","238","615289","0.0-4.0-1.0-2.32-0.32","1q1r367yjoldvpw","prime","5be373e07e3c9b0001c4d434","5f60e3c0a3b16e07647b2ff9","5f61dbfac287bf18da309131","false","null","<span style=""color: red; font-size: 48px"">Error!</span>","null","","","","feedback","","","","","","","","","","","","","","","",""
"html-keyboard-response","239","617291","0.0-4.0-1.0-3.32","1q1r367yjoldvpw","prime","5be373e07e3c9b0001c4d434","5f60e3c0a3b16e07647b2ff9","5f61dbfac287bf18da309131","false","null","<div style=""align-items: center; display: flex; color: darkorange; font-size: 90px""><b>ø</b></div>","null","","","","forget_cue","","","","","","","","","","","","","","","",""
"html-keyboard-response","240","617993","0.0-4.0-1.0-0.33","1q1r367yjoldvpw","prime","5be373e07e3c9b0001c4d434","5f60e3c0a3b16e07647b2ff9","5f61dbfac287bf18da309131","false","null","<span style=""color: black; font-size: 48px"">N + M</span>","null","","","","resp_prompt","","","","","","","","","","","","","","","",""
"categorize-image","241","618980","0.0-4.0-1.0-1.33","1q1r367yjoldvpw","prime","5be373e07e3c9b0001c4d434","5f60e3c0a3b16e07647b2ff9","5f61dbfac287bf18da309131","true","983.7900000001537","./Stimuli/SelectedImages/SN/SN140.bmp","76","","","","test","false","N + M","83","switch","SN","SN140.bmp","remember","","82","3","prime1","right","","","",""
"html-keyboard-response","242","619481","0.0-4.0-1.0-2.33-0.33","1q1r367yjoldvpw","prime","5be373e07e3c9b0001c4d434","5f60e3c0a3b16e07647b2ff9","5f61dbfac287bf18da309131","false","null","<span style=""color: red; font-size: 48px"">Error!</span>","null","","","","feedback","","","","","","","","","","","","","","","",""
"html-keyboard-response","243","621482","0.0-4.0-1.0-3.33","1q1r367yjoldvpw","prime","5be373e07e3c9b0001c4d434","5f60e3c0a3b16e07647b2ff9","5f61dbfac287bf18da309131","false","null","<div style=""align-items: center; display: flex; color: dodgerblue; font-size: 90px""><b>o</b></div>","null","","","","forget_cue","","","","","","","","","","","","","","","",""
"html-keyboard-response","244","622183","0.0-4.0-1.0-0.34","1q1r367yjoldvpw","prime","5be373e07e3c9b0001c4d434","5f60e3c0a3b16e07647b2ff9","5f61dbfac287bf18da309131","false","null","<span style=""color: black; font-size: 48px"">N + M</span>","null","","","","resp_prompt","","","","","","","","","","","","","","","",""
"categorize-image","245","622832","0.0-4.0-1.0-1.34","1q1r367yjoldvpw","prime","5be373e07e3c9b0001c4d434","5f60e3c0a3b16e07647b2ff9","5f61dbfac287bf18da309131","true","645.4950000005774","./Stimuli/SelectedImages/SM/SM148.bmp","76","","","","test","true","N + M","76","repetition","SM","SM148.bmp","forget","","83","3","prime1","right","","","",""
"html-keyboard-response","246","624833","0.0-4.0-1.0-3.34","1q1r367yjoldvpw","prime","5be373e07e3c9b0001c4d434","5f60e3c0a3b16e07647b2ff9","5f61dbfac287bf18da309131","false","null","<div style=""align-items: center; display: flex; color: darkorange; font-size: 90px""><b>ø</b></div>","null","","","","forget_cue","","","","","","","","","","","","","","","",""
"html-keyboard-response","247","625535","0.0-4.0-1.0-0.35","1q1r367yjoldvpw","prime","5be373e07e3c9b0001c4d434","5f60e3c0a3b16e07647b2ff9","5f61dbfac287bf18da309131","false","null","<span style=""color: black; font-size: 48px"">N + M</span>","null","","","","resp_prompt","","","","","","","","","","","","","","","",""
"categorize-image","248","625871","0.0-4.0-1.0-1.35","1q1r367yjoldvpw","prime","5be373e07e3c9b0001c4d434","5f60e3c0a3b16e07647b2ff9","5f61dbfac287bf18da309131","true","333.51000000035856","./Stimuli/SelectedImages/LN/LN177.bmp","76","","","","test","false","N + M","83","switch","LN","LN177.bmp","forget","","84","3","prime1","right","","","",""
"html-keyboard-response","249","626373","0.0-4.0-1.0-2.35-0.35","1q1r367yjoldvpw","prime","5be373e07e3c9b0001c4d434","5f60e3c0a3b16e07647b2ff9","5f61dbfac287bf18da309131","false","null","<span style=""color: red; font-size: 48px"">Error!</span>","null","","","","feedback","","","","","","","","","","","","","","","",""
"html-keyboard-response","250","628374","0.0-4.0-1.0-3.35","1q1r367yjoldvpw","prime","5be373e07e3c9b0001c4d434","5f60e3c0a3b16e07647b2ff9","5f61dbfac287bf18da309131","false","null","<div style=""align-items: center; display: flex; color: darkorange; font-size: 90px""><b>ø</b></div>","null","","","","forget_cue","","","","","","","","","","","","","","","",""
"html-keyboard-response","251","629076","0.0-4.0-1.0-0.36","1q1r367yjoldvpw","prime","5be373e07e3c9b0001c4d434","5f60e3c0a3b16e07647b2ff9","5f61dbfac287bf18da309131","false","null","<span style=""color: black; font-size: 48px"">M + N</span>","null","","","","resp_prompt","","","","","","","","","","","","","","","",""
"categorize-image","252","629519","0.0-4.0-1.0-1.36","1q1r367yjoldvpw","prime","5be373e07e3c9b0001c4d434","5f60e3c0a3b16e07647b2ff9","5f61dbfac287bf18da309131","true","440.5549999992363","./Stimuli/SelectedImages/SN/SN128.bmp","76","","","","test","true","M + N","76","repetition","SN","SN128.bmp","forget","","85","3","prime1","right","","","",""
"html-keyboard-response","253","631520","0.0-4.0-1.0-3.36","1q1r367yjoldvpw","prime","5be373e07e3c9b0001c4d434","5f60e3c0a3b16e07647b2ff9","5f61dbfac287bf18da309131","false","null","<div style=""align-items: center; display: flex; color: darkorange; font-size: 90px""><b>ø</b></div>","null","","","","forget_cue","","","","","","","","","","","","","","","",""
