"trial_type","trial_index","time_elapsed","internal_node_id","subject","exp_part","prolific_PID","study_ID","session_ID","use","rt","stimulus","key_press","button_pressed","responses","question_order","trial_part","correct","resp_map","correct_resp","probe_condition","category","image","forget_condition","list","trial_num","block_num","block","response","test_part","n_span","sequence","num_spaces"
"pavlovia","0","5","0.0-0.0","b8bkkf82vsyj4ob","","59dc458f77860e000151240e","5f60e3c0a3b16e07647b2ff9","5f64c2c6ec7572026fabe9af","false","","","","","","","","","","","","","","","","","","","","","","",""
"html-keyboard-response","1","20323","0.0-1.0-0.0-0.0","b8bkkf82vsyj4ob","welcome","59dc458f77860e000151240e","5f60e3c0a3b16e07647b2ff9","5f64c2c6ec7572026fabe9af","false","20315","<div align=left>Dear participant, <br> thank you for participating in an online study of the Cognition, Action, and Sustainability Unit of the University of Freiburg! <br> <br>The aim of this study is to examine our ability to remember previously learned information. <br>Our goal is to find out, whether our memory improves, when we only remember information that is relevant to us. <br>The experiment will take about 35 minutes to complete. <br> <br>Please, note that you can only participate in this study if you are using a device with a keyboard (PC, Laptop etc.) <br>and not if you are using a mobile device such as a tablet or smartphone.<br> <br>Press 'SPACE' to proceed to the experiment. </div>","32","","","","","","","","","","","","","","","","","","","",""
"html-keyboard-response","2","35989","0.0-1.0-0.0-1.0","b8bkkf82vsyj4ob","welcome","59dc458f77860e000151240e","5f60e3c0a3b16e07647b2ff9","5f64c2c6ec7572026fabe9af","false","15665","<div align=left><strong> Time Course of this experiment: </strong> <br><br> <strong> 1.</strong>  First, please fill in some information regarding your demographic data. <br><br> <strong> 2.</strong>  Next, your task will be to classify everyday objects. <br>In addition, you will be asked to remember certain objects and recall them later. <br>Working on these tasks requires your undivided attention and concentration.<br>It is therefore essential that you eliminate any sources of distraction in your  <br>environment and ensure that you will not be disturbed. <br><br><strong> 3.</strong>  At the end of the experiment, you will be asked to answer a few additional questions. <br> <br><strong> Important:</strong> After finishing the experiment, only close the browser window <br> by clicking on the 'end the experiment'-button when you are asked to do so. <br>Closing the browser window prematurely will make the allocation of your participation credit impossible. <br><br> Press 'SPACE' to start the experiment. </div>","32","","","","","","","","","","","","","","","","","","","",""
"html-button-response","3","45233","0.0-1.0-0.0-2.0","b8bkkf82vsyj4ob","welcome","59dc458f77860e000151240e","5f60e3c0a3b16e07647b2ff9","5f64c2c6ec7572026fabe9af","true","9242","<div align=left><strong> Informed consent </strong>  <br>The aim of our research is to better understand human behavior and mental processes. <br>In the following study your behavior (e.g. choices, reaction times) will be studied. <br> <br><strong> Voluntariness and Anonymity </strong> <br>Your participation in this study is  <strong> voluntary</strong>.<br>You may withdraw your consent to participate at any time without providing a reason for doing so and without fear of prejudice. <br><br>As no personal data will be collected, <strong>your data and your person cannot be connected after data collection</strong> – the data-set is anonymous. <br>Respectively, deletion of your data will not be possible after data collection has been completed, as we cannot retrace your data-set.<br>The results and anonymized data collected in this study will be published as a scientific publication. <br>This will happen in an <strong>anonymized format</strong>, so that no data can be traced back to a specific person. <br> <br>The anonymized data of this study will be made available to other researchers and/or in a data archive on the Internet as a means of transparency and to enable subsequent re-use. By doing so, this study follows the recommendations of the Deutsche Forschungsgemeinschaft (DFG, German Research Foundation) and Deutsche Gesellschaft für Psychologie (DGPS, German Psychological Society) regarding quality assurance in research.<br>If you have any questions now or after the experiment, please contact our team (experiments@cs.uni-freiburg.de).<br><br><br>I hereby declare, that I understand the above described conditions of participation and I agree to participate under these conditions. <br><br> </div>","","0","","","","","","","","","","","","","","","","","","",""
"html-keyboard-response","4","69758","0.0-1.0-0.0-3.0","b8bkkf82vsyj4ob","welcome","59dc458f77860e000151240e","5f60e3c0a3b16e07647b2ff9","5f64c2c6ec7572026fabe9af","false","24522","<div align=left><strong> General information concerning the experiment </strong>  <br> <br>Please follow the instructions:<ol> <li><strong> Do not leave this tab (your browser window) during the experiment and do not reload this tab! </strong>  <br>If you do switch tabs/windows during the experiment (to check your mail or visit another website, for example), <br>the experiment will end automatically and you will <strong>not receive credit</strong> for your participation. <br>Repeated participation or resumption of the experiment is impossible.</li> <br><li>Please close all other programs for the duration of your participation. </li> <br><li>Please mute or turn off your phone and put it out of your reach. </li> <br><li>Please also take off any disturbing accessories (such as wristwatches, bracelets, etc.). </li> <br><li>If you have music playing in the background, please turn it off now. </li> <br></ol>Thank you! <br>Press 'SPACE' to continue. </div>","32","","","","","","","","","","","","","","","","","","","",""
"survey-text","5","74462","0.0-1.0-1.0-0.0","b8bkkf82vsyj4ob","demographics","59dc458f77860e000151240e","5f60e3c0a3b16e07647b2ff9","5f64c2c6ec7572026fabe9af","true","4699","","","","{""age"":""37""}","","","","","","","","","","","","","","","","","",""
"survey-multi-choice","6","91779","0.0-1.0-1.0-1.0","b8bkkf82vsyj4ob","demographics","59dc458f77860e000151240e","5f60e3c0a3b16e07647b2ff9","5f64c2c6ec7572026fabe9af","true","17313","","","","{""gender"":""male"",""school"":""high school"",""education"":""Still in training/ university""}","[0,1,2]","","","","","","","","","","","","","","","","",""
"survey-text","7","107672","0.0-1.0-1.0-2.0-0.0","b8bkkf82vsyj4ob","demographics","59dc458f77860e000151240e","5f60e3c0a3b16e07647b2ff9","5f64c2c6ec7572026fabe9af","true","15890","","","","{""education_text"":""Psychology and biology""}","","","","","","","","","","","","","","","","","",""
"html-keyboard-response","8","143247","0.0-1.0-2.0","b8bkkf82vsyj4ob","instructions","59dc458f77860e000151240e","5f60e3c0a3b16e07647b2ff9","5f64c2c6ec7572026fabe9af","false","35572","<div align=left> The experiment is now about to start: <br> <br>In the following part, you will be presented pictures of everyday objects. <br>Your first task is to <strong>classify these objects. </strong> <br> <br> You will classify them either as mechanical or non-mechanical objects. <br> <br>Objects that include any kind of technical mechanism (for example, wheels, switches, levers, <br> electronic components) fall under the category of <strong>mechanical</strong> objects. <br>Only objects without any kind of technical mechanism should be classified as <strong>non-mechanical</strong>. <br><br>Press 'SPACE' to continue. </div>","32","","","","","","","","","","","","","","","","","","","",""
"html-keyboard-response","9","191374","0.0-2.0-0.0","b8bkkf82vsyj4ob","instructions","59dc458f77860e000151240e","5f60e3c0a3b16e07647b2ff9","5f64c2c6ec7572026fabe9af","false","48125","<div align=justify>You will classify the objects using the <strong>'S'</strong> and the <strong>'L'</strong> keys on your keyboard.<br>For doing so, please place your <strong>left index finger</strong> on the <strong>'S'</strong> key and place your <strong>right index finger</strong> on the <strong>'L'</strong> key. <br><br> Each trial starts with an instruction, indicating which key ('S'/'L') you need to press to classify <br>the object as mechanical (letter M) or non-mechanical (letter N).<br>The instruction <strong>M + N</strong> indicates that, in the current trial, by pressing the left key ('S') you classify the displayed object as mechanical (M) <br> and by pressing the right key ('L') you classify the object as non-mechanical (N). <br>The instruction <strong>N + M</strong> on the other hand indicates that by pressing the left key ('S') you classify the displayed object as non-mechanical (N) <br> and by pressing the right key ('L') you classify the object as mechanical (M). <br><br>Please press the key corresponding to the correct classification as fast as possible as soon as the object is displayed and try to avoid making mistakes.<br>If you do not respond within a 2 second window, a corresponding feedback will be displayed and the next trial will start.<br> The experiment is divided into multiple blocks to give you the opportunity to take a break after each block. <br>First, you can now practice this task. <br><br>Please place your <strong>LEFT INDEX FINGER</strong> on the 'S' key and your <strong>RIGHT INDEX FINGER</strong> on the 'L' key now. <br><br>Press SPACE to continue.</div>","32","","","","","","","","","","","","","","","","","","","",""
"html-keyboard-response","10","203474","0.0-2.0-1.0","b8bkkf82vsyj4ob","instructions","59dc458f77860e000151240e","5f60e3c0a3b16e07647b2ff9","5f64c2c6ec7572026fabe9af","false","12097","<div align=left> You will now have time to practice this task.<br><br>Remember: <br> <br><li>Please place your index fingers on the <strong>'S'</strong> and <strong>'L'</strong> keys <br>to respond as fast and accurately as possible.</li><li>Every picture can be classified as either mechanical or non-mechanical.</li><li>If you do not respond in time or commit an error, you will receive a corresponding feedback. </li><li> Please try to respond as <strong> fast </strong> and as <strong> accurately as possible </strong> .<br><li>To ensure optimal results, please minimize distractions and stay focused. </li><br><br>Press SPACE to continue.</div>","32","","","","","","","","","","","","","","","","","","","",""
"html-keyboard-response","11","204176","0.0-2.0-2.0-0.0","b8bkkf82vsyj4ob","practice_no_cue","59dc458f77860e000151240e","5f60e3c0a3b16e07647b2ff9","5f64c2c6ec7572026fabe9af","false","null","<span style=""color: black; font-size: 48px"">M + N</span>","null","","","","resp_prompt","","","","","","","","","","","","","","","",""
"categorize-image","12","205568","0.0-2.0-2.0-1.0","b8bkkf82vsyj4ob","practice_no_cue","59dc458f77860e000151240e","5f60e3c0a3b16e07647b2ff9","5f64c2c6ec7572026fabe9af","true","888","./Stimuli/ImagesPractice/SN222.jpg","76","","","","test","true","M + N","76","","SN","SN222.jpg","forget","old","1","1","start","right","","","",""
"html-keyboard-response","13","206270","0.0-2.0-2.0-0.1","b8bkkf82vsyj4ob","practice_no_cue","59dc458f77860e000151240e","5f60e3c0a3b16e07647b2ff9","5f64c2c6ec7572026fabe9af","false","null","<span style=""color: black; font-size: 48px"">N + M</span>","null","","","","resp_prompt","","","","","","","","","","","","","","","",""
"categorize-image","14","207820","0.0-2.0-2.0-1.1","b8bkkf82vsyj4ob","practice_no_cue","59dc458f77860e000151240e","5f60e3c0a3b16e07647b2ff9","5f64c2c6ec7572026fabe9af","true","1021","./Stimuli/ImagesPractice/SM37.jpg","83","","","","test","false","N + M","76","","SM","SM37.jpg","forget","old","2","1","start","left","","","",""
"html-keyboard-response","15","208521","0.0-2.0-2.0-0.2","b8bkkf82vsyj4ob","practice_no_cue","59dc458f77860e000151240e","5f60e3c0a3b16e07647b2ff9","5f64c2c6ec7572026fabe9af","false","null","<span style=""color: black; font-size: 48px"">M + N</span>","null","","","","resp_prompt","","","","","","","","","","","","","","","",""
"categorize-image","16","211024","0.0-2.0-2.0-1.2","b8bkkf82vsyj4ob","practice_no_cue","59dc458f77860e000151240e","5f60e3c0a3b16e07647b2ff9","5f64c2c6ec7572026fabe9af","true","null","./Stimuli/ImagesPractice/LM143.jpg","null","","","","test","false","M + N","83","","LM","LM143.jpg","forget","old","3","1","start","too_slow","","","",""
"html-keyboard-response","17","211725","0.0-2.0-2.0-0.3","b8bkkf82vsyj4ob","practice_no_cue","59dc458f77860e000151240e","5f60e3c0a3b16e07647b2ff9","5f64c2c6ec7572026fabe9af","false","null","<span style=""color: black; font-size: 48px"">N + M</span>","null","","","","resp_prompt","","","","","","","","","","","","","","","",""
"categorize-image","18","213161","0.0-2.0-2.0-1.3","b8bkkf82vsyj4ob","practice_no_cue","59dc458f77860e000151240e","5f60e3c0a3b16e07647b2ff9","5f64c2c6ec7572026fabe9af","true","934","./Stimuli/ImagesPractice/LN15.jpg","83","","","","test","true","N + M","83","","LN","LN15.jpg","remember","old","4","1","start","left","","","",""
"html-keyboard-response","19","213861","0.0-2.0-2.0-0.4","b8bkkf82vsyj4ob","practice_no_cue","59dc458f77860e000151240e","5f60e3c0a3b16e07647b2ff9","5f64c2c6ec7572026fabe9af","false","null","<span style=""color: black; font-size: 48px"">M + N</span>","null","","","","resp_prompt","","","","","","","","","","","","","","","",""
"categorize-image","20","215342","0.0-2.0-2.0-1.4","b8bkkf82vsyj4ob","practice_no_cue","59dc458f77860e000151240e","5f60e3c0a3b16e07647b2ff9","5f64c2c6ec7572026fabe9af","true","978","./Stimuli/ImagesPractice/LN72.jpg","76","","","","test","true","M + N","76","","LN","LN72.jpg","remember","old","5","1","start","right","","","",""
"html-keyboard-response","21","216043","0.0-2.0-2.0-0.5","b8bkkf82vsyj4ob","practice_no_cue","59dc458f77860e000151240e","5f60e3c0a3b16e07647b2ff9","5f64c2c6ec7572026fabe9af","false","null","<span style=""color: black; font-size: 48px"">N + M</span>","null","","","","resp_prompt","","","","","","","","","","","","","","","",""
"categorize-image","22","217497","0.0-2.0-2.0-1.5","b8bkkf82vsyj4ob","practice_no_cue","59dc458f77860e000151240e","5f60e3c0a3b16e07647b2ff9","5f64c2c6ec7572026fabe9af","true","953","./Stimuli/ImagesPractice/LM230.jpg","76","","","","test","true","N + M","76","","LM","LM230.jpg","remember","old","6","1","start","right","","","",""
"html-keyboard-response","23","218199","0.0-2.0-2.0-0.6","b8bkkf82vsyj4ob","practice_no_cue","59dc458f77860e000151240e","5f60e3c0a3b16e07647b2ff9","5f64c2c6ec7572026fabe9af","false","null","<span style=""color: black; font-size: 48px"">N + M</span>","null","","","","resp_prompt","","","","","","","","","","","","","","","",""
"categorize-image","24","219574","0.0-2.0-2.0-1.6","b8bkkf82vsyj4ob","practice_no_cue","59dc458f77860e000151240e","5f60e3c0a3b16e07647b2ff9","5f64c2c6ec7572026fabe9af","true","873","./Stimuli/ImagesPractice/LN2.jpg","83","","","","test","true","N + M","83","","LN","LN2.jpg","forget","old","7","1","start","left","","","",""
"html-keyboard-response","25","220275","0.0-2.0-2.0-0.7","b8bkkf82vsyj4ob","practice_no_cue","59dc458f77860e000151240e","5f60e3c0a3b16e07647b2ff9","5f64c2c6ec7572026fabe9af","false","null","<span style=""color: black; font-size: 48px"">N + M</span>","null","","","","resp_prompt","","","","","","","","","","","","","","","",""
"categorize-image","26","221809","0.0-2.0-2.0-1.7","b8bkkf82vsyj4ob","practice_no_cue","59dc458f77860e000151240e","5f60e3c0a3b16e07647b2ff9","5f64c2c6ec7572026fabe9af","true","1032","./Stimuli/ImagesPractice/SM61.jpg","76","","","","test","true","N + M","76","","SM","SM61.jpg","forget","old","8","1","start","right","","","",""
"html-keyboard-response","27","222509","0.0-2.0-2.0-0.8","b8bkkf82vsyj4ob","practice_no_cue","59dc458f77860e000151240e","5f60e3c0a3b16e07647b2ff9","5f64c2c6ec7572026fabe9af","false","null","<span style=""color: black; font-size: 48px"">N + M</span>","null","","","","resp_prompt","","","","","","","","","","","","","","","",""
"categorize-image","28","223723","0.0-2.0-2.0-1.8","b8bkkf82vsyj4ob","practice_no_cue","59dc458f77860e000151240e","5f60e3c0a3b16e07647b2ff9","5f64c2c6ec7572026fabe9af","true","711","./Stimuli/ImagesPractice/SM98.jpg","76","","","","test","true","N + M","76","","SM","SM98.jpg","remember","old","9","1","start","right","","","",""
"html-keyboard-response","29","224426","0.0-2.0-2.0-0.9","b8bkkf82vsyj4ob","practice_no_cue","59dc458f77860e000151240e","5f60e3c0a3b16e07647b2ff9","5f64c2c6ec7572026fabe9af","false","null","<span style=""color: black; font-size: 48px"">M + N</span>","null","","","","resp_prompt","","","","","","","","","","","","","","","",""
"categorize-image","30","225737","0.0-2.0-2.0-1.9","b8bkkf82vsyj4ob","practice_no_cue","59dc458f77860e000151240e","5f60e3c0a3b16e07647b2ff9","5f64c2c6ec7572026fabe9af","true","809","./Stimuli/ImagesPractice/SM62.jpg","83","","","","test","true","M + N","83","","SM","SM62.jpg","remember","old","10","1","start","left","","","",""
"html-keyboard-response","31","226438","0.0-2.0-2.0-0.10","b8bkkf82vsyj4ob","practice_no_cue","59dc458f77860e000151240e","5f60e3c0a3b16e07647b2ff9","5f64c2c6ec7572026fabe9af","false","null","<span style=""color: black; font-size: 48px"">M + N</span>","null","","","","resp_prompt","","","","","","","","","","","","","","","",""
"categorize-image","32","227746","0.0-2.0-2.0-1.10","b8bkkf82vsyj4ob","practice_no_cue","59dc458f77860e000151240e","5f60e3c0a3b16e07647b2ff9","5f64c2c6ec7572026fabe9af","true","806","./Stimuli/ImagesPractice/SN76.jpg","76","","","","test","true","M + N","76","","SN","SN76.jpg","forget","old","11","1","start","right","","","",""
"html-keyboard-response","33","228446","0.0-2.0-2.0-0.11","b8bkkf82vsyj4ob","practice_no_cue","59dc458f77860e000151240e","5f60e3c0a3b16e07647b2ff9","5f64c2c6ec7572026fabe9af","false","null","<span style=""color: black; font-size: 48px"">M + N</span>","null","","","","resp_prompt","","","","","","","","","","","","","","","",""
"categorize-image","34","229840","0.0-2.0-2.0-1.11","b8bkkf82vsyj4ob","practice_no_cue","59dc458f77860e000151240e","5f60e3c0a3b16e07647b2ff9","5f64c2c6ec7572026fabe9af","true","892","./Stimuli/ImagesPractice/LM55.jpg","83","","","","test","true","M + N","83","","LM","LM55.jpg","remember","old","12","1","start","left","","","",""
"html-keyboard-response","35","230544","0.0-2.0-2.0-0.12","b8bkkf82vsyj4ob","practice_no_cue","59dc458f77860e000151240e","5f60e3c0a3b16e07647b2ff9","5f64c2c6ec7572026fabe9af","false","null","<span style=""color: black; font-size: 48px"">N + M</span>","null","","","","resp_prompt","","","","","","","","","","","","","","","",""
"categorize-image","36","231768","0.0-2.0-2.0-1.12","b8bkkf82vsyj4ob","practice_no_cue","59dc458f77860e000151240e","5f60e3c0a3b16e07647b2ff9","5f64c2c6ec7572026fabe9af","true","723","./Stimuli/ImagesPractice/LM224.jpg","76","","","","test","true","N + M","76","","LM","LM224.jpg","remember","old","13","1","start","right","","","",""
"html-keyboard-response","37","232469","0.0-2.0-2.0-0.13","b8bkkf82vsyj4ob","practice_no_cue","59dc458f77860e000151240e","5f60e3c0a3b16e07647b2ff9","5f64c2c6ec7572026fabe9af","false","null","<span style=""color: black; font-size: 48px"">M + N</span>","null","","","","resp_prompt","","","","","","","","","","","","","","","",""
"categorize-image","38","233646","0.0-2.0-2.0-1.13","b8bkkf82vsyj4ob","practice_no_cue","59dc458f77860e000151240e","5f60e3c0a3b16e07647b2ff9","5f64c2c6ec7572026fabe9af","true","676","./Stimuli/ImagesPractice/SN221.jpg","76","","","","test","true","M + N","76","","SN","SN221.jpg","remember","old","14","1","start","right","","","",""
"html-keyboard-response","39","234347","0.0-2.0-2.0-0.14","b8bkkf82vsyj4ob","practice_no_cue","59dc458f77860e000151240e","5f60e3c0a3b16e07647b2ff9","5f64c2c6ec7572026fabe9af","false","null","<span style=""color: black; font-size: 48px"">N + M</span>","null","","","","resp_prompt","","","","","","","","","","","","","","","",""
"categorize-image","40","235815","0.0-2.0-2.0-1.14","b8bkkf82vsyj4ob","practice_no_cue","59dc458f77860e000151240e","5f60e3c0a3b16e07647b2ff9","5f64c2c6ec7572026fabe9af","true","965","./Stimuli/ImagesPractice/LN109.jpg","83","","","","test","true","N + M","83","","LN","LN109.jpg","forget","old","15","1","start","left","","","",""
"html-keyboard-response","41","236516","0.0-2.0-2.0-0.15","b8bkkf82vsyj4ob","practice_no_cue","59dc458f77860e000151240e","5f60e3c0a3b16e07647b2ff9","5f64c2c6ec7572026fabe9af","false","null","<span style=""color: black; font-size: 48px"">M + N</span>","null","","","","resp_prompt","","","","","","","","","","","","","","","",""
"categorize-image","42","237759","0.0-2.0-2.0-1.15","b8bkkf82vsyj4ob","practice_no_cue","59dc458f77860e000151240e","5f60e3c0a3b16e07647b2ff9","5f64c2c6ec7572026fabe9af","true","741","./Stimuli/ImagesPractice/SM97.jpg","76","","","","test","false","M + N","83","","SM","SM97.jpg","forget","old","16","1","start","right","","","",""
"html-keyboard-response","43","242546","0.0-2.0-3.0","b8bkkf82vsyj4ob","break","59dc458f77860e000151240e","5f60e3c0a3b16e07647b2ff9","5f64c2c6ec7572026fabe9af","false","4786","<p style='font-size: 32px;'>Break</><br><br><br><br><br><p style='font-size: 24px;'>In the last block, you committed 2 errors and did not respond in time on 1 trials.
</p><p style='font-size: 24px;'>Try to respond as fast and accurately as possible in the next block as well! </p><p style='font-size: 24px;'>Press SPACE to continue.</p>","32","","","","","","","","","","","","","","","","","","","",""
"html-keyboard-response","44","245726","0.0-2.0-4.0","b8bkkf82vsyj4ob","instructions","59dc458f77860e000151240e","5f60e3c0a3b16e07647b2ff9","5f64c2c6ec7572026fabe9af","false","3180","<div align=left> Great!<br><br>Are you ready to continue?<br><br>If you want to reread the instructions and redo the practice trials, <br>please press „Z“. <br><br>Press SPACE to CONTINUE with the experiment when you are ready. </div>","32","","","","","","","","","","","","","","","","","","","",""
"html-keyboard-response","45","261319","0.0-3.0-0.0","b8bkkf82vsyj4ob","instructions","59dc458f77860e000151240e","5f60e3c0a3b16e07647b2ff9","5f64c2c6ec7572026fabe9af","false","15592","<div align=left>Great!<br> <strong>Attention</strong>! You will now receive a second, additional task! <br><br>To this point it was you <strong>first task</strong> to correctly <strong>classify objects</strong>. <br><br>As mentioned in the beginning, we aim to examine how well humans can remember previously learned information.<br>We would like to find out whether our memory improves if we only remember information that is relevant to us. <br><br>Therefore, your <strong>second task</strong> will be to <strong>remember</strong> the pictures you are to categorize. <br> After the learning phase, there will be a memory test phase, in which you will be asked to indicate whether you have seen a picture before or not. <br>Some, but not all pictures shown in the learning phase will appear in the memory test phase.<br>After classifying a picture, you will be told whether you should remember it for the memory test phase or not. <br>Thus, some pictures can be forgotten, whereas others have to be remembered. <br><br>Note: From now on, feedback will only be displayed if you responded incorrectly or not in time.<br><br>Press SPACE to continue.</div>","32","","","","","","","","","","","","","","","","","","","",""
"html-keyboard-response","46","282432","0.0-3.0-1.0","b8bkkf82vsyj4ob","instructions","59dc458f77860e000151240e","5f60e3c0a3b16e07647b2ff9","5f64c2c6ec7572026fabe9af","false","21112","<div align=left>In the following part, you will thus have to remember only some pictures. <br>Immediately after seeing and classifying the picture, a symbol will be displayed, indicating whether you should remember or forget the previous picture. <br><br>A <span style='color: dodgerblue; font-size: 28px'>O</span> indicates REMEMBER. That means, you have to remember this picture, because it will be tested later. <br><br>A <span style='color: darkorange; font-size:28px'>Ø</span> indicates FORGET. You do not have to remember this picture. <br><br> As you will have to remember a lot of pictures, it will be hard for you to remember all of them. <br>It will put you at an advantage if you instantly forget the pictures you are not asked to remember. <br> This will make it easier for you to remember the pictures that will be tested afterwards. <br><br>Press SPACE to continue.</div>","32","","","","","","","","","","","","","","","","","","","",""
"html-keyboard-response","47","288728","0.0-3.0-2.0","b8bkkf82vsyj4ob","instructions","59dc458f77860e000151240e","5f60e3c0a3b16e07647b2ff9","5f64c2c6ec7572026fabe9af","false","6295","<div align=left> Now you have the chance to practice both tasks together.<br><br>Remember: <br> <br><li>Please place your index fingers on the <strong>'S'</strong> and <strong>'L'</strong> keys <br>to respond as fast and accurately as possible.</li><li>Every picture can be classified as either mechanical or non-mechanical.</li><li>If you do not respond in time or commit an error, you will receive a corresponding feedback. <br>Please try to respond as <strong> fast </strong> and as <strong> accurately as possible </strong>.</li><li> Please remember only the to-be-remembered <span style='color: dodgerblue; font-size: 28px'>O</span> pictures. <br></li><li> Please minimize distractions and stay focused. </li><br><br>Press SPACE to START</div>","32","","","","","","","","","","","","","","","","","","","",""
"html-keyboard-response","48","289429","0.0-3.0-3.0-0.0","b8bkkf82vsyj4ob","practice_cue","59dc458f77860e000151240e","5f60e3c0a3b16e07647b2ff9","5f64c2c6ec7572026fabe9af","false","null","<span style=""color: black; font-size: 48px"">N + M</span>","null","","","","resp_prompt","","","","","","","","","","","","","","","",""
"categorize-image","49","290103","0.0-3.0-3.0-1.0","b8bkkf82vsyj4ob","practice_cue","59dc458f77860e000151240e","5f60e3c0a3b16e07647b2ff9","5f64c2c6ec7572026fabe9af","true","672","./Stimuli/ImagesPractice/LM224.jpg","76","","","","test","true","N + M","76","","LM","LM224.jpg","remember","old","17","2","practice_forget","right","","","",""
"html-keyboard-response","50","292105","0.0-3.0-3.0-3.0","b8bkkf82vsyj4ob","practice_cue","59dc458f77860e000151240e","5f60e3c0a3b16e07647b2ff9","5f64c2c6ec7572026fabe9af","false","null","<div style=""align-items: center; display: flex; color: dodgerblue; font-size: 90px""><b>o</b></div>","null","","","","forget_cue","","","","","","","","","","","","","","","",""
"html-keyboard-response","51","292806","0.0-3.0-3.0-0.1","b8bkkf82vsyj4ob","practice_cue","59dc458f77860e000151240e","5f60e3c0a3b16e07647b2ff9","5f64c2c6ec7572026fabe9af","false","null","<span style=""color: black; font-size: 48px"">M + N</span>","null","","","","resp_prompt","","","","","","","","","","","","","","","",""
"categorize-image","52","293406","0.0-3.0-3.0-1.1","b8bkkf82vsyj4ob","practice_cue","59dc458f77860e000151240e","5f60e3c0a3b16e07647b2ff9","5f64c2c6ec7572026fabe9af","true","598","./Stimuli/ImagesPractice/SM97.jpg","83","","","","test","true","M + N","83","","SM","SM97.jpg","forget","old","18","2","practice_forget","left","","","",""
"html-keyboard-response","53","295406","0.0-3.0-3.0-3.1","b8bkkf82vsyj4ob","practice_cue","59dc458f77860e000151240e","5f60e3c0a3b16e07647b2ff9","5f64c2c6ec7572026fabe9af","false","null","<div style=""align-items: center; display: flex; color: darkorange; font-size: 90px""><b>ø</b></div>","null","","","","forget_cue","","","","","","","","","","","","","","","",""
"html-keyboard-response","54","296107","0.0-3.0-3.0-0.2","b8bkkf82vsyj4ob","practice_cue","59dc458f77860e000151240e","5f60e3c0a3b16e07647b2ff9","5f64c2c6ec7572026fabe9af","false","null","<span style=""color: black; font-size: 48px"">N + M</span>","null","","","","resp_prompt","","","","","","","","","","","","","","","",""
"categorize-image","55","296887","0.0-3.0-3.0-1.2","b8bkkf82vsyj4ob","practice_cue","59dc458f77860e000151240e","5f60e3c0a3b16e07647b2ff9","5f64c2c6ec7572026fabe9af","true","778","./Stimuli/ImagesPractice/LN109.jpg","83","","","","test","true","N + M","83","","LN","LN109.jpg","forget","old","19","2","practice_forget","left","","","",""
"html-keyboard-response","56","298887","0.0-3.0-3.0-3.2","b8bkkf82vsyj4ob","practice_cue","59dc458f77860e000151240e","5f60e3c0a3b16e07647b2ff9","5f64c2c6ec7572026fabe9af","false","null","<div style=""align-items: center; display: flex; color: darkorange; font-size: 90px""><b>ø</b></div>","null","","","","forget_cue","","","","","","","","","","","","","","","",""
"html-keyboard-response","57","299588","0.0-3.0-3.0-0.3","b8bkkf82vsyj4ob","practice_cue","59dc458f77860e000151240e","5f60e3c0a3b16e07647b2ff9","5f64c2c6ec7572026fabe9af","false","null","<span style=""color: black; font-size: 48px"">M + N</span>","null","","","","resp_prompt","","","","","","","","","","","","","","","",""
"categorize-image","58","300315","0.0-3.0-3.0-1.3","b8bkkf82vsyj4ob","practice_cue","59dc458f77860e000151240e","5f60e3c0a3b16e07647b2ff9","5f64c2c6ec7572026fabe9af","true","727","./Stimuli/ImagesPractice/SM62.jpg","83","","","","test","true","M + N","83","","SM","SM62.jpg","remember","old","20","2","practice_forget","left","","","",""
"html-keyboard-response","59","302317","0.0-3.0-3.0-3.3","b8bkkf82vsyj4ob","practice_cue","59dc458f77860e000151240e","5f60e3c0a3b16e07647b2ff9","5f64c2c6ec7572026fabe9af","false","null","<div style=""align-items: center; display: flex; color: dodgerblue; font-size: 90px""><b>o</b></div>","null","","","","forget_cue","","","","","","","","","","","","","","","",""
"html-keyboard-response","60","303018","0.0-3.0-3.0-0.4","b8bkkf82vsyj4ob","practice_cue","59dc458f77860e000151240e","5f60e3c0a3b16e07647b2ff9","5f64c2c6ec7572026fabe9af","false","null","<span style=""color: black; font-size: 48px"">M + N</span>","null","","","","resp_prompt","","","","","","","","","","","","","","","",""
"categorize-image","61","303691","0.0-3.0-3.0-1.4","b8bkkf82vsyj4ob","practice_cue","59dc458f77860e000151240e","5f60e3c0a3b16e07647b2ff9","5f64c2c6ec7572026fabe9af","true","672","./Stimuli/ImagesPractice/SN221.jpg","76","","","","test","true","M + N","76","","SN","SN221.jpg","remember","old","21","2","practice_forget","right","","","",""
"html-keyboard-response","62","305691","0.0-3.0-3.0-3.4","b8bkkf82vsyj4ob","practice_cue","59dc458f77860e000151240e","5f60e3c0a3b16e07647b2ff9","5f64c2c6ec7572026fabe9af","false","null","<div style=""align-items: center; display: flex; color: dodgerblue; font-size: 90px""><b>o</b></div>","null","","","","forget_cue","","","","","","","","","","","","","","","",""
"html-keyboard-response","63","306393","0.0-3.0-3.0-0.5","b8bkkf82vsyj4ob","practice_cue","59dc458f77860e000151240e","5f60e3c0a3b16e07647b2ff9","5f64c2c6ec7572026fabe9af","false","null","<span style=""color: black; font-size: 48px"">N + M</span>","null","","","","resp_prompt","","","","","","","","","","","","","","","",""
"categorize-image","64","307030","0.0-3.0-3.0-1.5","b8bkkf82vsyj4ob","practice_cue","59dc458f77860e000151240e","5f60e3c0a3b16e07647b2ff9","5f64c2c6ec7572026fabe9af","true","635","./Stimuli/ImagesPractice/SM98.jpg","76","","","","test","true","N + M","76","","SM","SM98.jpg","remember","old","22","2","practice_forget","right","","","",""
"html-keyboard-response","65","309031","0.0-3.0-3.0-3.5","b8bkkf82vsyj4ob","practice_cue","59dc458f77860e000151240e","5f60e3c0a3b16e07647b2ff9","5f64c2c6ec7572026fabe9af","false","null","<div style=""align-items: center; display: flex; color: dodgerblue; font-size: 90px""><b>o</b></div>","null","","","","forget_cue","","","","","","","","","","","","","","","",""
"html-keyboard-response","66","309732","0.0-3.0-3.0-0.6","b8bkkf82vsyj4ob","practice_cue","59dc458f77860e000151240e","5f60e3c0a3b16e07647b2ff9","5f64c2c6ec7572026fabe9af","false","null","<span style=""color: black; font-size: 48px"">N + M</span>","null","","","","resp_prompt","","","","","","","","","","","","","","","",""
"categorize-image","67","310377","0.0-3.0-3.0-1.6","b8bkkf82vsyj4ob","practice_cue","59dc458f77860e000151240e","5f60e3c0a3b16e07647b2ff9","5f64c2c6ec7572026fabe9af","true","644","./Stimuli/ImagesPractice/LM230.jpg","76","","","","test","true","N + M","76","","LM","LM230.jpg","remember","old","23","2","practice_forget","right","","","",""
"html-keyboard-response","68","312378","0.0-3.0-3.0-3.6","b8bkkf82vsyj4ob","practice_cue","59dc458f77860e000151240e","5f60e3c0a3b16e07647b2ff9","5f64c2c6ec7572026fabe9af","false","null","<div style=""align-items: center; display: flex; color: dodgerblue; font-size: 90px""><b>o</b></div>","null","","","","forget_cue","","","","","","","","","","","","","","","",""
"html-keyboard-response","69","313078","0.0-3.0-3.0-0.7","b8bkkf82vsyj4ob","practice_cue","59dc458f77860e000151240e","5f60e3c0a3b16e07647b2ff9","5f64c2c6ec7572026fabe9af","false","null","<span style=""color: black; font-size: 48px"">N + M</span>","null","","","","resp_prompt","","","","","","","","","","","","","","","",""
"categorize-image","70","313716","0.0-3.0-3.0-1.7","b8bkkf82vsyj4ob","practice_cue","59dc458f77860e000151240e","5f60e3c0a3b16e07647b2ff9","5f64c2c6ec7572026fabe9af","true","638","./Stimuli/ImagesPractice/LN2.jpg","83","","","","test","true","N + M","83","","LN","LN2.jpg","forget","old","24","2","practice_forget","left","","","",""
"html-keyboard-response","71","315716","0.0-3.0-3.0-3.7","b8bkkf82vsyj4ob","practice_cue","59dc458f77860e000151240e","5f60e3c0a3b16e07647b2ff9","5f64c2c6ec7572026fabe9af","false","null","<div style=""align-items: center; display: flex; color: darkorange; font-size: 90px""><b>ø</b></div>","null","","","","forget_cue","","","","","","","","","","","","","","","",""
"html-keyboard-response","72","316417","0.0-3.0-3.0-0.8","b8bkkf82vsyj4ob","practice_cue","59dc458f77860e000151240e","5f60e3c0a3b16e07647b2ff9","5f64c2c6ec7572026fabe9af","false","null","<span style=""color: black; font-size: 48px"">N + M</span>","null","","","","resp_prompt","","","","","","","","","","","","","","","",""
"categorize-image","73","317242","0.0-3.0-3.0-1.8","b8bkkf82vsyj4ob","practice_cue","59dc458f77860e000151240e","5f60e3c0a3b16e07647b2ff9","5f64c2c6ec7572026fabe9af","true","824","./Stimuli/ImagesPractice/SM61.jpg","76","","","","test","true","N + M","76","","SM","SM61.jpg","forget","old","25","2","practice_forget","right","","","",""
"html-keyboard-response","74","319244","0.0-3.0-3.0-3.8","b8bkkf82vsyj4ob","practice_cue","59dc458f77860e000151240e","5f60e3c0a3b16e07647b2ff9","5f64c2c6ec7572026fabe9af","false","null","<div style=""align-items: center; display: flex; color: darkorange; font-size: 90px""><b>ø</b></div>","null","","","","forget_cue","","","","","","","","","","","","","","","",""
"html-keyboard-response","75","319946","0.0-3.0-3.0-0.9","b8bkkf82vsyj4ob","practice_cue","59dc458f77860e000151240e","5f60e3c0a3b16e07647b2ff9","5f64c2c6ec7572026fabe9af","false","null","<span style=""color: black; font-size: 48px"">M + N</span>","null","","","","resp_prompt","","","","","","","","","","","","","","","",""
"categorize-image","76","320504","0.0-3.0-3.0-1.9","b8bkkf82vsyj4ob","practice_cue","59dc458f77860e000151240e","5f60e3c0a3b16e07647b2ff9","5f64c2c6ec7572026fabe9af","true","558","./Stimuli/ImagesPractice/LM143.jpg","83","","","","test","true","M + N","83","","LM","LM143.jpg","forget","old","26","2","practice_forget","left","","","",""
"html-keyboard-response","77","322505","0.0-3.0-3.0-3.9","b8bkkf82vsyj4ob","practice_cue","59dc458f77860e000151240e","5f60e3c0a3b16e07647b2ff9","5f64c2c6ec7572026fabe9af","false","null","<div style=""align-items: center; display: flex; color: darkorange; font-size: 90px""><b>ø</b></div>","null","","","","forget_cue","","","","","","","","","","","","","","","",""
"html-keyboard-response","78","323207","0.0-3.0-3.0-0.10","b8bkkf82vsyj4ob","practice_cue","59dc458f77860e000151240e","5f60e3c0a3b16e07647b2ff9","5f64c2c6ec7572026fabe9af","false","null","<span style=""color: black; font-size: 48px"">M + N</span>","null","","","","resp_prompt","","","","","","","","","","","","","","","",""
"categorize-image","79","323905","0.0-3.0-3.0-1.10","b8bkkf82vsyj4ob","practice_cue","59dc458f77860e000151240e","5f60e3c0a3b16e07647b2ff9","5f64c2c6ec7572026fabe9af","true","697","./Stimuli/ImagesPractice/LN72.jpg","76","","","","test","true","M + N","76","","LN","LN72.jpg","remember","old","27","2","practice_forget","right","","","",""
"html-keyboard-response","80","325907","0.0-3.0-3.0-3.10","b8bkkf82vsyj4ob","practice_cue","59dc458f77860e000151240e","5f60e3c0a3b16e07647b2ff9","5f64c2c6ec7572026fabe9af","false","null","<div style=""align-items: center; display: flex; color: dodgerblue; font-size: 90px""><b>o</b></div>","null","","","","forget_cue","","","","","","","","","","","","","","","",""
"html-keyboard-response","81","326609","0.0-3.0-3.0-0.11","b8bkkf82vsyj4ob","practice_cue","59dc458f77860e000151240e","5f60e3c0a3b16e07647b2ff9","5f64c2c6ec7572026fabe9af","false","null","<span style=""color: black; font-size: 48px"">N + M</span>","null","","","","resp_prompt","","","","","","","","","","","","","","","",""
"categorize-image","82","327207","0.0-3.0-3.0-1.11","b8bkkf82vsyj4ob","practice_cue","59dc458f77860e000151240e","5f60e3c0a3b16e07647b2ff9","5f64c2c6ec7572026fabe9af","true","598","./Stimuli/ImagesPractice/LN15.jpg","83","","","","test","true","N + M","83","","LN","LN15.jpg","remember","old","28","2","practice_forget","left","","","",""
"html-keyboard-response","83","329209","0.0-3.0-3.0-3.11","b8bkkf82vsyj4ob","practice_cue","59dc458f77860e000151240e","5f60e3c0a3b16e07647b2ff9","5f64c2c6ec7572026fabe9af","false","null","<div style=""align-items: center; display: flex; color: dodgerblue; font-size: 90px""><b>o</b></div>","null","","","","forget_cue","","","","","","","","","","","","","","","",""
"html-keyboard-response","84","329912","0.0-3.0-3.0-0.12","b8bkkf82vsyj4ob","practice_cue","59dc458f77860e000151240e","5f60e3c0a3b16e07647b2ff9","5f64c2c6ec7572026fabe9af","false","null","<span style=""color: black; font-size: 48px"">M + N</span>","null","","","","resp_prompt","","","","","","","","","","","","","","","",""
"categorize-image","85","330807","0.0-3.0-3.0-1.12","b8bkkf82vsyj4ob","practice_cue","59dc458f77860e000151240e","5f60e3c0a3b16e07647b2ff9","5f64c2c6ec7572026fabe9af","true","894","./Stimuli/ImagesPractice/SN222.jpg","76","","","","test","true","M + N","76","","SN","SN222.jpg","forget","old","29","2","practice_forget","right","","","",""
"html-keyboard-response","86","332808","0.0-3.0-3.0-3.12","b8bkkf82vsyj4ob","practice_cue","59dc458f77860e000151240e","5f60e3c0a3b16e07647b2ff9","5f64c2c6ec7572026fabe9af","false","null","<div style=""align-items: center; display: flex; color: darkorange; font-size: 90px""><b>ø</b></div>","null","","","","forget_cue","","","","","","","","","","","","","","","",""
"html-keyboard-response","87","333508","0.0-3.0-3.0-0.13","b8bkkf82vsyj4ob","practice_cue","59dc458f77860e000151240e","5f60e3c0a3b16e07647b2ff9","5f64c2c6ec7572026fabe9af","false","null","<span style=""color: black; font-size: 48px"">M + N</span>","null","","","","resp_prompt","","","","","","","","","","","","","","","",""
"categorize-image","88","334202","0.0-3.0-3.0-1.13","b8bkkf82vsyj4ob","practice_cue","59dc458f77860e000151240e","5f60e3c0a3b16e07647b2ff9","5f64c2c6ec7572026fabe9af","true","693","./Stimuli/ImagesPractice/SN76.jpg","76","","","","test","true","M + N","76","","SN","SN76.jpg","forget","old","30","2","practice_forget","right","","","",""
"html-keyboard-response","89","336203","0.0-3.0-3.0-3.13","b8bkkf82vsyj4ob","practice_cue","59dc458f77860e000151240e","5f60e3c0a3b16e07647b2ff9","5f64c2c6ec7572026fabe9af","false","null","<div style=""align-items: center; display: flex; color: darkorange; font-size: 90px""><b>ø</b></div>","null","","","","forget_cue","","","","","","","","","","","","","","","",""
"html-keyboard-response","90","336904","0.0-3.0-3.0-0.14","b8bkkf82vsyj4ob","practice_cue","59dc458f77860e000151240e","5f60e3c0a3b16e07647b2ff9","5f64c2c6ec7572026fabe9af","false","null","<span style=""color: black; font-size: 48px"">N + M</span>","null","","","","resp_prompt","","","","","","","","","","","","","","","",""
"categorize-image","91","337648","0.0-3.0-3.0-1.14","b8bkkf82vsyj4ob","practice_cue","59dc458f77860e000151240e","5f60e3c0a3b16e07647b2ff9","5f64c2c6ec7572026fabe9af","true","742","./Stimuli/ImagesPractice/SM37.jpg","76","","","","test","true","N + M","76","","SM","SM37.jpg","forget","old","31","2","practice_forget","right","","","",""
"html-keyboard-response","92","339648","0.0-3.0-3.0-3.14","b8bkkf82vsyj4ob","practice_cue","59dc458f77860e000151240e","5f60e3c0a3b16e07647b2ff9","5f64c2c6ec7572026fabe9af","false","null","<div style=""align-items: center; display: flex; color: darkorange; font-size: 90px""><b>ø</b></div>","null","","","","forget_cue","","","","","","","","","","","","","","","",""
"html-keyboard-response","93","340350","0.0-3.0-3.0-0.15","b8bkkf82vsyj4ob","practice_cue","59dc458f77860e000151240e","5f60e3c0a3b16e07647b2ff9","5f64c2c6ec7572026fabe9af","false","null","<span style=""color: black; font-size: 48px"">M + N</span>","null","","","","resp_prompt","","","","","","","","","","","","","","","",""
"categorize-image","94","341036","0.0-3.0-3.0-1.15","b8bkkf82vsyj4ob","practice_cue","59dc458f77860e000151240e","5f60e3c0a3b16e07647b2ff9","5f64c2c6ec7572026fabe9af","true","684","./Stimuli/ImagesPractice/LM55.jpg","83","","","","test","true","M + N","83","","LM","LM55.jpg","remember","old","32","2","practice_forget","left","","","",""
"html-keyboard-response","95","343036","0.0-3.0-3.0-3.15","b8bkkf82vsyj4ob","practice_cue","59dc458f77860e000151240e","5f60e3c0a3b16e07647b2ff9","5f64c2c6ec7572026fabe9af","false","null","<div style=""align-items: center; display: flex; color: dodgerblue; font-size: 90px""><b>o</b></div>","null","","","","forget_cue","","","","","","","","","","","","","","","",""
"html-keyboard-response","96","348482","0.0-3.0-4.0","b8bkkf82vsyj4ob","break","59dc458f77860e000151240e","5f60e3c0a3b16e07647b2ff9","5f64c2c6ec7572026fabe9af","false","5444","<p style='font-size: 32px;'>Break</><br><br><br><br><br><p style='font-size: 24px;'>In the last block, you committed 0 errors and did not respond in time on 0 trials.
</p><p style='font-size: 24px;'>Try to respond as fast and accurately as possible in the next block as well! </p><p style='font-size: 24px;'>Press SPACE to continue.</p>","32","","","","","","","","","","","","","","","","","","","",""
"html-keyboard-response","97","375834","0.0-3.0-5.0","b8bkkf82vsyj4ob","instructions","59dc458f77860e000151240e","5f60e3c0a3b16e07647b2ff9","5f64c2c6ec7572026fabe9af","false","27351","<div align=left> Now, to practice, we kindly ask you to remember as many of the to-be-remembered pictures<br>of the previous learning phase as possible.<br><br>The pictures you were instructed to remember were the pictures followed by a <span style='color: dodgerblue; font-size: 28px'>O</span>.<br><br>In this memory test phase, you will also see some new pictures.<br>It is your task to remember whether you were presented with this specific picture in this study so far or not.<br>If you recognize an object (you have already seen it in this study), it is an OLD object. <br>If you do not recognize an object (you have NOT seen it in this study), it is a NEW object. <br><strong> Attention</strong>: As already mentioned, <span style='color: darkorange; font-size:28px'>Ø</span>-pictures will <strong>never</strong> appear in this memory test (neither as new objects). <br><br>Press SPACE to continue. </div>","32","","","","","","","","","","","","","","","","","","","",""
"html-keyboard-response","98","412015","0.0-3.0-6.0","b8bkkf82vsyj4ob","instructions","59dc458f77860e000151240e","5f60e3c0a3b16e07647b2ff9","5f64c2c6ec7572026fabe9af","false","36179","<div align=left> M and N no longer will appear on the left/right of the fixation cross. <br>Instead there will be a note at the bottom of the left or right side  <br>indicating which key you should press for an old or new object:  <br> <br>Press the <strong>right</strong> key to classify an object as <strong>old</strong> and press the <strong>left</strong>, to classify an object as <strong>new</strong>.<br>Please classify the objects as new/old by again placing your index finger on the 'S' and 'L' keys <br>and press them accordingly.<br><br><strong>Old:</strong> This object has been presented before. <br><strong>New:</strong> This object has <strong>not</strong> been presented.<br><br>Now please put your right and left index fingers on the 'S' and 'L' keys of your keyboard. <br>Please respond as fast and as accurately as possible!<br><br>Press SPACE to continue. </div>","32","","","","","","","","","","","","","","","","","","","",""
"categorize-image","99","414163","0.0-3.0-7.0-0.0","b8bkkf82vsyj4ob","practice_recog","59dc458f77860e000151240e","5f60e3c0a3b16e07647b2ff9","5f64c2c6ec7572026fabe9af","true","1646","./Stimuli/ImagesPractice/SM35.jpg","83","","","","test","true","","83","","SM","SM35.jpg","","new","33","3","practice_recog","left","","","",""
"categorize-image","100","415802","0.0-3.0-7.0-0.1","b8bkkf82vsyj4ob","practice_recog","59dc458f77860e000151240e","5f60e3c0a3b16e07647b2ff9","5f64c2c6ec7572026fabe9af","true","1138","./Stimuli/ImagesPractice/SN75.jpg","83","","","","test","true","","83","","SN","SN75.jpg","","new","34","3","practice_recog","left","","","",""
"categorize-image","101","417310","0.0-3.0-7.0-0.2","b8bkkf82vsyj4ob","practice_recog","59dc458f77860e000151240e","5f60e3c0a3b16e07647b2ff9","5f64c2c6ec7572026fabe9af","true","1007","./Stimuli/ImagesPractice/LM230.jpg","76","","","","test","true","","76","","LM","LM230.jpg","","old","35","3","practice_recog","right","","","",""
"categorize-image","102","419299","0.0-3.0-7.0-0.3","b8bkkf82vsyj4ob","practice_recog","59dc458f77860e000151240e","5f60e3c0a3b16e07647b2ff9","5f64c2c6ec7572026fabe9af","true","1487","./Stimuli/ImagesPractice/LM147.jpg","83","","","","test","true","","83","","LM","LM147.jpg","","new","36","3","practice_recog","left","","","",""
"categorize-image","103","420686","0.0-3.0-7.0-0.4","b8bkkf82vsyj4ob","practice_recog","59dc458f77860e000151240e","5f60e3c0a3b16e07647b2ff9","5f64c2c6ec7572026fabe9af","true","884","./Stimuli/ImagesPractice/SM98.jpg","76","","","","test","true","","76","","SM","SM98.jpg","","old","37","3","practice_recog","right","","","",""
"categorize-image","104","421980","0.0-3.0-7.0-0.5","b8bkkf82vsyj4ob","practice_recog","59dc458f77860e000151240e","5f60e3c0a3b16e07647b2ff9","5f64c2c6ec7572026fabe9af","true","791","./Stimuli/ImagesPractice/SM62.jpg","76","","","","test","true","","76","","SM","SM62.jpg","","old","38","3","practice_recog","right","","","",""
"categorize-image","105","423317","0.0-3.0-7.0-0.6","b8bkkf82vsyj4ob","practice_recog","59dc458f77860e000151240e","5f60e3c0a3b16e07647b2ff9","5f64c2c6ec7572026fabe9af","true","835","./Stimuli/ImagesPractice/SN205.jpg","83","","","","test","true","","83","","SN","SN205.jpg","","new","39","3","practice_recog","left","","","",""
"categorize-image","106","424676","0.0-3.0-7.0-0.7","b8bkkf82vsyj4ob","practice_recog","59dc458f77860e000151240e","5f60e3c0a3b16e07647b2ff9","5f64c2c6ec7572026fabe9af","true","857","./Stimuli/ImagesPractice/SN221.jpg","76","","","","test","true","","76","","SN","SN221.jpg","","old","40","3","practice_recog","right","","","",""
"categorize-image","107","426062","0.0-3.0-7.0-0.8","b8bkkf82vsyj4ob","practice_recog","59dc458f77860e000151240e","5f60e3c0a3b16e07647b2ff9","5f64c2c6ec7572026fabe9af","true","885","./Stimuli/ImagesPractice/LM55.jpg","76","","","","test","true","","76","","LM","LM55.jpg","","old","41","3","practice_recog","right","","","",""
"categorize-image","108","427449","0.0-3.0-7.0-0.9","b8bkkf82vsyj4ob","practice_recog","59dc458f77860e000151240e","5f60e3c0a3b16e07647b2ff9","5f64c2c6ec7572026fabe9af","true","887","./Stimuli/ImagesPractice/LN17.jpg","83","","","","test","true","","83","","LN","LN17.jpg","","new","42","3","practice_recog","left","","","",""
"categorize-image","109","428691","0.0-3.0-7.0-0.10","b8bkkf82vsyj4ob","practice_recog","59dc458f77860e000151240e","5f60e3c0a3b16e07647b2ff9","5f64c2c6ec7572026fabe9af","true","739","./Stimuli/ImagesPractice/LN15.jpg","76","","","","test","true","","76","","LN","LN15.jpg","","old","43","3","practice_recog","right","","","",""
"categorize-image","110","429980","0.0-3.0-7.0-0.11","b8bkkf82vsyj4ob","practice_recog","59dc458f77860e000151240e","5f60e3c0a3b16e07647b2ff9","5f64c2c6ec7572026fabe9af","true","787","./Stimuli/ImagesPractice/LN72.jpg","76","","","","test","true","","76","","LN","LN72.jpg","","old","44","3","practice_recog","right","","","",""
"categorize-image","111","431229","0.0-3.0-7.0-0.12","b8bkkf82vsyj4ob","practice_recog","59dc458f77860e000151240e","5f60e3c0a3b16e07647b2ff9","5f64c2c6ec7572026fabe9af","true","747","./Stimuli/ImagesPractice/LN4.jpg","83","","","","test","true","","83","","LN","LN4.jpg","","new","45","3","practice_recog","left","","","",""
"categorize-image","112","432534","0.0-3.0-7.0-0.13","b8bkkf82vsyj4ob","practice_recog","59dc458f77860e000151240e","5f60e3c0a3b16e07647b2ff9","5f64c2c6ec7572026fabe9af","true","803","./Stimuli/ImagesPractice/LM239.jpg","83","","","","test","true","","83","","LM","LM239.jpg","","new","46","3","practice_recog","left","","","",""
"categorize-image","113","433705","0.0-3.0-7.0-0.14","b8bkkf82vsyj4ob","practice_recog","59dc458f77860e000151240e","5f60e3c0a3b16e07647b2ff9","5f64c2c6ec7572026fabe9af","true","670","./Stimuli/ImagesPractice/LM224.jpg","76","","","","test","true","","76","","LM","LM224.jpg","","old","47","3","practice_recog","right","","","",""
"categorize-image","114","434971","0.0-3.0-7.0-0.15","b8bkkf82vsyj4ob","practice_recog","59dc458f77860e000151240e","5f60e3c0a3b16e07647b2ff9","5f64c2c6ec7572026fabe9af","true","762","./Stimuli/ImagesPractice/SN220.jpg","83","","","","test","true","","83","","SN","SN220.jpg","","new","48","3","practice_recog","left","","","",""
"html-keyboard-response","115","443559","0.0-3.0-8.0","b8bkkf82vsyj4ob","instructions","59dc458f77860e000151240e","5f60e3c0a3b16e07647b2ff9","5f64c2c6ec7572026fabe9af","false","8589","<div align=left> Great!<br><br>Are you ready to continue?<br>If you want to reread the instructions and redo the practice trials, please <br>press „Z“.<br><br>You can proceed when you are ready.<br><br>After the presentation of each object, you will receive an instruction whether to <br>remember or to forget the object.<br>We will test your memory of the following pictures only at the very end of <br>the experiment after all learning blocks are completed. <br><br>Press SPACE to CONTINUE when you are ready. </div>","32","","","","","","","","","","","","","","","","","","","",""
"html-keyboard-response","116","453991","0.0-4.0-0.0","b8bkkf82vsyj4ob","instructions","59dc458f77860e000151240e","5f60e3c0a3b16e07647b2ff9","5f64c2c6ec7572026fabe9af","false","10431","<div align=left> The actual experiment is about to start.<br>The practice trials are over!<br><br>Please always respond both fast and accurately!<br><br>Remember: <br> <br><li> Please place your index fingers on the <strong>'S'</strong> and <strong>'L'</strong> keys <br>to respond as fast and accurately as possible.</li><li> Every picture can be classified as either mechanical or non-mechanical.</li><li> If you do not respond in time or commit an error, you will receive a corresponding feedback.<br> Please try to respond as <strong> fast </strong> and as <strong> accurately as possible </strong>.</li><li> Remember the <span style='color: dodgerblue; font-size: 28px'>O</span> pictures. <br></li><li> Please minimize distractions and stay focused. </li><br><br>Press SPACE to START.</div>","32","","","","","","","","","","","","","","","","","","","",""
"html-keyboard-response","117","454692","0.0-4.0-1.0-0.0","b8bkkf82vsyj4ob","prime","59dc458f77860e000151240e","5f60e3c0a3b16e07647b2ff9","5f64c2c6ec7572026fabe9af","false","null","<span style=""color: black; font-size: 48px"">M + N</span>","null","","","","resp_prompt","","","","","","","","","","","","","","","",""
"categorize-image","118","455500","0.0-4.0-1.0-1.0","b8bkkf82vsyj4ob","prime","59dc458f77860e000151240e","5f60e3c0a3b16e07647b2ff9","5f64c2c6ec7572026fabe9af","true","806","./Stimuli/SelectedImages/SN/SN60.bmp","76","","","","test","true","M + N","76","repetition","SN","SN60.bmp","remember","","49","3","prime1","right","","","",""
"html-keyboard-response","119","457501","0.0-4.0-1.0-3.0","b8bkkf82vsyj4ob","prime","59dc458f77860e000151240e","5f60e3c0a3b16e07647b2ff9","5f64c2c6ec7572026fabe9af","false","null","<div style=""align-items: center; display: flex; color: dodgerblue; font-size: 90px""><b>o</b></div>","null","","","","forget_cue","","","","","","","","","","","","","","","",""
"html-keyboard-response","120","458203","0.0-4.0-1.0-0.1","b8bkkf82vsyj4ob","prime","59dc458f77860e000151240e","5f60e3c0a3b16e07647b2ff9","5f64c2c6ec7572026fabe9af","false","null","<span style=""color: black; font-size: 48px"">M + N</span>","null","","","","resp_prompt","","","","","","","","","","","","","","","",""
"categorize-image","121","459278","0.0-4.0-1.0-1.1","b8bkkf82vsyj4ob","prime","59dc458f77860e000151240e","5f60e3c0a3b16e07647b2ff9","5f64c2c6ec7572026fabe9af","true","1076","./Stimuli/SelectedImages/SN/SN64.bmp","76","","","","test","true","M + N","76","repetition","SN","SN64.bmp","forget","","50","3","prime1","right","","","",""
"html-keyboard-response","122","461280","0.0-4.0-1.0-3.1","b8bkkf82vsyj4ob","prime","59dc458f77860e000151240e","5f60e3c0a3b16e07647b2ff9","5f64c2c6ec7572026fabe9af","false","null","<div style=""align-items: center; display: flex; color: darkorange; font-size: 90px""><b>ø</b></div>","null","","","","forget_cue","","","","","","","","","","","","","","","",""
"html-keyboard-response","123","461982","0.0-4.0-1.0-0.2","b8bkkf82vsyj4ob","prime","59dc458f77860e000151240e","5f60e3c0a3b16e07647b2ff9","5f64c2c6ec7572026fabe9af","false","null","<span style=""color: black; font-size: 48px"">N + M</span>","null","","","","resp_prompt","","","","","","","","","","","","","","","",""
"categorize-image","124","462716","0.0-4.0-1.0-1.2","b8bkkf82vsyj4ob","prime","59dc458f77860e000151240e","5f60e3c0a3b16e07647b2ff9","5f64c2c6ec7572026fabe9af","true","733","./Stimuli/SelectedImages/SM/SM205.bmp","76","","","","test","true","N + M","76","switch","SM","SM205.bmp","remember","","51","3","prime1","right","","","",""
"html-keyboard-response","125","464717","0.0-4.0-1.0-3.2","b8bkkf82vsyj4ob","prime","59dc458f77860e000151240e","5f60e3c0a3b16e07647b2ff9","5f64c2c6ec7572026fabe9af","false","null","<div style=""align-items: center; display: flex; color: dodgerblue; font-size: 90px""><b>o</b></div>","null","","","","forget_cue","","","","","","","","","","","","","","","",""
"html-keyboard-response","126","465417","0.0-4.0-1.0-0.3","b8bkkf82vsyj4ob","prime","59dc458f77860e000151240e","5f60e3c0a3b16e07647b2ff9","5f64c2c6ec7572026fabe9af","false","null","<span style=""color: black; font-size: 48px"">N + M</span>","null","","","","resp_prompt","","","","","","","","","","","","","","","",""
"categorize-image","127","466075","0.0-4.0-1.0-1.3","b8bkkf82vsyj4ob","prime","59dc458f77860e000151240e","5f60e3c0a3b16e07647b2ff9","5f64c2c6ec7572026fabe9af","true","658","./Stimuli/SelectedImages/LN/LN131.bmp","83","","","","test","true","N + M","83","repetition","LN","LN131.bmp","remember","","52","3","prime1","left","","","",""
"html-keyboard-response","128","468077","0.0-4.0-1.0-3.3","b8bkkf82vsyj4ob","prime","59dc458f77860e000151240e","5f60e3c0a3b16e07647b2ff9","5f64c2c6ec7572026fabe9af","false","null","<div style=""align-items: center; display: flex; color: dodgerblue; font-size: 90px""><b>o</b></div>","null","","","","forget_cue","","","","","","","","","","","","","","","",""
"html-keyboard-response","129","468780","0.0-4.0-1.0-0.4","b8bkkf82vsyj4ob","prime","59dc458f77860e000151240e","5f60e3c0a3b16e07647b2ff9","5f64c2c6ec7572026fabe9af","false","null","<span style=""color: black; font-size: 48px"">N + M</span>","null","","","","resp_prompt","","","","","","","","","","","","","","","",""
"categorize-image","130","469467","0.0-4.0-1.0-1.4","b8bkkf82vsyj4ob","prime","59dc458f77860e000151240e","5f60e3c0a3b16e07647b2ff9","5f64c2c6ec7572026fabe9af","true","687","./Stimuli/SelectedImages/SM/SM148.bmp","76","","","","test","true","N + M","76","repetition","SM","SM148.bmp","remember","","53","3","prime1","right","","","",""
"html-keyboard-response","131","471468","0.0-4.0-1.0-3.4","b8bkkf82vsyj4ob","prime","59dc458f77860e000151240e","5f60e3c0a3b16e07647b2ff9","5f64c2c6ec7572026fabe9af","false","null","<div style=""align-items: center; display: flex; color: dodgerblue; font-size: 90px""><b>o</b></div>","null","","","","forget_cue","","","","","","","","","","","","","","","",""
"html-keyboard-response","132","472169","0.0-4.0-1.0-0.5","b8bkkf82vsyj4ob","prime","59dc458f77860e000151240e","5f60e3c0a3b16e07647b2ff9","5f64c2c6ec7572026fabe9af","false","null","<span style=""color: black; font-size: 48px"">N + M</span>","null","","","","resp_prompt","","","","","","","","","","","","","","","",""
"categorize-image","133","472842","0.0-4.0-1.0-1.5","b8bkkf82vsyj4ob","prime","59dc458f77860e000151240e","5f60e3c0a3b16e07647b2ff9","5f64c2c6ec7572026fabe9af","true","672","./Stimuli/SelectedImages/SN/SN128.bmp","83","","","","test","true","N + M","83","repetition","SN","SN128.bmp","forget","","54","3","prime1","left","","","",""
"html-keyboard-response","134","474844","0.0-4.0-1.0-3.5","b8bkkf82vsyj4ob","prime","59dc458f77860e000151240e","5f60e3c0a3b16e07647b2ff9","5f64c2c6ec7572026fabe9af","false","null","<div style=""align-items: center; display: flex; color: darkorange; font-size: 90px""><b>ø</b></div>","null","","","","forget_cue","","","","","","","","","","","","","","","",""
"html-keyboard-response","135","475545","0.0-4.0-1.0-0.6","b8bkkf82vsyj4ob","prime","59dc458f77860e000151240e","5f60e3c0a3b16e07647b2ff9","5f64c2c6ec7572026fabe9af","false","null","<span style=""color: black; font-size: 48px"">N + M</span>","null","","","","resp_prompt","","","","","","","","","","","","","","","",""
"categorize-image","136","476238","0.0-4.0-1.0-1.6","b8bkkf82vsyj4ob","prime","59dc458f77860e000151240e","5f60e3c0a3b16e07647b2ff9","5f64c2c6ec7572026fabe9af","true","693","./Stimuli/SelectedImages/LM/LM59.bmp","76","","","","test","true","N + M","76","switch","LM","LM59.bmp","remember","","55","3","prime1","right","","","",""
"html-keyboard-response","137","478239","0.0-4.0-1.0-3.6","b8bkkf82vsyj4ob","prime","59dc458f77860e000151240e","5f60e3c0a3b16e07647b2ff9","5f64c2c6ec7572026fabe9af","false","null","<div style=""align-items: center; display: flex; color: dodgerblue; font-size: 90px""><b>o</b></div>","null","","","","forget_cue","","","","","","","","","","","","","","","",""
"html-keyboard-response","138","478940","0.0-4.0-1.0-0.7","b8bkkf82vsyj4ob","prime","59dc458f77860e000151240e","5f60e3c0a3b16e07647b2ff9","5f64c2c6ec7572026fabe9af","false","null","<span style=""color: black; font-size: 48px"">N + M</span>","null","","","","resp_prompt","","","","","","","","","","","","","","","",""
"categorize-image","139","479672","0.0-4.0-1.0-1.7","b8bkkf82vsyj4ob","prime","59dc458f77860e000151240e","5f60e3c0a3b16e07647b2ff9","5f64c2c6ec7572026fabe9af","true","730","./Stimuli/SelectedImages/LM/LM129.bmp","76","","","","test","true","N + M","76","switch","LM","LM129.bmp","remember","","56","3","prime1","right","","","",""
"html-keyboard-response","140","481672","0.0-4.0-1.0-3.7","b8bkkf82vsyj4ob","prime","59dc458f77860e000151240e","5f60e3c0a3b16e07647b2ff9","5f64c2c6ec7572026fabe9af","false","null","<div style=""align-items: center; display: flex; color: dodgerblue; font-size: 90px""><b>o</b></div>","null","","","","forget_cue","","","","","","","","","","","","","","","",""
"html-keyboard-response","141","482375","0.0-4.0-1.0-0.8","b8bkkf82vsyj4ob","prime","59dc458f77860e000151240e","5f60e3c0a3b16e07647b2ff9","5f64c2c6ec7572026fabe9af","false","null","<span style=""color: black; font-size: 48px"">M + N</span>","null","","","","resp_prompt","","","","","","","","","","","","","","","",""
"categorize-image","142","483022","0.0-4.0-1.0-1.8","b8bkkf82vsyj4ob","prime","59dc458f77860e000151240e","5f60e3c0a3b16e07647b2ff9","5f64c2c6ec7572026fabe9af","true","646","./Stimuli/SelectedImages/SM/SM74.bmp","83","","","","test","true","M + N","83","switch","SM","SM74.bmp","forget","","57","3","prime1","left","","","",""
"html-keyboard-response","143","485024","0.0-4.0-1.0-3.8","b8bkkf82vsyj4ob","prime","59dc458f77860e000151240e","5f60e3c0a3b16e07647b2ff9","5f64c2c6ec7572026fabe9af","false","null","<div style=""align-items: center; display: flex; color: darkorange; font-size: 90px""><b>ø</b></div>","null","","","","forget_cue","","","","","","","","","","","","","","","",""
"html-keyboard-response","144","485726","0.0-4.0-1.0-0.9","b8bkkf82vsyj4ob","prime","59dc458f77860e000151240e","5f60e3c0a3b16e07647b2ff9","5f64c2c6ec7572026fabe9af","false","null","<span style=""color: black; font-size: 48px"">M + N</span>","null","","","","resp_prompt","","","","","","","","","","","","","","","",""
"categorize-image","145","486704","0.0-4.0-1.0-1.9","b8bkkf82vsyj4ob","prime","59dc458f77860e000151240e","5f60e3c0a3b16e07647b2ff9","5f64c2c6ec7572026fabe9af","true","977","./Stimuli/SelectedImages/SN/SN179.bmp","76","","","","test","true","M + N","76","repetition","SN","SN179.bmp","remember","","58","3","prime1","right","","","",""
"html-keyboard-response","146","488705","0.0-4.0-1.0-3.9","b8bkkf82vsyj4ob","prime","59dc458f77860e000151240e","5f60e3c0a3b16e07647b2ff9","5f64c2c6ec7572026fabe9af","false","null","<div style=""align-items: center; display: flex; color: dodgerblue; font-size: 90px""><b>o</b></div>","null","","","","forget_cue","","","","","","","","","","","","","","","",""
"html-keyboard-response","147","489406","0.0-4.0-1.0-0.10","b8bkkf82vsyj4ob","prime","59dc458f77860e000151240e","5f60e3c0a3b16e07647b2ff9","5f64c2c6ec7572026fabe9af","false","null","<span style=""color: black; font-size: 48px"">M + N</span>","null","","","","resp_prompt","","","","","","","","","","","","","","","",""
"categorize-image","148","490152","0.0-4.0-1.0-1.10","b8bkkf82vsyj4ob","prime","59dc458f77860e000151240e","5f60e3c0a3b16e07647b2ff9","5f64c2c6ec7572026fabe9af","true","745","./Stimuli/SelectedImages/SM/SM184.bmp","83","","","","test","true","M + N","83","repetition","SM","SM184.bmp","forget","","59","3","prime1","left","","","",""
"html-keyboard-response","149","492154","0.0-4.0-1.0-3.10","b8bkkf82vsyj4ob","prime","59dc458f77860e000151240e","5f60e3c0a3b16e07647b2ff9","5f64c2c6ec7572026fabe9af","false","null","<div style=""align-items: center; display: flex; color: darkorange; font-size: 90px""><b>ø</b></div>","null","","","","forget_cue","","","","","","","","","","","","","","","",""
"html-keyboard-response","150","492854","0.0-4.0-1.0-0.11","b8bkkf82vsyj4ob","prime","59dc458f77860e000151240e","5f60e3c0a3b16e07647b2ff9","5f64c2c6ec7572026fabe9af","false","null","<span style=""color: black; font-size: 48px"">N + M</span>","null","","","","resp_prompt","","","","","","","","","","","","","","","",""
"categorize-image","151","493565","0.0-4.0-1.0-1.11","b8bkkf82vsyj4ob","prime","59dc458f77860e000151240e","5f60e3c0a3b16e07647b2ff9","5f64c2c6ec7572026fabe9af","true","711","./Stimuli/SelectedImages/LM/LM167.bmp","76","","","","test","true","N + M","76","repetition","LM","LM167.bmp","remember","","60","3","prime1","right","","","",""
"html-keyboard-response","152","495566","0.0-4.0-1.0-3.11","b8bkkf82vsyj4ob","prime","59dc458f77860e000151240e","5f60e3c0a3b16e07647b2ff9","5f64c2c6ec7572026fabe9af","false","null","<div style=""align-items: center; display: flex; color: dodgerblue; font-size: 90px""><b>o</b></div>","null","","","","forget_cue","","","","","","","","","","","","","","","",""
"html-keyboard-response","153","496267","0.0-4.0-1.0-0.12","b8bkkf82vsyj4ob","prime","59dc458f77860e000151240e","5f60e3c0a3b16e07647b2ff9","5f64c2c6ec7572026fabe9af","false","null","<span style=""color: black; font-size: 48px"">N + M</span>","null","","","","resp_prompt","","","","","","","","","","","","","","","",""
"categorize-image","154","497009","0.0-4.0-1.0-1.12","b8bkkf82vsyj4ob","prime","59dc458f77860e000151240e","5f60e3c0a3b16e07647b2ff9","5f64c2c6ec7572026fabe9af","true","742","./Stimuli/SelectedImages/LN/LN149.bmp","83","","","","test","true","N + M","83","repetition","LN","LN149.bmp","forget","","61","3","prime1","left","","","",""
"html-keyboard-response","155","499011","0.0-4.0-1.0-3.12","b8bkkf82vsyj4ob","prime","59dc458f77860e000151240e","5f60e3c0a3b16e07647b2ff9","5f64c2c6ec7572026fabe9af","false","null","<div style=""align-items: center; display: flex; color: darkorange; font-size: 90px""><b>ø</b></div>","null","","","","forget_cue","","","","","","","","","","","","","","","",""
"html-keyboard-response","156","499711","0.0-4.0-1.0-0.13","b8bkkf82vsyj4ob","prime","59dc458f77860e000151240e","5f60e3c0a3b16e07647b2ff9","5f64c2c6ec7572026fabe9af","false","null","<span style=""color: black; font-size: 48px"">N + M</span>","null","","","","resp_prompt","","","","","","","","","","","","","","","",""
"categorize-image","157","500487","0.0-4.0-1.0-1.13","b8bkkf82vsyj4ob","prime","59dc458f77860e000151240e","5f60e3c0a3b16e07647b2ff9","5f64c2c6ec7572026fabe9af","true","774","./Stimuli/SelectedImages/SN/SN182.bmp","83","","","","test","true","N + M","83","repetition","SN","SN182.bmp","remember","","62","3","prime1","left","","","",""
"html-keyboard-response","158","502487","0.0-4.0-1.0-3.13","b8bkkf82vsyj4ob","prime","59dc458f77860e000151240e","5f60e3c0a3b16e07647b2ff9","5f64c2c6ec7572026fabe9af","false","null","<div style=""align-items: center; display: flex; color: dodgerblue; font-size: 90px""><b>o</b></div>","null","","","","forget_cue","","","","","","","","","","","","","","","",""
"html-keyboard-response","159","503188","0.0-4.0-1.0-0.14","b8bkkf82vsyj4ob","prime","59dc458f77860e000151240e","5f60e3c0a3b16e07647b2ff9","5f64c2c6ec7572026fabe9af","false","null","<span style=""color: black; font-size: 48px"">M + N</span>","null","","","","resp_prompt","","","","","","","","","","","","","","","",""
"categorize-image","160","503977","0.0-4.0-1.0-1.14","b8bkkf82vsyj4ob","prime","59dc458f77860e000151240e","5f60e3c0a3b16e07647b2ff9","5f64c2c6ec7572026fabe9af","true","787","./Stimuli/SelectedImages/SM/SM73.bmp","83","","","","test","true","M + N","83","switch","SM","SM73.bmp","remember","","63","3","prime1","left","","","",""
"html-keyboard-response","161","505977","0.0-4.0-1.0-3.14","b8bkkf82vsyj4ob","prime","59dc458f77860e000151240e","5f60e3c0a3b16e07647b2ff9","5f64c2c6ec7572026fabe9af","false","null","<div style=""align-items: center; display: flex; color: dodgerblue; font-size: 90px""><b>o</b></div>","null","","","","forget_cue","","","","","","","","","","","","","","","",""
"html-keyboard-response","162","506678","0.0-4.0-1.0-0.15","b8bkkf82vsyj4ob","prime","59dc458f77860e000151240e","5f60e3c0a3b16e07647b2ff9","5f64c2c6ec7572026fabe9af","false","null","<span style=""color: black; font-size: 48px"">N + M</span>","null","","","","resp_prompt","","","","","","","","","","","","","","","",""
"categorize-image","163","507426","0.0-4.0-1.0-1.15","b8bkkf82vsyj4ob","prime","59dc458f77860e000151240e","5f60e3c0a3b16e07647b2ff9","5f64c2c6ec7572026fabe9af","true","747","./Stimuli/SelectedImages/SN/SN155.bmp","83","","","","test","true","N + M","83","switch","SN","SN155.bmp","remember","","64","3","prime1","left","","","",""
"html-keyboard-response","164","509425","0.0-4.0-1.0-3.15","b8bkkf82vsyj4ob","prime","59dc458f77860e000151240e","5f60e3c0a3b16e07647b2ff9","5f64c2c6ec7572026fabe9af","false","null","<div style=""align-items: center; display: flex; color: dodgerblue; font-size: 90px""><b>o</b></div>","null","","","","forget_cue","","","","","","","","","","","","","","","",""
"html-keyboard-response","165","510127","0.0-4.0-1.0-0.16","b8bkkf82vsyj4ob","prime","59dc458f77860e000151240e","5f60e3c0a3b16e07647b2ff9","5f64c2c6ec7572026fabe9af","false","null","<span style=""color: black; font-size: 48px"">N + M</span>","null","","","","resp_prompt","","","","","","","","","","","","","","","",""
"categorize-image","166","510805","0.0-4.0-1.0-1.16","b8bkkf82vsyj4ob","prime","59dc458f77860e000151240e","5f60e3c0a3b16e07647b2ff9","5f64c2c6ec7572026fabe9af","true","677","./Stimuli/SelectedImages/SN/SN27.bmp","83","","","","test","true","N + M","83","repetition","SN","SN27.bmp","remember","","65","3","prime1","left","","","",""
"html-keyboard-response","167","512806","0.0-4.0-1.0-3.16","b8bkkf82vsyj4ob","prime","59dc458f77860e000151240e","5f60e3c0a3b16e07647b2ff9","5f64c2c6ec7572026fabe9af","false","null","<div style=""align-items: center; display: flex; color: dodgerblue; font-size: 90px""><b>o</b></div>","null","","","","forget_cue","","","","","","","","","","","","","","","",""
"html-keyboard-response","168","513508","0.0-4.0-1.0-0.17","b8bkkf82vsyj4ob","prime","59dc458f77860e000151240e","5f60e3c0a3b16e07647b2ff9","5f64c2c6ec7572026fabe9af","false","null","<span style=""color: black; font-size: 48px"">M + N</span>","null","","","","resp_prompt","","","","","","","","","","","","","","","",""
"categorize-image","169","514535","0.0-4.0-1.0-1.17","b8bkkf82vsyj4ob","prime","59dc458f77860e000151240e","5f60e3c0a3b16e07647b2ff9","5f64c2c6ec7572026fabe9af","true","1027","./Stimuli/SelectedImages/SN/SN52.bmp","76","","","","test","true","M + N","76","switch","SN","SN52.bmp","forget","","66","3","prime1","right","","","",""
"html-keyboard-response","170","516537","0.0-4.0-1.0-3.17","b8bkkf82vsyj4ob","prime","59dc458f77860e000151240e","5f60e3c0a3b16e07647b2ff9","5f64c2c6ec7572026fabe9af","false","null","<div style=""align-items: center; display: flex; color: darkorange; font-size: 90px""><b>ø</b></div>","null","","","","forget_cue","","","","","","","","","","","","","","","",""
"html-keyboard-response","171","517238","0.0-4.0-1.0-0.18","b8bkkf82vsyj4ob","prime","59dc458f77860e000151240e","5f60e3c0a3b16e07647b2ff9","5f64c2c6ec7572026fabe9af","false","null","<span style=""color: black; font-size: 48px"">M + N</span>","null","","","","resp_prompt","","","","","","","","","","","","","","","",""
"categorize-image","172","518215","0.0-4.0-1.0-1.18","b8bkkf82vsyj4ob","prime","59dc458f77860e000151240e","5f60e3c0a3b16e07647b2ff9","5f64c2c6ec7572026fabe9af","true","977","./Stimuli/SelectedImages/LM/LM58.bmp","83","","","","test","true","M + N","83","switch","LM","LM58.bmp","forget","","67","3","prime1","left","","","",""
"html-keyboard-response","173","520217","0.0-4.0-1.0-3.18","b8bkkf82vsyj4ob","prime","59dc458f77860e000151240e","5f60e3c0a3b16e07647b2ff9","5f64c2c6ec7572026fabe9af","false","null","<div style=""align-items: center; display: flex; color: darkorange; font-size: 90px""><b>ø</b></div>","null","","","","forget_cue","","","","","","","","","","","","","","","",""
"html-keyboard-response","174","520918","0.0-4.0-1.0-0.19","b8bkkf82vsyj4ob","prime","59dc458f77860e000151240e","5f60e3c0a3b16e07647b2ff9","5f64c2c6ec7572026fabe9af","false","null","<span style=""color: black; font-size: 48px"">N + M</span>","null","","","","resp_prompt","","","","","","","","","","","","","","","",""
"categorize-image","175","521616","0.0-4.0-1.0-1.19","b8bkkf82vsyj4ob","prime","59dc458f77860e000151240e","5f60e3c0a3b16e07647b2ff9","5f64c2c6ec7572026fabe9af","true","698","./Stimuli/SelectedImages/LN/LN28.bmp","83","","","","test","true","N + M","83","repetition","LN","LN28.bmp","forget","","68","3","prime1","left","","","",""
"html-keyboard-response","176","523616","0.0-4.0-1.0-3.19","b8bkkf82vsyj4ob","prime","59dc458f77860e000151240e","5f60e3c0a3b16e07647b2ff9","5f64c2c6ec7572026fabe9af","false","null","<div style=""align-items: center; display: flex; color: darkorange; font-size: 90px""><b>ø</b></div>","null","","","","forget_cue","","","","","","","","","","","","","","","",""
"html-keyboard-response","177","524318","0.0-4.0-1.0-0.20","b8bkkf82vsyj4ob","prime","59dc458f77860e000151240e","5f60e3c0a3b16e07647b2ff9","5f64c2c6ec7572026fabe9af","false","null","<span style=""color: black; font-size: 48px"">N + M</span>","null","","","","resp_prompt","","","","","","","","","","","","","","","",""
"categorize-image","178","525305","0.0-4.0-1.0-1.20","b8bkkf82vsyj4ob","prime","59dc458f77860e000151240e","5f60e3c0a3b16e07647b2ff9","5f64c2c6ec7572026fabe9af","true","987","./Stimuli/SelectedImages/LN/LN82.bmp","83","","","","test","true","N + M","83","switch","LN","LN82.bmp","remember","","69","3","prime1","left","","","",""
"html-keyboard-response","179","527306","0.0-4.0-1.0-3.20","b8bkkf82vsyj4ob","prime","59dc458f77860e000151240e","5f60e3c0a3b16e07647b2ff9","5f64c2c6ec7572026fabe9af","false","null","<div style=""align-items: center; display: flex; color: dodgerblue; font-size: 90px""><b>o</b></div>","null","","","","forget_cue","","","","","","","","","","","","","","","",""
"html-keyboard-response","180","528009","0.0-4.0-1.0-0.21","b8bkkf82vsyj4ob","prime","59dc458f77860e000151240e","5f60e3c0a3b16e07647b2ff9","5f64c2c6ec7572026fabe9af","false","null","<span style=""color: black; font-size: 48px"">M + N</span>","null","","","","resp_prompt","","","","","","","","","","","","","","","",""
"categorize-image","181","528888","0.0-4.0-1.0-1.21","b8bkkf82vsyj4ob","prime","59dc458f77860e000151240e","5f60e3c0a3b16e07647b2ff9","5f64c2c6ec7572026fabe9af","true","879","./Stimuli/SelectedImages/LN/LN111.bmp","76","","","","test","true","M + N","76","switch","LN","LN111.bmp","forget","","70","3","prime1","right","","","",""
"html-keyboard-response","182","530889","0.0-4.0-1.0-3.21","b8bkkf82vsyj4ob","prime","59dc458f77860e000151240e","5f60e3c0a3b16e07647b2ff9","5f64c2c6ec7572026fabe9af","false","null","<div style=""align-items: center; display: flex; color: darkorange; font-size: 90px""><b>ø</b></div>","null","","","","forget_cue","","","","","","","","","","","","","","","",""
"html-keyboard-response","183","531590","0.0-4.0-1.0-0.22","b8bkkf82vsyj4ob","prime","59dc458f77860e000151240e","5f60e3c0a3b16e07647b2ff9","5f64c2c6ec7572026fabe9af","false","null","<span style=""color: black; font-size: 48px"">M + N</span>","null","","","","resp_prompt","","","","","","","","","","","","","","","",""
"categorize-image","184","532406","0.0-4.0-1.0-1.22","b8bkkf82vsyj4ob","prime","59dc458f77860e000151240e","5f60e3c0a3b16e07647b2ff9","5f64c2c6ec7572026fabe9af","true","815","./Stimuli/SelectedImages/LN/LN59.bmp","76","","","","test","true","M + N","76","repetition","LN","LN59.bmp","remember","","71","3","prime1","right","","","",""
"html-keyboard-response","185","534407","0.0-4.0-1.0-3.22","b8bkkf82vsyj4ob","prime","59dc458f77860e000151240e","5f60e3c0a3b16e07647b2ff9","5f64c2c6ec7572026fabe9af","false","null","<div style=""align-items: center; display: flex; color: dodgerblue; font-size: 90px""><b>o</b></div>","null","","","","forget_cue","","","","","","","","","","","","","","","",""
"html-keyboard-response","186","535108","0.0-4.0-1.0-0.23","b8bkkf82vsyj4ob","prime","59dc458f77860e000151240e","5f60e3c0a3b16e07647b2ff9","5f64c2c6ec7572026fabe9af","false","null","<span style=""color: black; font-size: 48px"">M + N</span>","null","","","","resp_prompt","","","","","","","","","","","","","","","",""
"categorize-image","187","535822","0.0-4.0-1.0-1.23","b8bkkf82vsyj4ob","prime","59dc458f77860e000151240e","5f60e3c0a3b16e07647b2ff9","5f64c2c6ec7572026fabe9af","true","713","./Stimuli/SelectedImages/SM/SM76.bmp","83","","","","test","true","M + N","83","switch","SM","SM76.bmp","remember","","72","3","prime1","left","","","",""
"html-keyboard-response","188","537824","0.0-4.0-1.0-3.23","b8bkkf82vsyj4ob","prime","59dc458f77860e000151240e","5f60e3c0a3b16e07647b2ff9","5f64c2c6ec7572026fabe9af","false","null","<div style=""align-items: center; display: flex; color: dodgerblue; font-size: 90px""><b>o</b></div>","null","","","","forget_cue","","","","","","","","","","","","","","","",""
"html-keyboard-response","189","538525","0.0-4.0-1.0-0.24","b8bkkf82vsyj4ob","prime","59dc458f77860e000151240e","5f60e3c0a3b16e07647b2ff9","5f64c2c6ec7572026fabe9af","false","null","<span style=""color: black; font-size: 48px"">M + N</span>","null","","","","resp_prompt","","","","","","","","","","","","","","","",""
"categorize-image","190","539414","0.0-4.0-1.0-1.24","b8bkkf82vsyj4ob","prime","59dc458f77860e000151240e","5f60e3c0a3b16e07647b2ff9","5f64c2c6ec7572026fabe9af","true","887","./Stimuli/SelectedImages/LM/LM75.bmp","83","","","","test","true","M + N","83","switch","LM","LM75.bmp","remember","","73","3","prime1","left","","","",""
"html-keyboard-response","191","541414","0.0-4.0-1.0-3.24","b8bkkf82vsyj4ob","prime","59dc458f77860e000151240e","5f60e3c0a3b16e07647b2ff9","5f64c2c6ec7572026fabe9af","false","null","<div style=""align-items: center; display: flex; color: dodgerblue; font-size: 90px""><b>o</b></div>","null","","","","forget_cue","","","","","","","","","","","","","","","",""
"html-keyboard-response","192","542115","0.0-4.0-1.0-0.25","b8bkkf82vsyj4ob","prime","59dc458f77860e000151240e","5f60e3c0a3b16e07647b2ff9","5f64c2c6ec7572026fabe9af","false","null","<span style=""color: black; font-size: 48px"">M + N</span>","null","","","","resp_prompt","","","","","","","","","","","","","","","",""
"categorize-image","193","542720","0.0-4.0-1.0-1.25","b8bkkf82vsyj4ob","prime","59dc458f77860e000151240e","5f60e3c0a3b16e07647b2ff9","5f64c2c6ec7572026fabe9af","true","603","./Stimuli/SelectedImages/LM/LM51.bmp","83","","","","test","true","M + N","83","repetition","LM","LM51.bmp","remember","","74","3","prime1","left","","","",""
"html-keyboard-response","194","544721","0.0-4.0-1.0-3.25","b8bkkf82vsyj4ob","prime","59dc458f77860e000151240e","5f60e3c0a3b16e07647b2ff9","5f64c2c6ec7572026fabe9af","false","null","<div style=""align-items: center; display: flex; color: dodgerblue; font-size: 90px""><b>o</b></div>","null","","","","forget_cue","","","","","","","","","","","","","","","",""
"html-keyboard-response","195","545421","0.0-4.0-1.0-0.26","b8bkkf82vsyj4ob","prime","59dc458f77860e000151240e","5f60e3c0a3b16e07647b2ff9","5f64c2c6ec7572026fabe9af","false","null","<span style=""color: black; font-size: 48px"">N + M</span>","null","","","","resp_prompt","","","","","","","","","","","","","","","",""
"categorize-image","196","546165","0.0-4.0-1.0-1.26","b8bkkf82vsyj4ob","prime","59dc458f77860e000151240e","5f60e3c0a3b16e07647b2ff9","5f64c2c6ec7572026fabe9af","true","742","./Stimuli/SelectedImages/SN/SN140.bmp","83","","","","test","true","N + M","83","repetition","SN","SN140.bmp","forget","","75","3","prime1","left","","","",""
"html-keyboard-response","197","548167","0.0-4.0-1.0-3.26","b8bkkf82vsyj4ob","prime","59dc458f77860e000151240e","5f60e3c0a3b16e07647b2ff9","5f64c2c6ec7572026fabe9af","false","null","<div style=""align-items: center; display: flex; color: darkorange; font-size: 90px""><b>ø</b></div>","null","","","","forget_cue","","","","","","","","","","","","","","","",""
"html-keyboard-response","198","548868","0.0-4.0-1.0-0.27","b8bkkf82vsyj4ob","prime","59dc458f77860e000151240e","5f60e3c0a3b16e07647b2ff9","5f64c2c6ec7572026fabe9af","false","null","<span style=""color: black; font-size: 48px"">N + M</span>","null","","","","resp_prompt","","","","","","","","","","","","","","","",""
"categorize-image","199","549728","0.0-4.0-1.0-1.27","b8bkkf82vsyj4ob","prime","59dc458f77860e000151240e","5f60e3c0a3b16e07647b2ff9","5f64c2c6ec7572026fabe9af","true","859","./Stimuli/SelectedImages/SM/SM213.bmp","76","","","","test","true","N + M","76","repetition","SM","SM213.bmp","remember","","76","3","prime1","right","","","",""
"html-keyboard-response","200","551729","0.0-4.0-1.0-3.27","b8bkkf82vsyj4ob","prime","59dc458f77860e000151240e","5f60e3c0a3b16e07647b2ff9","5f64c2c6ec7572026fabe9af","false","null","<div style=""align-items: center; display: flex; color: dodgerblue; font-size: 90px""><b>o</b></div>","null","","","","forget_cue","","","","","","","","","","","","","","","",""
"html-keyboard-response","201","552430","0.0-4.0-1.0-0.28","b8bkkf82vsyj4ob","prime","59dc458f77860e000151240e","5f60e3c0a3b16e07647b2ff9","5f64c2c6ec7572026fabe9af","false","null","<span style=""color: black; font-size: 48px"">N + M</span>","null","","","","resp_prompt","","","","","","","","","","","","","","","",""
"categorize-image","202","553091","0.0-4.0-1.0-1.28","b8bkkf82vsyj4ob","prime","59dc458f77860e000151240e","5f60e3c0a3b16e07647b2ff9","5f64c2c6ec7572026fabe9af","true","660","./Stimuli/SelectedImages/LM/LM103.bmp","76","","","","test","true","N + M","76","switch","LM","LM103.bmp","forget","","77","3","prime1","right","","","",""
"html-keyboard-response","203","555093","0.0-4.0-1.0-3.28","b8bkkf82vsyj4ob","prime","59dc458f77860e000151240e","5f60e3c0a3b16e07647b2ff9","5f64c2c6ec7572026fabe9af","false","null","<div style=""align-items: center; display: flex; color: darkorange; font-size: 90px""><b>ø</b></div>","null","","","","forget_cue","","","","","","","","","","","","","","","",""
"html-keyboard-response","204","555796","0.0-4.0-1.0-0.29","b8bkkf82vsyj4ob","prime","59dc458f77860e000151240e","5f60e3c0a3b16e07647b2ff9","5f64c2c6ec7572026fabe9af","false","null","<span style=""color: black; font-size: 48px"">N + M</span>","null","","","","resp_prompt","","","","","","","","","","","","","","","",""
"categorize-image","205","556602","0.0-4.0-1.0-1.29","b8bkkf82vsyj4ob","prime","59dc458f77860e000151240e","5f60e3c0a3b16e07647b2ff9","5f64c2c6ec7572026fabe9af","true","803","./Stimuli/SelectedImages/SM/SM200.bmp","76","","","","test","true","N + M","76","switch","SM","SM200.bmp","remember","","78","3","prime1","right","","","",""
"html-keyboard-response","206","558602","0.0-4.0-1.0-3.29","b8bkkf82vsyj4ob","prime","59dc458f77860e000151240e","5f60e3c0a3b16e07647b2ff9","5f64c2c6ec7572026fabe9af","false","null","<div style=""align-items: center; display: flex; color: dodgerblue; font-size: 90px""><b>o</b></div>","null","","","","forget_cue","","","","","","","","","","","","","","","",""
"html-keyboard-response","207","559303","0.0-4.0-1.0-0.30","b8bkkf82vsyj4ob","prime","59dc458f77860e000151240e","5f60e3c0a3b16e07647b2ff9","5f64c2c6ec7572026fabe9af","false","null","<span style=""color: black; font-size: 48px"">N + M</span>","null","","","","resp_prompt","","","","","","","","","","","","","","","",""
"categorize-image","208","559953","0.0-4.0-1.0-1.30","b8bkkf82vsyj4ob","prime","59dc458f77860e000151240e","5f60e3c0a3b16e07647b2ff9","5f64c2c6ec7572026fabe9af","true","647","./Stimuli/SelectedImages/SM/SM78.bmp","76","","","","test","true","N + M","76","repetition","SM","SM78.bmp","forget","","79","3","prime1","right","","","",""
"html-keyboard-response","209","561953","0.0-4.0-1.0-3.30","b8bkkf82vsyj4ob","prime","59dc458f77860e000151240e","5f60e3c0a3b16e07647b2ff9","5f64c2c6ec7572026fabe9af","false","null","<div style=""align-items: center; display: flex; color: darkorange; font-size: 90px""><b>ø</b></div>","null","","","","forget_cue","","","","","","","","","","","","","","","",""
"html-keyboard-response","210","562653","0.0-4.0-1.0-0.31","b8bkkf82vsyj4ob","prime","59dc458f77860e000151240e","5f60e3c0a3b16e07647b2ff9","5f64c2c6ec7572026fabe9af","false","null","<span style=""color: black; font-size: 48px"">M + N</span>","null","","","","resp_prompt","","","","","","","","","","","","","","","",""
"categorize-image","211","563466","0.0-4.0-1.0-1.31","b8bkkf82vsyj4ob","prime","59dc458f77860e000151240e","5f60e3c0a3b16e07647b2ff9","5f64c2c6ec7572026fabe9af","true","812","./Stimuli/SelectedImages/LN/LN12.bmp","76","","","","test","true","M + N","76","switch","LN","LN12.bmp","forget","","80","3","prime1","right","","","",""
"html-keyboard-response","212","565468","0.0-4.0-1.0-3.31","b8bkkf82vsyj4ob","prime","59dc458f77860e000151240e","5f60e3c0a3b16e07647b2ff9","5f64c2c6ec7572026fabe9af","false","null","<div style=""align-items: center; display: flex; color: darkorange; font-size: 90px""><b>ø</b></div>","null","","","","forget_cue","","","","","","","","","","","","","","","",""
"html-keyboard-response","213","566168","0.0-4.0-1.0-0.32","b8bkkf82vsyj4ob","prime","59dc458f77860e000151240e","5f60e3c0a3b16e07647b2ff9","5f64c2c6ec7572026fabe9af","false","null","<span style=""color: black; font-size: 48px"">M + N</span>","null","","","","resp_prompt","","","","","","","","","","","","","","","",""
"categorize-image","214","566937","0.0-4.0-1.0-1.32","b8bkkf82vsyj4ob","prime","59dc458f77860e000151240e","5f60e3c0a3b16e07647b2ff9","5f64c2c6ec7572026fabe9af","true","766","./Stimuli/SelectedImages/SN/SN181.bmp","76","","","","test","true","M + N","76","switch","SN","SN181.bmp","forget","","81","3","prime1","right","","","",""
"html-keyboard-response","215","568937","0.0-4.0-1.0-3.32","b8bkkf82vsyj4ob","prime","59dc458f77860e000151240e","5f60e3c0a3b16e07647b2ff9","5f64c2c6ec7572026fabe9af","false","null","<div style=""align-items: center; display: flex; color: darkorange; font-size: 90px""><b>ø</b></div>","null","","","","forget_cue","","","","","","","","","","","","","","","",""
"html-keyboard-response","216","569639","0.0-4.0-1.0-0.33","b8bkkf82vsyj4ob","prime","59dc458f77860e000151240e","5f60e3c0a3b16e07647b2ff9","5f64c2c6ec7572026fabe9af","false","null","<span style=""color: black; font-size: 48px"">M + N</span>","null","","","","resp_prompt","","","","","","","","","","","","","","","",""
"categorize-image","217","570373","0.0-4.0-1.0-1.33","b8bkkf82vsyj4ob","prime","59dc458f77860e000151240e","5f60e3c0a3b16e07647b2ff9","5f64c2c6ec7572026fabe9af","true","732","./Stimuli/SelectedImages/LM/LM235.bmp","83","","","","test","true","M + N","83","repetition","LM","LM235.bmp","forget","","82","3","prime1","left","","","",""
"html-keyboard-response","218","572374","0.0-4.0-1.0-3.33","b8bkkf82vsyj4ob","prime","59dc458f77860e000151240e","5f60e3c0a3b16e07647b2ff9","5f64c2c6ec7572026fabe9af","false","null","<div style=""align-items: center; display: flex; color: darkorange; font-size: 90px""><b>ø</b></div>","null","","","","forget_cue","","","","","","","","","","","","","","","",""
"html-keyboard-response","219","573074","0.0-4.0-1.0-0.34","b8bkkf82vsyj4ob","prime","59dc458f77860e000151240e","5f60e3c0a3b16e07647b2ff9","5f64c2c6ec7572026fabe9af","false","null","<span style=""color: black; font-size: 48px"">N + M</span>","null","","","","resp_prompt","","","","","","","","","","","","","","","",""
"categorize-image","220","573737","0.0-4.0-1.0-1.34","b8bkkf82vsyj4ob","prime","59dc458f77860e000151240e","5f60e3c0a3b16e07647b2ff9","5f64c2c6ec7572026fabe9af","true","662","./Stimuli/SelectedImages/LM/LM48.bmp","76","","","","test","true","N + M","76","repetition","LM","LM48.bmp","forget","","83","3","prime1","right","","","",""
"html-keyboard-response","221","575739","0.0-4.0-1.0-3.34","b8bkkf82vsyj4ob","prime","59dc458f77860e000151240e","5f60e3c0a3b16e07647b2ff9","5f64c2c6ec7572026fabe9af","false","null","<div style=""align-items: center; display: flex; color: darkorange; font-size: 90px""><b>ø</b></div>","null","","","","forget_cue","","","","","","","","","","","","","","","",""
"html-keyboard-response","222","576440","0.0-4.0-1.0-0.35","b8bkkf82vsyj4ob","prime","59dc458f77860e000151240e","5f60e3c0a3b16e07647b2ff9","5f64c2c6ec7572026fabe9af","false","null","<span style=""color: black; font-size: 48px"">M + N</span>","null","","","","resp_prompt","","","","","","","","","","","","","","","",""
"categorize-image","223","577132","0.0-4.0-1.0-1.35","b8bkkf82vsyj4ob","prime","59dc458f77860e000151240e","5f60e3c0a3b16e07647b2ff9","5f64c2c6ec7572026fabe9af","true","690","./Stimuli/SelectedImages/LM/LM179.bmp","83","","","","test","true","M + N","83","switch","LM","LM179.bmp","remember","","84","3","prime1","left","","","",""
"html-keyboard-response","224","579133","0.0-4.0-1.0-3.35","b8bkkf82vsyj4ob","prime","59dc458f77860e000151240e","5f60e3c0a3b16e07647b2ff9","5f64c2c6ec7572026fabe9af","false","null","<div style=""align-items: center; display: flex; color: dodgerblue; font-size: 90px""><b>o</b></div>","null","","","","forget_cue","","","","","","","","","","","","","","","",""
"html-keyboard-response","225","579834","0.0-4.0-1.0-0.36","b8bkkf82vsyj4ob","prime","59dc458f77860e000151240e","5f60e3c0a3b16e07647b2ff9","5f64c2c6ec7572026fabe9af","false","null","<span style=""color: black; font-size: 48px"">M + N</span>","null","","","","resp_prompt","","","","","","","","","","","","","","","",""
"categorize-image","226","580459","0.0-4.0-1.0-1.36","b8bkkf82vsyj4ob","prime","59dc458f77860e000151240e","5f60e3c0a3b16e07647b2ff9","5f64c2c6ec7572026fabe9af","true","624","./Stimuli/SelectedImages/LN/LN166.bmp","76","","","","test","true","M + N","76","repetition","LN","LN166.bmp","forget","","85","3","prime1","right","","","",""
"html-keyboard-response","227","582460","0.0-4.0-1.0-3.36","b8bkkf82vsyj4ob","prime","59dc458f77860e000151240e","5f60e3c0a3b16e07647b2ff9","5f64c2c6ec7572026fabe9af","false","null","<div style=""align-items: center; display: flex; color: darkorange; font-size: 90px""><b>ø</b></div>","null","","","","forget_cue","","","","","","","","","","","","","","","",""
"html-keyboard-response","228","583162","0.0-4.0-1.0-0.37","b8bkkf82vsyj4ob","prime","59dc458f77860e000151240e","5f60e3c0a3b16e07647b2ff9","5f64c2c6ec7572026fabe9af","false","null","<span style=""color: black; font-size: 48px"">M + N</span>","null","","","","resp_prompt","","","","","","","","","","","","","","","",""
"categorize-image","229","583827","0.0-4.0-1.0-1.37","b8bkkf82vsyj4ob","prime","59dc458f77860e000151240e","5f60e3c0a3b16e07647b2ff9","5f64c2c6ec7572026fabe9af","true","665","./Stimuli/SelectedImages/SM/SM195.bmp","83","","","","test","true","M + N","83","switch","SM","SM195.bmp","forget","","86","3","prime1","left","","","",""
"html-keyboard-response","230","585829","0.0-4.0-1.0-3.37","b8bkkf82vsyj4ob","prime","59dc458f77860e000151240e","5f60e3c0a3b16e07647b2ff9","5f64c2c6ec7572026fabe9af","false","null","<div style=""align-items: center; display: flex; color: darkorange; font-size: 90px""><b>ø</b></div>","null","","","","forget_cue","","","","","","","","","","","","","","","",""
"html-keyboard-response","231","586531","0.0-4.0-1.0-0.38","b8bkkf82vsyj4ob","prime","59dc458f77860e000151240e","5f60e3c0a3b16e07647b2ff9","5f64c2c6ec7572026fabe9af","false","null","<span style=""color: black; font-size: 48px"">N + M</span>","null","","","","resp_prompt","","","","","","","","","","","","","","","",""
"categorize-image","232","587556","0.0-4.0-1.0-1.38","b8bkkf82vsyj4ob","prime","59dc458f77860e000151240e","5f60e3c0a3b16e07647b2ff9","5f64c2c6ec7572026fabe9af","true","1025","./Stimuli/SelectedImages/LN/LN150.bmp","83","","","","test","true","N + M","83","repetition","LN","LN150.bmp","remember","","87","3","prime1","left","","","",""
"html-keyboard-response","233","589557","0.0-4.0-1.0-3.38","b8bkkf82vsyj4ob","prime","59dc458f77860e000151240e","5f60e3c0a3b16e07647b2ff9","5f64c2c6ec7572026fabe9af","false","null","<div style=""align-items: center; display: flex; color: dodgerblue; font-size: 90px""><b>o</b></div>","null","","","","forget_cue","","","","","","","","","","","","","","","",""
"html-keyboard-response","234","590259","0.0-4.0-1.0-0.39","b8bkkf82vsyj4ob","prime","59dc458f77860e000151240e","5f60e3c0a3b16e07647b2ff9","5f64c2c6ec7572026fabe9af","false","null","<span style=""color: black; font-size: 48px"">M + N</span>","null","","","","resp_prompt","","","","","","","","","","","","","","","",""
"categorize-image","235","591229","0.0-4.0-1.0-1.39","b8bkkf82vsyj4ob","prime","59dc458f77860e000151240e","5f60e3c0a3b16e07647b2ff9","5f64c2c6ec7572026fabe9af","true","968","./Stimuli/SelectedImages/SM/SM24.bmp","83","","","","test","true","M + N","83","repetition","SM","SM24.bmp","remember","","88","3","prime1","left","","","",""
"html-keyboard-response","236","593230","0.0-4.0-1.0-3.39","b8bkkf82vsyj4ob","prime","59dc458f77860e000151240e","5f60e3c0a3b16e07647b2ff9","5f64c2c6ec7572026fabe9af","false","null","<div style=""align-items: center; display: flex; color: dodgerblue; font-size: 90px""><b>o</b></div>","null","","","","forget_cue","","","","","","","","","","","","","","","",""
"html-keyboard-response","237","593932","0.0-4.0-1.0-0.40","b8bkkf82vsyj4ob","prime","59dc458f77860e000151240e","5f60e3c0a3b16e07647b2ff9","5f64c2c6ec7572026fabe9af","false","null","<span style=""color: black; font-size: 48px"">M + N</span>","null","","","","resp_prompt","","","","","","","","","","","","","","","",""
"categorize-image","238","594670","0.0-4.0-1.0-1.40","b8bkkf82vsyj4ob","prime","59dc458f77860e000151240e","5f60e3c0a3b16e07647b2ff9","5f64c2c6ec7572026fabe9af","true","736","./Stimuli/SelectedImages/LN/LN9.bmp","76","","","","test","true","M + N","76","repetition","LN","LN9.bmp","remember","","89","3","prime1","right","","","",""
"html-keyboard-response","239","596670","0.0-4.0-1.0-3.40","b8bkkf82vsyj4ob","prime","59dc458f77860e000151240e","5f60e3c0a3b16e07647b2ff9","5f64c2c6ec7572026fabe9af","false","null","<div style=""align-items: center; display: flex; color: dodgerblue; font-size: 90px""><b>o</b></div>","null","","","","forget_cue","","","","","","","","","","","","","","","",""
"html-keyboard-response","240","597373","0.0-4.0-1.0-0.41","b8bkkf82vsyj4ob","prime","59dc458f77860e000151240e","5f60e3c0a3b16e07647b2ff9","5f64c2c6ec7572026fabe9af","false","null","<span style=""color: black; font-size: 48px"">M + N</span>","null","","","","resp_prompt","","","","","","","","","","","","","","","",""
"categorize-image","241","598159","0.0-4.0-1.0-1.41","b8bkkf82vsyj4ob","prime","59dc458f77860e000151240e","5f60e3c0a3b16e07647b2ff9","5f64c2c6ec7572026fabe9af","true","787","./Stimuli/SelectedImages/LM/LM150.bmp","83","","","","test","true","M + N","83","repetition","LM","LM150.bmp","remember","","90","3","prime1","left","","","",""
"html-keyboard-response","242","600159","0.0-4.0-1.0-3.41","b8bkkf82vsyj4ob","prime","59dc458f77860e000151240e","5f60e3c0a3b16e07647b2ff9","5f64c2c6ec7572026fabe9af","false","null","<div style=""align-items: center; display: flex; color: dodgerblue; font-size: 90px""><b>o</b></div>","null","","","","forget_cue","","","","","","","","","","","","","","","",""
"html-keyboard-response","243","600861","0.0-4.0-1.0-0.42","b8bkkf82vsyj4ob","prime","59dc458f77860e000151240e","5f60e3c0a3b16e07647b2ff9","5f64c2c6ec7572026fabe9af","false","null","<span style=""color: black; font-size: 48px"">M + N</span>","null","","","","resp_prompt","","","","","","","","","","","","","","","",""
"categorize-image","244","601551","0.0-4.0-1.0-1.42","b8bkkf82vsyj4ob","prime","59dc458f77860e000151240e","5f60e3c0a3b16e07647b2ff9","5f64c2c6ec7572026fabe9af","true","689","./Stimuli/SelectedImages/LN/LN92.bmp","76","","","","test","true","M + N","76","switch","LN","LN92.bmp","remember","","91","3","prime1","right","","","",""
"html-keyboard-response","245","603552","0.0-4.0-1.0-3.42","b8bkkf82vsyj4ob","prime","59dc458f77860e000151240e","5f60e3c0a3b16e07647b2ff9","5f64c2c6ec7572026fabe9af","false","null","<div style=""align-items: center; display: flex; color: dodgerblue; font-size: 90px""><b>o</b></div>","null","","","","forget_cue","","","","","","","","","","","","","","","",""
"html-keyboard-response","246","604253","0.0-4.0-1.0-0.43","b8bkkf82vsyj4ob","prime","59dc458f77860e000151240e","5f60e3c0a3b16e07647b2ff9","5f64c2c6ec7572026fabe9af","false","null","<span style=""color: black; font-size: 48px"">N + M</span>","null","","","","resp_prompt","","","","","","","","","","","","","","","",""
"categorize-image","247","604906","0.0-4.0-1.0-1.43","b8bkkf82vsyj4ob","prime","59dc458f77860e000151240e","5f60e3c0a3b16e07647b2ff9","5f64c2c6ec7572026fabe9af","true","653","./Stimuli/SelectedImages/LN/LN128.bmp","83","","","","test","true","N + M","83","switch","LN","LN128.bmp","forget","","92","3","prime1","left","","","",""
"html-keyboard-response","248","606907","0.0-4.0-1.0-3.43","b8bkkf82vsyj4ob","prime","59dc458f77860e000151240e","5f60e3c0a3b16e07647b2ff9","5f64c2c6ec7572026fabe9af","false","null","<div style=""align-items: center; display: flex; color: darkorange; font-size: 90px""><b>ø</b></div>","null","","","","forget_cue","","","","","","","","","","","","","","","",""
"html-keyboard-response","249","607608","0.0-4.0-1.0-0.44","b8bkkf82vsyj4ob","prime","59dc458f77860e000151240e","5f60e3c0a3b16e07647b2ff9","5f64c2c6ec7572026fabe9af","false","null","<span style=""color: black; font-size: 48px"">M + N</span>","null","","","","resp_prompt","","","","","","","","","","","","","","","",""
"categorize-image","250","608336","0.0-4.0-1.0-1.44","b8bkkf82vsyj4ob","prime","59dc458f77860e000151240e","5f60e3c0a3b16e07647b2ff9","5f64c2c6ec7572026fabe9af","true","725","./Stimuli/SelectedImages/SN/SN187.bmp","76","","","","test","true","M + N","76","switch","SN","SN187.bmp","remember","","93","3","prime1","right","","","",""
"html-keyboard-response","251","610336","0.0-4.0-1.0-3.44","b8bkkf82vsyj4ob","prime","59dc458f77860e000151240e","5f60e3c0a3b16e07647b2ff9","5f64c2c6ec7572026fabe9af","false","null","<div style=""align-items: center; display: flex; color: dodgerblue; font-size: 90px""><b>o</b></div>","null","","","","forget_cue","","","","","","","","","","","","","","","",""
"html-keyboard-response","252","611037","0.0-4.0-1.0-0.45","b8bkkf82vsyj4ob","prime","59dc458f77860e000151240e","5f60e3c0a3b16e07647b2ff9","5f64c2c6ec7572026fabe9af","false","null","<span style=""color: black; font-size: 48px"">N + M</span>","null","","","","resp_prompt","","","","","","","","","","","","","","","",""
"categorize-image","253","611711","0.0-4.0-1.0-1.45","b8bkkf82vsyj4ob","prime","59dc458f77860e000151240e","5f60e3c0a3b16e07647b2ff9","5f64c2c6ec7572026fabe9af","true","673","./Stimuli/SelectedImages/LM/LM157.bmp","76","","","","test","true","N + M","76","switch","LM","LM157.bmp","forget","","94","3","prime1","right","","","",""
"html-keyboard-response","254","613711","0.0-4.0-1.0-3.45","b8bkkf82vsyj4ob","prime","59dc458f77860e000151240e","5f60e3c0a3b16e07647b2ff9","5f64c2c6ec7572026fabe9af","false","null","<div style=""align-items: center; display: flex; color: darkorange; font-size: 90px""><b>ø</b></div>","null","","","","forget_cue","","","","","","","","","","","","","","","",""
"html-keyboard-response","255","614412","0.0-4.0-1.0-0.46","b8bkkf82vsyj4ob","prime","59dc458f77860e000151240e","5f60e3c0a3b16e07647b2ff9","5f64c2c6ec7572026fabe9af","false","null","<span style=""color: black; font-size: 48px"">N + M</span>","null","","","","resp_prompt","","","","","","","","","","","","","","","",""
"categorize-image","256","615265","0.0-4.0-1.0-1.46","b8bkkf82vsyj4ob","prime","59dc458f77860e000151240e","5f60e3c0a3b16e07647b2ff9","5f64c2c6ec7572026fabe9af","true","852","./Stimuli/SelectedImages/LM/LM57.bmp","76","","","","test","true","N + M","76","repetition","LM","LM57.bmp","forget","","95","3","prime1","right","","","",""
"html-keyboard-response","257","617267","0.0-4.0-1.0-3.46","b8bkkf82vsyj4ob","prime","59dc458f77860e000151240e","5f60e3c0a3b16e07647b2ff9","5f64c2c6ec7572026fabe9af","false","null","<div style=""align-items: center; display: flex; color: darkorange; font-size: 90px""><b>ø</b></div>","null","","","","forget_cue","","","","","","","","","","","","","","","",""
