"trial_type","trial_index","time_elapsed","internal_node_id","subject","exp_part","prolific_PID","study_ID","session_ID","use","rt","stimulus","key_press","button_pressed","responses","question_order","trial_part","correct","resp_map","correct_resp","probe_condition","category","image","forget_condition","list","trial_num","block_num","block","response","test_part","n_span","sequence","num_spaces"
"pavlovia","0","11","0.0-0.0","hnqxxxvkj15hnz5","","5f58f55dbf27550b01e8dfb3","5f60e3c0a3b16e07647b2ff9","5f6104c0937bc10421ad9c91","false","","","","","","","","","","","","","","","","","","","","","","",""
"html-keyboard-response","1","25854","0.0-1.0-0.0-0.0","hnqxxxvkj15hnz5","welcome","5f58f55dbf27550b01e8dfb3","5f60e3c0a3b16e07647b2ff9","5f6104c0937bc10421ad9c91","false","25835.520000000542","<div align=left>Dear participant, <br> thank you for participating in an online study of the Cognition, Action, and Sustainability Unit of the University of Freiburg! <br> <br>The aim of this study is to examine our ability to remember previously learned information. <br>Our goal is to find out, whether our memory improves, when we only remember information that is relevant to us. <br>The experiment will take about 35 minutes to complete. <br> <br>Please, note that you can only participate in this study if you are using a device with a keyboard (PC, Laptop etc.) <br>and not if you are using a mobile device such as a tablet or smartphone.<br> <br>Press 'SPACE' to proceed to the experiment. </div>","32","","","","","","","","","","","","","","","","","","","",""
"html-keyboard-response","2","51151","0.0-1.0-0.0-1.0","hnqxxxvkj15hnz5","welcome","5f58f55dbf27550b01e8dfb3","5f60e3c0a3b16e07647b2ff9","5f6104c0937bc10421ad9c91","false","25287.704999998823","<div align=left><strong> Time Course of this experiment: </strong> <br><br> <strong> 1.</strong>  First, please fill in some information regarding your demographic data. <br><br> <strong> 2.</strong>  Next, your task will be to classify everyday objects. <br>In addition, you will be asked to remember certain objects and recall them later. <br>Working on these tasks requires your undivided attention and concentration.<br>It is therefore essential that you eliminate any sources of distraction in your  <br>environment and ensure that you will not be disturbed. <br><br><strong> 3.</strong>  At the end of the experiment, you will be asked to answer a few additional questions. <br> <br><strong> Important:</strong> After finishing the experiment, only close the browser window <br> by clicking on the 'end the experiment'-button when you are asked to do so. <br>Closing the browser window prematurely will make the allocation of your participation credit impossible. <br><br> Press 'SPACE' to start the experiment. </div>","32","","","","","","","","","","","","","","","","","","","",""
"html-button-response","3","60927","0.0-1.0-0.0-2.0","hnqxxxvkj15hnz5","welcome","5f58f55dbf27550b01e8dfb3","5f60e3c0a3b16e07647b2ff9","5f6104c0937bc10421ad9c91","true","9763.559999999416","<div align=left><strong> Informed consent </strong>  <br>The aim of our research is to better understand human behavior and mental processes. <br>In the following study your behavior (e.g. choices, reaction times) will be studied. <br> <br><strong> Voluntariness and Anonymity </strong> <br>Your participation in this study is  <strong> voluntary</strong>.<br>You may withdraw your consent to participate at any time without providing a reason for doing so and without fear of prejudice. <br><br>As no personal data will be collected, <strong>your data and your person cannot be connected after data collection</strong> – the data-set is anonymous. <br>Respectively, deletion of your data will not be possible after data collection has been completed, as we cannot retrace your data-set.<br>The results and anonymized data collected in this study will be published as a scientific publication. <br>This will happen in an <strong>anonymized format</strong>, so that no data can be traced back to a specific person. <br> <br>The anonymized data of this study will be made available to other researchers and/or in a data archive on the Internet as a means of transparency and to enable subsequent re-use. By doing so, this study follows the recommendations of the Deutsche Forschungsgemeinschaft (DFG, German Research Foundation) and Deutsche Gesellschaft für Psychologie (DGPS, German Psychological Society) regarding quality assurance in research.<br>If you have any questions now or after the experiment, please contact our team (experiments@cs.uni-freiburg.de).<br><br><br>I hereby declare, that I understand the above described conditions of participation and I agree to participate under these conditions. <br><br> </div>","","0","","","","","","","","","","","","","","","","","","",""
"html-keyboard-response","4","82588","0.0-1.0-0.0-3.0","hnqxxxvkj15hnz5","welcome","5f58f55dbf27550b01e8dfb3","5f60e3c0a3b16e07647b2ff9","5f6104c0937bc10421ad9c91","false","21652.879999997822","<div align=left><strong> General information concerning the experiment </strong>  <br> <br>Please follow the instructions:<ol> <li><strong> Do not leave this tab (your browser window) during the experiment and do not reload this tab! </strong>  <br>If you do switch tabs/windows during the experiment (to check your mail or visit another website, for example), <br>the experiment will end automatically and you will <strong>not receive credit</strong> for your participation. <br>Repeated participation or resumption of the experiment is impossible.</li> <br><li>Please close all other programs for the duration of your participation. </li> <br><li>Please mute or turn off your phone and put it out of your reach. </li> <br><li>Please also take off any disturbing accessories (such as wristwatches, bracelets, etc.). </li> <br><li>If you have music playing in the background, please turn it off now. </li> <br></ol>Thank you! <br>Press 'SPACE' to continue. </div>","32","","","","","","","","","","","","","","","","","","","",""
"survey-text","5","86890","0.0-1.0-1.0-0.0","hnqxxxvkj15hnz5","demographics","5f58f55dbf27550b01e8dfb3","5f60e3c0a3b16e07647b2ff9","5f6104c0937bc10421ad9c91","true","4271.209999998973","","","","{""age"":""22""}","","","","","","","","","","","","","","","","","",""
"survey-multi-choice","6","128479","0.0-1.0-1.0-1.0","hnqxxxvkj15hnz5","demographics","5f58f55dbf27550b01e8dfb3","5f60e3c0a3b16e07647b2ff9","5f6104c0937bc10421ad9c91","true","41583.754999999655","","","","{""gender"":""female"",""school"":""high school"",""education"":""Still in training/ university""}","[0,1,2]","","","","","","","","","","","","","","","","",""
"survey-text","7","142069","0.0-1.0-1.0-2.0-0.0","hnqxxxvkj15hnz5","demographics","5f58f55dbf27550b01e8dfb3","5f60e3c0a3b16e07647b2ff9","5f6104c0937bc10421ad9c91","true","13402.460000001156","","","","{""education_text"":""law degree""}","","","","","","","","","","","","","","","","","",""
"html-keyboard-response","8","159132","0.0-1.0-2.0","hnqxxxvkj15hnz5","instructions","5f58f55dbf27550b01e8dfb3","5f60e3c0a3b16e07647b2ff9","5f6104c0937bc10421ad9c91","false","17057.050000003073","<div align=left> The experiment is now about to start: <br> <br>In the following part, you will be presented pictures of everyday objects. <br>Your first task is to <strong>classify these objects. </strong> <br> <br> You will classify them either as mechanical or non-mechanical objects. <br> <br>Objects that include any kind of technical mechanism (for example, wheels, switches, levers, <br> electronic components) fall under the category of <strong>mechanical</strong> objects. <br>Only objects without any kind of technical mechanism should be classified as <strong>non-mechanical</strong>. <br><br>Press 'SPACE' to continue. </div>","32","","","","","","","","","","","","","","","","","","","",""
"html-keyboard-response","9","273805","0.0-2.0-0.0","hnqxxxvkj15hnz5","instructions","5f58f55dbf27550b01e8dfb3","5f60e3c0a3b16e07647b2ff9","5f6104c0937bc10421ad9c91","false","114663.93000000244","<div align=justify>You will classify the objects using the <strong>'S'</strong> and the <strong>'L'</strong> keys on your keyboard.<br>For doing so, please place your <strong>left index finger</strong> on the <strong>'S'</strong> key and place your <strong>right index finger</strong> on the <strong>'L'</strong> key. <br><br> Each trial starts with an instruction, indicating which key ('S'/'L') you need to press to classify <br>the object as mechanical (letter M) or non-mechanical (letter N).<br>The instruction <strong>M + N</strong> indicates that, in the current trial, by pressing the left key ('S') you classify the displayed object as mechanical (M) <br> and by pressing the right key ('L') you classify the object as non-mechanical (N). <br>The instruction <strong>N + M</strong> on the other hand indicates that by pressing the left key ('S') you classify the displayed object as non-mechanical (N) <br> and by pressing the right key ('L') you classify the object as mechanical (M). <br><br>Please press the key corresponding to the correct classification as fast as possible as soon as the object is displayed and try to avoid making mistakes.<br>If you do not respond within a 2 second window, a corresponding feedback will be displayed and the next trial will start.<br> The experiment is divided into multiple blocks to give you the opportunity to take a break after each block. <br>First, you can now practice this task. <br><br>Please place your <strong>LEFT INDEX FINGER</strong> on the 'S' key and your <strong>RIGHT INDEX FINGER</strong> on the 'L' key now. <br><br>Press SPACE to continue.</div>","32","","","","","","","","","","","","","","","","","","","",""
"html-keyboard-response","10","277099","0.0-2.0-1.0","hnqxxxvkj15hnz5","instructions","5f58f55dbf27550b01e8dfb3","5f60e3c0a3b16e07647b2ff9","5f6104c0937bc10421ad9c91","false","3284.975000002305","<div align=left> You will now have time to practice this task.<br><br>Remember: <br> <br><li>Please place your index fingers on the <strong>'S'</strong> and <strong>'L'</strong> keys <br>to respond as fast and accurately as possible.</li><li>Every picture can be classified as either mechanical or non-mechanical.</li><li>If you do not respond in time or commit an error, you will receive a corresponding feedback. </li><li> Please try to respond as <strong> fast </strong> and as <strong> accurately as possible </strong> .<br><li>To ensure optimal results, please minimize distractions and stay focused. </li><br><br>Press SPACE to continue.</div>","32","","","","","","","","","","","","","","","","","","","",""
"html-keyboard-response","11","277817","0.0-2.0-2.0-0.0","hnqxxxvkj15hnz5","practice_no_cue","5f58f55dbf27550b01e8dfb3","5f60e3c0a3b16e07647b2ff9","5f6104c0937bc10421ad9c91","false","null","<span style=""color: black; font-size: 48px"">M + N</span>","null","","","","resp_prompt","","","","","","","","","","","","","","","",""
"categorize-image","12","280340","0.0-2.0-2.0-1.0","hnqxxxvkj15hnz5","practice_no_cue","5f58f55dbf27550b01e8dfb3","5f60e3c0a3b16e07647b2ff9","5f6104c0937bc10421ad9c91","true","null","./Stimuli/ImagesPractice/SM62.jpg","null","","","","test","false","M + N","83","","SM","SM62.jpg","remember","old","1","1","start","too_slow","","","",""
"html-keyboard-response","13","281049","0.0-2.0-2.0-0.1","hnqxxxvkj15hnz5","practice_no_cue","5f58f55dbf27550b01e8dfb3","5f60e3c0a3b16e07647b2ff9","5f6104c0937bc10421ad9c91","false","null","<span style=""color: black; font-size: 48px"">N + M</span>","null","","","","resp_prompt","","","","","","","","","","","","","","","",""
"categorize-image","14","283322","0.0-2.0-2.0-1.1","hnqxxxvkj15hnz5","practice_no_cue","5f58f55dbf27550b01e8dfb3","5f60e3c0a3b16e07647b2ff9","5f6104c0937bc10421ad9c91","true","1759.975000000908","./Stimuli/ImagesPractice/LM147.jpg","83","","","","test","false","N + M","76","","LM","LM147.jpg","forget","old","2","1","start","left","","","",""
"html-keyboard-response","15","284027","0.0-2.0-2.0-0.2","hnqxxxvkj15hnz5","practice_no_cue","5f58f55dbf27550b01e8dfb3","5f60e3c0a3b16e07647b2ff9","5f6104c0937bc10421ad9c91","false","null","<span style=""color: black; font-size: 48px"">N + M</span>","null","","","","resp_prompt","","","","","","","","","","","","","","","",""
"categorize-image","16","285503","0.0-2.0-2.0-1.2","hnqxxxvkj15hnz5","practice_no_cue","5f58f55dbf27550b01e8dfb3","5f60e3c0a3b16e07647b2ff9","5f6104c0937bc10421ad9c91","true","961.3199999985518","./Stimuli/ImagesPractice/SM61.jpg","76","","","","test","true","N + M","76","","SM","SM61.jpg","remember","old","3","1","start","right","","","",""
"html-keyboard-response","17","286212","0.0-2.0-2.0-0.3","hnqxxxvkj15hnz5","practice_no_cue","5f58f55dbf27550b01e8dfb3","5f60e3c0a3b16e07647b2ff9","5f6104c0937bc10421ad9c91","false","null","<span style=""color: black; font-size: 48px"">N + M</span>","null","","","","resp_prompt","","","","","","","","","","","","","","","",""
"categorize-image","18","288347","0.0-2.0-2.0-1.3","hnqxxxvkj15hnz5","practice_no_cue","5f58f55dbf27550b01e8dfb3","5f60e3c0a3b16e07647b2ff9","5f6104c0937bc10421ad9c91","true","1624.6500000015367","./Stimuli/ImagesPractice/LM239.jpg","83","","","","test","false","N + M","76","","LM","LM239.jpg","remember","old","4","1","start","left","","","",""
"html-keyboard-response","19","289056","0.0-2.0-2.0-0.4","hnqxxxvkj15hnz5","practice_no_cue","5f58f55dbf27550b01e8dfb3","5f60e3c0a3b16e07647b2ff9","5f6104c0937bc10421ad9c91","false","null","<span style=""color: black; font-size: 48px"">N + M</span>","null","","","","resp_prompt","","","","","","","","","","","","","","","",""
"categorize-image","20","290936","0.0-2.0-2.0-1.4","hnqxxxvkj15hnz5","practice_no_cue","5f58f55dbf27550b01e8dfb3","5f60e3c0a3b16e07647b2ff9","5f6104c0937bc10421ad9c91","true","1367.949999999837","./Stimuli/ImagesPractice/SN205.jpg","76","","","","test","false","N + M","83","","SN","SN205.jpg","forget","old","5","1","start","right","","","",""
"html-keyboard-response","21","291644","0.0-2.0-2.0-0.5","hnqxxxvkj15hnz5","practice_no_cue","5f58f55dbf27550b01e8dfb3","5f60e3c0a3b16e07647b2ff9","5f6104c0937bc10421ad9c91","false","null","<span style=""color: black; font-size: 48px"">M + N</span>","null","","","","resp_prompt","","","","","","","","","","","","","","","",""
"categorize-image","22","293611","0.0-2.0-2.0-1.5","hnqxxxvkj15hnz5","practice_no_cue","5f58f55dbf27550b01e8dfb3","5f60e3c0a3b16e07647b2ff9","5f6104c0937bc10421ad9c91","true","1447.6399999985006","./Stimuli/ImagesPractice/SN221.jpg","83","","","","test","false","M + N","76","","SN","SN221.jpg","remember","old","6","1","start","left","","","",""
"html-keyboard-response","23","294318","0.0-2.0-2.0-0.6","hnqxxxvkj15hnz5","practice_no_cue","5f58f55dbf27550b01e8dfb3","5f60e3c0a3b16e07647b2ff9","5f6104c0937bc10421ad9c91","false","null","<span style=""color: black; font-size: 48px"">N + M</span>","null","","","","resp_prompt","","","","","","","","","","","","","","","",""
"categorize-image","24","295994","0.0-2.0-2.0-1.6","hnqxxxvkj15hnz5","practice_no_cue","5f58f55dbf27550b01e8dfb3","5f60e3c0a3b16e07647b2ff9","5f6104c0937bc10421ad9c91","true","1161.5700000002398","./Stimuli/ImagesPractice/SM37.jpg","76","","","","test","true","N + M","76","","SM","SM37.jpg","forget","old","7","1","start","right","","","",""
"html-keyboard-response","25","296699","0.0-2.0-2.0-0.7","hnqxxxvkj15hnz5","practice_no_cue","5f58f55dbf27550b01e8dfb3","5f60e3c0a3b16e07647b2ff9","5f6104c0937bc10421ad9c91","false","null","<span style=""color: black; font-size: 48px"">M + N</span>","null","","","","resp_prompt","","","","","","","","","","","","","","","",""
"categorize-image","26","298212","0.0-2.0-2.0-1.7","hnqxxxvkj15hnz5","practice_no_cue","5f58f55dbf27550b01e8dfb3","5f60e3c0a3b16e07647b2ff9","5f6104c0937bc10421ad9c91","true","1000.850000000326","./Stimuli/ImagesPractice/LM230.jpg","83","","","","test","true","M + N","83","","LM","LM230.jpg","remember","old","8","1","start","left","","","",""
"html-keyboard-response","27","298920","0.0-2.0-2.0-0.8","hnqxxxvkj15hnz5","practice_no_cue","5f58f55dbf27550b01e8dfb3","5f60e3c0a3b16e07647b2ff9","5f6104c0937bc10421ad9c91","false","null","<span style=""color: black; font-size: 48px"">N + M</span>","null","","","","resp_prompt","","","","","","","","","","","","","","","",""
"categorize-image","28","300332","0.0-2.0-2.0-1.8","hnqxxxvkj15hnz5","practice_no_cue","5f58f55dbf27550b01e8dfb3","5f60e3c0a3b16e07647b2ff9","5f6104c0937bc10421ad9c91","true","901.3849999974482","./Stimuli/ImagesPractice/LM224.jpg","83","","","","test","false","N + M","76","","LM","LM224.jpg","remember","old","9","1","start","left","","","",""
"html-keyboard-response","29","301039","0.0-2.0-2.0-0.9","hnqxxxvkj15hnz5","practice_no_cue","5f58f55dbf27550b01e8dfb3","5f60e3c0a3b16e07647b2ff9","5f6104c0937bc10421ad9c91","false","null","<span style=""color: black; font-size: 48px"">M + N</span>","null","","","","resp_prompt","","","","","","","","","","","","","","","",""
"categorize-image","30","302452","0.0-2.0-2.0-1.9","hnqxxxvkj15hnz5","practice_no_cue","5f58f55dbf27550b01e8dfb3","5f60e3c0a3b16e07647b2ff9","5f6104c0937bc10421ad9c91","true","902.0349999991013","./Stimuli/ImagesPractice/SM35.jpg","83","","","","test","true","M + N","83","","SM","SM35.jpg","forget","old","10","1","start","left","","","",""
"html-keyboard-response","31","303158","0.0-2.0-2.0-0.10","hnqxxxvkj15hnz5","practice_no_cue","5f58f55dbf27550b01e8dfb3","5f60e3c0a3b16e07647b2ff9","5f6104c0937bc10421ad9c91","false","null","<span style=""color: black; font-size: 48px"">N + M</span>","null","","","","resp_prompt","","","","","","","","","","","","","","","",""
"categorize-image","32","304358","0.0-2.0-2.0-1.10","hnqxxxvkj15hnz5","practice_no_cue","5f58f55dbf27550b01e8dfb3","5f60e3c0a3b16e07647b2ff9","5f6104c0937bc10421ad9c91","true","689.1649999998044","./Stimuli/ImagesPractice/SM97.jpg","76","","","","test","true","N + M","76","","SM","SM97.jpg","remember","old","11","1","start","right","","","",""
"html-keyboard-response","33","305064","0.0-2.0-2.0-0.11","hnqxxxvkj15hnz5","practice_no_cue","5f58f55dbf27550b01e8dfb3","5f60e3c0a3b16e07647b2ff9","5f6104c0937bc10421ad9c91","false","null","<span style=""color: black; font-size: 48px"">N + M</span>","null","","","","resp_prompt","","","","","","","","","","","","","","","",""
"categorize-image","34","307278","0.0-2.0-2.0-1.11","hnqxxxvkj15hnz5","practice_no_cue","5f58f55dbf27550b01e8dfb3","5f60e3c0a3b16e07647b2ff9","5f6104c0937bc10421ad9c91","true","1705.3699999997043","./Stimuli/ImagesPractice/LN4.jpg","83","","","","test","true","N + M","83","","LN","LN4.jpg","forget","old","12","1","start","left","","","",""
"html-keyboard-response","35","307985","0.0-2.0-2.0-0.12","hnqxxxvkj15hnz5","practice_no_cue","5f58f55dbf27550b01e8dfb3","5f60e3c0a3b16e07647b2ff9","5f6104c0937bc10421ad9c91","false","null","<span style=""color: black; font-size: 48px"">M + N</span>","null","","","","resp_prompt","","","","","","","","","","","","","","","",""
"categorize-image","36","309301","0.0-2.0-2.0-1.12","hnqxxxvkj15hnz5","practice_no_cue","5f58f55dbf27550b01e8dfb3","5f60e3c0a3b16e07647b2ff9","5f6104c0937bc10421ad9c91","true","803.9049999970011","./Stimuli/ImagesPractice/LN15.jpg","76","","","","test","true","M + N","76","","LN","LN15.jpg","forget","old","13","1","start","right","","","",""
"html-keyboard-response","37","310010","0.0-2.0-2.0-0.13","hnqxxxvkj15hnz5","practice_no_cue","5f58f55dbf27550b01e8dfb3","5f60e3c0a3b16e07647b2ff9","5f6104c0937bc10421ad9c91","false","null","<span style=""color: black; font-size: 48px"">M + N</span>","null","","","","resp_prompt","","","","","","","","","","","","","","","",""
"categorize-image","38","312202","0.0-2.0-2.0-1.13","hnqxxxvkj15hnz5","practice_no_cue","5f58f55dbf27550b01e8dfb3","5f60e3c0a3b16e07647b2ff9","5f6104c0937bc10421ad9c91","true","1682.3550000007963","./Stimuli/ImagesPractice/SN75.jpg","76","","","","test","true","M + N","76","","SN","SN75.jpg","remember","old","14","1","start","right","","","",""
"html-keyboard-response","39","312908","0.0-2.0-2.0-0.14","hnqxxxvkj15hnz5","practice_no_cue","5f58f55dbf27550b01e8dfb3","5f60e3c0a3b16e07647b2ff9","5f6104c0937bc10421ad9c91","false","null","<span style=""color: black; font-size: 48px"">M + N</span>","null","","","","resp_prompt","","","","","","","","","","","","","","","",""
"categorize-image","40","314448","0.0-2.0-2.0-1.14","hnqxxxvkj15hnz5","practice_no_cue","5f58f55dbf27550b01e8dfb3","5f60e3c0a3b16e07647b2ff9","5f6104c0937bc10421ad9c91","true","1028.9000000011874","./Stimuli/ImagesPractice/LN72.jpg","76","","","","test","true","M + N","76","","LN","LN72.jpg","forget","old","15","1","start","right","","","",""
"html-keyboard-response","41","315153","0.0-2.0-2.0-0.15","hnqxxxvkj15hnz5","practice_no_cue","5f58f55dbf27550b01e8dfb3","5f60e3c0a3b16e07647b2ff9","5f6104c0937bc10421ad9c91","false","null","<span style=""color: black; font-size: 48px"">M + N</span>","null","","","","resp_prompt","","","","","","","","","","","","","","","",""
"categorize-image","42","316450","0.0-2.0-2.0-1.15","hnqxxxvkj15hnz5","practice_no_cue","5f58f55dbf27550b01e8dfb3","5f60e3c0a3b16e07647b2ff9","5f6104c0937bc10421ad9c91","true","784.7000000001863","./Stimuli/ImagesPractice/LM143.jpg","83","","","","test","true","M + N","83","","LM","LM143.jpg","forget","old","16","1","start","left","","","",""
"html-keyboard-response","43","319966","0.0-2.0-3.0","hnqxxxvkj15hnz5","break","5f58f55dbf27550b01e8dfb3","5f60e3c0a3b16e07647b2ff9","5f6104c0937bc10421ad9c91","false","3500.7200000000303","<p style='font-size: 32px;'>Break</><br><br><br><br><br><p style='font-size: 24px;'>In the last block, you committed 5 errors and did not respond in time on 1 trials.
</p><p style='font-size: 24px;'>Try to respond as fast and accurately as possible in the next block as well! </p><p style='font-size: 24px;'>Press SPACE to continue.</p>","32","","","","","","","","","","","","","","","","","","","",""
"html-keyboard-response","44","323944","0.0-2.0-4.0","hnqxxxvkj15hnz5","instructions","5f58f55dbf27550b01e8dfb3","5f60e3c0a3b16e07647b2ff9","5f6104c0937bc10421ad9c91","false","3970.505000001169","<div align=left> Great!<br><br>Are you ready to continue?<br><br>If you want to reread the instructions and redo the practice trials, <br>please press „Z“. <br><br>Press SPACE to CONTINUE with the experiment when you are ready. </div>","32","","","","","","","","","","","","","","","","","","","",""
"html-keyboard-response","45","333274","0.0-3.0-0.0","hnqxxxvkj15hnz5","instructions","5f58f55dbf27550b01e8dfb3","5f60e3c0a3b16e07647b2ff9","5f6104c0937bc10421ad9c91","false","9318.190000001807","<div align=left>Great!<br> <strong>Attention</strong>! You will now receive a second, additional task! <br><br>To this point it was you <strong>first task</strong> to correctly <strong>classify objects</strong>. <br><br>As mentioned in the beginning, we aim to examine how well humans can remember previously learned information.<br>We would like to find out whether our memory improves if we only remember information that is relevant to us. <br><br>Therefore, your <strong>second task</strong> will be to <strong>remember</strong> the pictures you are to categorize. <br> After the learning phase, there will be a memory test phase, in which you will be asked to indicate whether you have seen a picture before or not. <br>Some, but not all pictures shown in the learning phase will appear in the memory test phase.<br>After classifying a picture, you will be told whether you should remember it for the memory test phase or not. <br>Thus, some pictures can be forgotten, whereas others have to be remembered. <br><br>Note: From now on, feedback will only be displayed if you responded incorrectly or not in time.<br><br>Press SPACE to continue.</div>","32","","","","","","","","","","","","","","","","","","","",""
"html-keyboard-response","46","344966","0.0-3.0-1.0","hnqxxxvkj15hnz5","instructions","5f58f55dbf27550b01e8dfb3","5f60e3c0a3b16e07647b2ff9","5f6104c0937bc10421ad9c91","false","11685.195000001811","<div align=left>In the following part, you will thus have to remember only some pictures. <br>Immediately after seeing and classifying the picture, a symbol will be displayed, indicating whether you should remember or forget the previous picture. <br><br>A <span style='color: dodgerblue; font-size: 28px'>O</span> indicates REMEMBER. That means, you have to remember this picture, because it will be tested later. <br><br>A <span style='color: darkorange; font-size:28px'>Ø</span> indicates FORGET. You do not have to remember this picture. <br><br> As you will have to remember a lot of pictures, it will be hard for you to remember all of them. <br>It will put you at an advantage if you instantly forget the pictures you are not asked to remember. <br> This will make it easier for you to remember the pictures that will be tested afterwards. <br><br>Press SPACE to continue.</div>","32","","","","","","","","","","","","","","","","","","","",""
"html-keyboard-response","47","350383","0.0-3.0-2.0","hnqxxxvkj15hnz5","instructions","5f58f55dbf27550b01e8dfb3","5f60e3c0a3b16e07647b2ff9","5f6104c0937bc10421ad9c91","false","5409.324999996868","<div align=left> Now you have the chance to practice both tasks together.<br><br>Remember: <br> <br><li>Please place your index fingers on the <strong>'S'</strong> and <strong>'L'</strong> keys <br>to respond as fast and accurately as possible.</li><li>Every picture can be classified as either mechanical or non-mechanical.</li><li>If you do not respond in time or commit an error, you will receive a corresponding feedback. <br>Please try to respond as <strong> fast </strong> and as <strong> accurately as possible </strong>.</li><li> Please remember only the to-be-remembered <span style='color: dodgerblue; font-size: 28px'>O</span> pictures. <br></li><li> Please minimize distractions and stay focused. </li><br><br>Press SPACE to START</div>","32","","","","","","","","","","","","","","","","","","","",""
"html-keyboard-response","48","351093","0.0-3.0-3.0-0.0","hnqxxxvkj15hnz5","practice_cue","5f58f55dbf27550b01e8dfb3","5f60e3c0a3b16e07647b2ff9","5f6104c0937bc10421ad9c91","false","null","<span style=""color: black; font-size: 48px"">M + N</span>","null","","","","resp_prompt","","","","","","","","","","","","","","","",""
"categorize-image","49","351991","0.0-3.0-3.0-1.0","hnqxxxvkj15hnz5","practice_cue","5f58f55dbf27550b01e8dfb3","5f60e3c0a3b16e07647b2ff9","5f6104c0937bc10421ad9c91","true","873.7949999995762","./Stimuli/ImagesPractice/LM230.jpg","83","","","","test","true","M + N","83","","LM","LM230.jpg","remember","old","17","2","practice_forget","left","","","",""
"html-keyboard-response","50","354003","0.0-3.0-3.0-3.0","hnqxxxvkj15hnz5","practice_cue","5f58f55dbf27550b01e8dfb3","5f60e3c0a3b16e07647b2ff9","5f6104c0937bc10421ad9c91","false","null","<div style=""align-items: center; display: flex; color: dodgerblue; font-size: 90px""><b>o</b></div>","null","","","","forget_cue","","","","","","","","","","","","","","","",""
"html-keyboard-response","51","354711","0.0-3.0-3.0-0.1","hnqxxxvkj15hnz5","practice_cue","5f58f55dbf27550b01e8dfb3","5f60e3c0a3b16e07647b2ff9","5f6104c0937bc10421ad9c91","false","null","<span style=""color: black; font-size: 48px"">N + M</span>","null","","","","resp_prompt","","","","","","","","","","","","","","","",""
"categorize-image","52","355550","0.0-3.0-3.0-1.1","hnqxxxvkj15hnz5","practice_cue","5f58f55dbf27550b01e8dfb3","5f60e3c0a3b16e07647b2ff9","5f6104c0937bc10421ad9c91","true","822.0899999978719","./Stimuli/ImagesPractice/LM147.jpg","76","","","","test","true","N + M","76","","LM","LM147.jpg","forget","old","18","2","practice_forget","right","","","",""
"html-keyboard-response","53","357558","0.0-3.0-3.0-3.1","hnqxxxvkj15hnz5","practice_cue","5f58f55dbf27550b01e8dfb3","5f60e3c0a3b16e07647b2ff9","5f6104c0937bc10421ad9c91","false","null","<div style=""align-items: center; display: flex; color: darkorange; font-size: 90px""><b>ø</b></div>","null","","","","forget_cue","","","","","","","","","","","","","","","",""
"html-keyboard-response","54","358263","0.0-3.0-3.0-0.2","hnqxxxvkj15hnz5","practice_cue","5f58f55dbf27550b01e8dfb3","5f60e3c0a3b16e07647b2ff9","5f6104c0937bc10421ad9c91","false","null","<span style=""color: black; font-size: 48px"">M + N</span>","null","","","","resp_prompt","","","","","","","","","","","","","","","",""
"categorize-image","55","358913","0.0-3.0-3.0-1.2","hnqxxxvkj15hnz5","practice_cue","5f58f55dbf27550b01e8dfb3","5f60e3c0a3b16e07647b2ff9","5f6104c0937bc10421ad9c91","true","632.615000002319","./Stimuli/ImagesPractice/SM62.jpg","83","","","","test","true","M + N","83","","SM","SM62.jpg","remember","old","19","2","practice_forget","left","","","",""
"html-keyboard-response","56","360921","0.0-3.0-3.0-3.2","hnqxxxvkj15hnz5","practice_cue","5f58f55dbf27550b01e8dfb3","5f60e3c0a3b16e07647b2ff9","5f6104c0937bc10421ad9c91","false","null","<div style=""align-items: center; display: flex; color: dodgerblue; font-size: 90px""><b>o</b></div>","null","","","","forget_cue","","","","","","","","","","","","","","","",""
"html-keyboard-response","57","361629","0.0-3.0-3.0-0.3","hnqxxxvkj15hnz5","practice_cue","5f58f55dbf27550b01e8dfb3","5f60e3c0a3b16e07647b2ff9","5f6104c0937bc10421ad9c91","false","null","<span style=""color: black; font-size: 48px"">M + N</span>","null","","","","resp_prompt","","","","","","","","","","","","","","","",""
"categorize-image","58","362294","0.0-3.0-3.0-1.3","hnqxxxvkj15hnz5","practice_cue","5f58f55dbf27550b01e8dfb3","5f60e3c0a3b16e07647b2ff9","5f6104c0937bc10421ad9c91","true","649.8250000004191","./Stimuli/ImagesPractice/SN221.jpg","76","","","","test","true","M + N","76","","SN","SN221.jpg","remember","old","20","2","practice_forget","right","","","",""
"html-keyboard-response","59","364300","0.0-3.0-3.0-3.3","hnqxxxvkj15hnz5","practice_cue","5f58f55dbf27550b01e8dfb3","5f60e3c0a3b16e07647b2ff9","5f6104c0937bc10421ad9c91","false","null","<div style=""align-items: center; display: flex; color: dodgerblue; font-size: 90px""><b>o</b></div>","null","","","","forget_cue","","","","","","","","","","","","","","","",""
"html-keyboard-response","60","365006","0.0-3.0-3.0-0.4","hnqxxxvkj15hnz5","practice_cue","5f58f55dbf27550b01e8dfb3","5f60e3c0a3b16e07647b2ff9","5f6104c0937bc10421ad9c91","false","null","<span style=""color: black; font-size: 48px"">M + N</span>","null","","","","resp_prompt","","","","","","","","","","","","","","","",""
"categorize-image","61","365569","0.0-3.0-3.0-1.4","hnqxxxvkj15hnz5","practice_cue","5f58f55dbf27550b01e8dfb3","5f60e3c0a3b16e07647b2ff9","5f6104c0937bc10421ad9c91","true","544.3650000015623","./Stimuli/ImagesPractice/SM35.jpg","83","","","","test","true","M + N","83","","SM","SM35.jpg","forget","old","21","2","practice_forget","left","","","",""
"html-keyboard-response","62","367578","0.0-3.0-3.0-3.4","hnqxxxvkj15hnz5","practice_cue","5f58f55dbf27550b01e8dfb3","5f60e3c0a3b16e07647b2ff9","5f6104c0937bc10421ad9c91","false","null","<div style=""align-items: center; display: flex; color: darkorange; font-size: 90px""><b>ø</b></div>","null","","","","forget_cue","","","","","","","","","","","","","","","",""
"html-keyboard-response","63","368286","0.0-3.0-3.0-0.5","hnqxxxvkj15hnz5","practice_cue","5f58f55dbf27550b01e8dfb3","5f60e3c0a3b16e07647b2ff9","5f6104c0937bc10421ad9c91","false","null","<span style=""color: black; font-size: 48px"">N + M</span>","null","","","","resp_prompt","","","","","","","","","","","","","","","",""
"categorize-image","64","369586","0.0-3.0-3.0-1.5","hnqxxxvkj15hnz5","practice_cue","5f58f55dbf27550b01e8dfb3","5f60e3c0a3b16e07647b2ff9","5f6104c0937bc10421ad9c91","true","1287.6150000010966","./Stimuli/ImagesPractice/SM37.jpg","76","","","","test","true","N + M","76","","SM","SM37.jpg","forget","old","22","2","practice_forget","right","","","",""
"html-keyboard-response","65","371595","0.0-3.0-3.0-3.5","hnqxxxvkj15hnz5","practice_cue","5f58f55dbf27550b01e8dfb3","5f60e3c0a3b16e07647b2ff9","5f6104c0937bc10421ad9c91","false","null","<div style=""align-items: center; display: flex; color: darkorange; font-size: 90px""><b>ø</b></div>","null","","","","forget_cue","","","","","","","","","","","","","","","",""
"html-keyboard-response","66","372302","0.0-3.0-3.0-0.6","hnqxxxvkj15hnz5","practice_cue","5f58f55dbf27550b01e8dfb3","5f60e3c0a3b16e07647b2ff9","5f6104c0937bc10421ad9c91","false","null","<span style=""color: black; font-size: 48px"">M + N</span>","null","","","","resp_prompt","","","","","","","","","","","","","","","",""
"categorize-image","67","373433","0.0-3.0-3.0-1.6","hnqxxxvkj15hnz5","practice_cue","5f58f55dbf27550b01e8dfb3","5f60e3c0a3b16e07647b2ff9","5f6104c0937bc10421ad9c91","true","1111.8050000004005","./Stimuli/ImagesPractice/SN75.jpg","76","","","","test","true","M + N","76","","SN","SN75.jpg","remember","old","23","2","practice_forget","right","","","",""
"html-keyboard-response","68","375444","0.0-3.0-3.0-3.6","hnqxxxvkj15hnz5","practice_cue","5f58f55dbf27550b01e8dfb3","5f60e3c0a3b16e07647b2ff9","5f6104c0937bc10421ad9c91","false","null","<div style=""align-items: center; display: flex; color: dodgerblue; font-size: 90px""><b>o</b></div>","null","","","","forget_cue","","","","","","","","","","","","","","","",""
"html-keyboard-response","69","376149","0.0-3.0-3.0-0.7","hnqxxxvkj15hnz5","practice_cue","5f58f55dbf27550b01e8dfb3","5f60e3c0a3b16e07647b2ff9","5f6104c0937bc10421ad9c91","false","null","<span style=""color: black; font-size: 48px"">N + M</span>","null","","","","resp_prompt","","","","","","","","","","","","","","","",""
"categorize-image","70","377632","0.0-3.0-3.0-1.7","hnqxxxvkj15hnz5","practice_cue","5f58f55dbf27550b01e8dfb3","5f60e3c0a3b16e07647b2ff9","5f6104c0937bc10421ad9c91","true","1463.1149999985937","./Stimuli/ImagesPractice/LM239.jpg","76","","","","test","true","N + M","76","","LM","LM239.jpg","remember","old","24","2","practice_forget","right","","","",""
"html-keyboard-response","71","379639","0.0-3.0-3.0-3.7","hnqxxxvkj15hnz5","practice_cue","5f58f55dbf27550b01e8dfb3","5f60e3c0a3b16e07647b2ff9","5f6104c0937bc10421ad9c91","false","null","<div style=""align-items: center; display: flex; color: dodgerblue; font-size: 90px""><b>o</b></div>","null","","","","forget_cue","","","","","","","","","","","","","","","",""
"html-keyboard-response","72","380348","0.0-3.0-3.0-0.8","hnqxxxvkj15hnz5","practice_cue","5f58f55dbf27550b01e8dfb3","5f60e3c0a3b16e07647b2ff9","5f6104c0937bc10421ad9c91","false","null","<span style=""color: black; font-size: 48px"">M + N</span>","null","","","","resp_prompt","","","","","","","","","","","","","","","",""
"categorize-image","73","381209","0.0-3.0-3.0-1.8","hnqxxxvkj15hnz5","practice_cue","5f58f55dbf27550b01e8dfb3","5f60e3c0a3b16e07647b2ff9","5f6104c0937bc10421ad9c91","true","836.2349999988801","./Stimuli/ImagesPractice/LN72.jpg","76","","","","test","true","M + N","76","","LN","LN72.jpg","forget","old","25","2","practice_forget","right","","","",""
"html-keyboard-response","74","383217","0.0-3.0-3.0-3.8","hnqxxxvkj15hnz5","practice_cue","5f58f55dbf27550b01e8dfb3","5f60e3c0a3b16e07647b2ff9","5f6104c0937bc10421ad9c91","false","null","<div style=""align-items: center; display: flex; color: darkorange; font-size: 90px""><b>ø</b></div>","null","","","","forget_cue","","","","","","","","","","","","","","","",""
"html-keyboard-response","75","383922","0.0-3.0-3.0-0.9","hnqxxxvkj15hnz5","practice_cue","5f58f55dbf27550b01e8dfb3","5f60e3c0a3b16e07647b2ff9","5f6104c0937bc10421ad9c91","false","null","<span style=""color: black; font-size: 48px"">N + M</span>","null","","","","resp_prompt","","","","","","","","","","","","","","","",""
"categorize-image","76","385423","0.0-3.0-3.0-1.9","hnqxxxvkj15hnz5","practice_cue","5f58f55dbf27550b01e8dfb3","5f60e3c0a3b16e07647b2ff9","5f6104c0937bc10421ad9c91","true","1481.645000003511","./Stimuli/ImagesPractice/SM61.jpg","83","","","","test","false","N + M","76","","SM","SM61.jpg","remember","old","26","2","practice_forget","left","","","",""
"html-keyboard-response","77","385932","0.0-3.0-3.0-2.9-0.9","hnqxxxvkj15hnz5","practice_cue","5f58f55dbf27550b01e8dfb3","5f60e3c0a3b16e07647b2ff9","5f6104c0937bc10421ad9c91","false","null","<span style=""color: red; font-size: 48px"">Error!</span>","null","","","","feedback","","","","","","","","","","","","","","","",""
"html-keyboard-response","78","387955","0.0-3.0-3.0-3.9","hnqxxxvkj15hnz5","practice_cue","5f58f55dbf27550b01e8dfb3","5f60e3c0a3b16e07647b2ff9","5f6104c0937bc10421ad9c91","false","null","<div style=""align-items: center; display: flex; color: dodgerblue; font-size: 90px""><b>o</b></div>","null","","","","forget_cue","","","","","","","","","","","","","","","",""
"html-keyboard-response","79","388660","0.0-3.0-3.0-0.10","hnqxxxvkj15hnz5","practice_cue","5f58f55dbf27550b01e8dfb3","5f60e3c0a3b16e07647b2ff9","5f6104c0937bc10421ad9c91","false","null","<span style=""color: black; font-size: 48px"">N + M</span>","null","","","","resp_prompt","","","","","","","","","","","","","","","",""
"categorize-image","80","390127","0.0-3.0-3.0-1.10","hnqxxxvkj15hnz5","practice_cue","5f58f55dbf27550b01e8dfb3","5f60e3c0a3b16e07647b2ff9","5f6104c0937bc10421ad9c91","true","1447.039999999106","./Stimuli/ImagesPractice/LM224.jpg","76","","","","test","true","N + M","76","","LM","LM224.jpg","remember","old","27","2","practice_forget","right","","","",""
"html-keyboard-response","81","392135","0.0-3.0-3.0-3.10","hnqxxxvkj15hnz5","practice_cue","5f58f55dbf27550b01e8dfb3","5f60e3c0a3b16e07647b2ff9","5f6104c0937bc10421ad9c91","false","null","<div style=""align-items: center; display: flex; color: dodgerblue; font-size: 90px""><b>o</b></div>","null","","","","forget_cue","","","","","","","","","","","","","","","",""
"html-keyboard-response","82","392842","0.0-3.0-3.0-0.11","hnqxxxvkj15hnz5","practice_cue","5f58f55dbf27550b01e8dfb3","5f60e3c0a3b16e07647b2ff9","5f6104c0937bc10421ad9c91","false","null","<span style=""color: black; font-size: 48px"">M + N</span>","null","","","","resp_prompt","","","","","","","","","","","","","","","",""
"categorize-image","83","393685","0.0-3.0-3.0-1.11","hnqxxxvkj15hnz5","practice_cue","5f58f55dbf27550b01e8dfb3","5f60e3c0a3b16e07647b2ff9","5f6104c0937bc10421ad9c91","true","821.1950000004144","./Stimuli/ImagesPractice/LM143.jpg","83","","","","test","true","M + N","83","","LM","LM143.jpg","forget","old","28","2","practice_forget","left","","","",""
"html-keyboard-response","84","395692","0.0-3.0-3.0-3.11","hnqxxxvkj15hnz5","practice_cue","5f58f55dbf27550b01e8dfb3","5f60e3c0a3b16e07647b2ff9","5f6104c0937bc10421ad9c91","false","null","<div style=""align-items: center; display: flex; color: darkorange; font-size: 90px""><b>ø</b></div>","null","","","","forget_cue","","","","","","","","","","","","","","","",""
"html-keyboard-response","85","396397","0.0-3.0-3.0-0.12","hnqxxxvkj15hnz5","practice_cue","5f58f55dbf27550b01e8dfb3","5f60e3c0a3b16e07647b2ff9","5f6104c0937bc10421ad9c91","false","null","<span style=""color: black; font-size: 48px"">N + M</span>","null","","","","resp_prompt","","","","","","","","","","","","","","","",""
"categorize-image","86","397937","0.0-3.0-3.0-1.12","hnqxxxvkj15hnz5","practice_cue","5f58f55dbf27550b01e8dfb3","5f60e3c0a3b16e07647b2ff9","5f6104c0937bc10421ad9c91","true","1519.3300000028685","./Stimuli/ImagesPractice/SN205.jpg","83","","","","test","true","N + M","83","","SN","SN205.jpg","forget","old","29","2","practice_forget","left","","","",""
"html-keyboard-response","87","399943","0.0-3.0-3.0-3.12","hnqxxxvkj15hnz5","practice_cue","5f58f55dbf27550b01e8dfb3","5f60e3c0a3b16e07647b2ff9","5f6104c0937bc10421ad9c91","false","null","<div style=""align-items: center; display: flex; color: darkorange; font-size: 90px""><b>ø</b></div>","null","","","","forget_cue","","","","","","","","","","","","","","","",""
"html-keyboard-response","88","400648","0.0-3.0-3.0-0.13","hnqxxxvkj15hnz5","practice_cue","5f58f55dbf27550b01e8dfb3","5f60e3c0a3b16e07647b2ff9","5f6104c0937bc10421ad9c91","false","null","<span style=""color: black; font-size: 48px"">N + M</span>","null","","","","resp_prompt","","","","","","","","","","","","","","","",""
"categorize-image","89","402116","0.0-3.0-3.0-1.13","hnqxxxvkj15hnz5","practice_cue","5f58f55dbf27550b01e8dfb3","5f60e3c0a3b16e07647b2ff9","5f6104c0937bc10421ad9c91","true","1453.8500000016647","./Stimuli/ImagesPractice/SM97.jpg","76","","","","test","true","N + M","76","","SM","SM97.jpg","remember","old","30","2","practice_forget","right","","","",""
"html-keyboard-response","90","404121","0.0-3.0-3.0-3.13","hnqxxxvkj15hnz5","practice_cue","5f58f55dbf27550b01e8dfb3","5f60e3c0a3b16e07647b2ff9","5f6104c0937bc10421ad9c91","false","null","<div style=""align-items: center; display: flex; color: dodgerblue; font-size: 90px""><b>o</b></div>","null","","","","forget_cue","","","","","","","","","","","","","","","",""
"html-keyboard-response","91","404830","0.0-3.0-3.0-0.14","hnqxxxvkj15hnz5","practice_cue","5f58f55dbf27550b01e8dfb3","5f60e3c0a3b16e07647b2ff9","5f6104c0937bc10421ad9c91","false","null","<span style=""color: black; font-size: 48px"">M + N</span>","null","","","","resp_prompt","","","","","","","","","","","","","","","",""
"categorize-image","92","406231","0.0-3.0-3.0-1.14","hnqxxxvkj15hnz5","practice_cue","5f58f55dbf27550b01e8dfb3","5f60e3c0a3b16e07647b2ff9","5f6104c0937bc10421ad9c91","true","1375.48500000051","./Stimuli/ImagesPractice/LN15.jpg","76","","","","test","true","M + N","76","","LN","LN15.jpg","forget","old","31","2","practice_forget","right","","","",""
"html-keyboard-response","93","408238","0.0-3.0-3.0-3.14","hnqxxxvkj15hnz5","practice_cue","5f58f55dbf27550b01e8dfb3","5f60e3c0a3b16e07647b2ff9","5f6104c0937bc10421ad9c91","false","null","<div style=""align-items: center; display: flex; color: darkorange; font-size: 90px""><b>ø</b></div>","null","","","","forget_cue","","","","","","","","","","","","","","","",""
"html-keyboard-response","94","408943","0.0-3.0-3.0-0.15","hnqxxxvkj15hnz5","practice_cue","5f58f55dbf27550b01e8dfb3","5f60e3c0a3b16e07647b2ff9","5f6104c0937bc10421ad9c91","false","null","<span style=""color: black; font-size: 48px"">N + M</span>","null","","","","resp_prompt","","","","","","","","","","","","","","","",""
"categorize-image","95","410577","0.0-3.0-3.0-1.15","hnqxxxvkj15hnz5","practice_cue","5f58f55dbf27550b01e8dfb3","5f60e3c0a3b16e07647b2ff9","5f6104c0937bc10421ad9c91","true","1613.9599999987404","./Stimuli/ImagesPractice/LN4.jpg","76","","","","test","false","N + M","83","","LN","LN4.jpg","forget","old","32","2","practice_forget","right","","","",""
"html-keyboard-response","96","411086","0.0-3.0-3.0-2.15-0.15","hnqxxxvkj15hnz5","practice_cue","5f58f55dbf27550b01e8dfb3","5f60e3c0a3b16e07647b2ff9","5f6104c0937bc10421ad9c91","false","null","<span style=""color: red; font-size: 48px"">Error!</span>","null","","","","feedback","","","","","","","","","","","","","","","",""
"html-keyboard-response","97","413091","0.0-3.0-3.0-3.15","hnqxxxvkj15hnz5","practice_cue","5f58f55dbf27550b01e8dfb3","5f60e3c0a3b16e07647b2ff9","5f6104c0937bc10421ad9c91","false","null","<div style=""align-items: center; display: flex; color: darkorange; font-size: 90px""><b>ø</b></div>","null","","","","forget_cue","","","","","","","","","","","","","","","",""
"html-keyboard-response","98","416736","0.0-3.0-4.0","hnqxxxvkj15hnz5","break","5f58f55dbf27550b01e8dfb3","5f60e3c0a3b16e07647b2ff9","5f6104c0937bc10421ad9c91","false","3635.0500000008033","<p style='font-size: 32px;'>Break</><br><br><br><br><br><p style='font-size: 24px;'>In the last block, you committed 2 errors and did not respond in time on 0 trials.
</p><p style='font-size: 24px;'>Try to respond as fast and accurately as possible in the next block as well! </p><p style='font-size: 24px;'>Press SPACE to continue.</p>","32","","","","","","","","","","","","","","","","","","","",""
"html-keyboard-response","99","433844","0.0-3.0-5.0","hnqxxxvkj15hnz5","instructions","5f58f55dbf27550b01e8dfb3","5f60e3c0a3b16e07647b2ff9","5f6104c0937bc10421ad9c91","false","17101.619999997667","<div align=left> Now, to practice, we kindly ask you to remember as many of the to-be-remembered pictures<br>of the previous learning phase as possible.<br><br>The pictures you were instructed to remember were the pictures followed by a <span style='color: dodgerblue; font-size: 28px'>O</span>.<br><br>In this memory test phase, you will also see some new pictures.<br>It is your task to remember whether you were presented with this specific picture in this study so far or not.<br>If you recognize an object (you have already seen it in this study), it is an OLD object. <br>If you do not recognize an object (you have NOT seen it in this study), it is a NEW object. <br><strong> Attention</strong>: As already mentioned, <span style='color: darkorange; font-size:28px'>Ø</span>-pictures will <strong>never</strong> appear in this memory test (neither as new objects). <br><br>Press SPACE to continue. </div>","32","","","","","","","","","","","","","","","","","","","",""
"html-keyboard-response","100","503544","0.0-3.0-6.0","hnqxxxvkj15hnz5","instructions","5f58f55dbf27550b01e8dfb3","5f60e3c0a3b16e07647b2ff9","5f6104c0937bc10421ad9c91","false","69685.37999999902","<div align=left> M and N no longer will appear on the left/right of the fixation cross. <br>Instead there will be a note at the bottom of the left or right side  <br>indicating which key you should press for an old or new object:  <br> <br>Press the <strong>right</strong> key to classify an object as <strong>old</strong> and press the <strong>left</strong>, to classify an object as <strong>new</strong>.<br>Please classify the objects as new/old by again placing your index finger on the 'S' and 'L' keys <br>and press them accordingly.<br><br><strong>Old:</strong> This object has been presented before. <br><strong>New:</strong> This object has <strong>not</strong> been presented.<br><br>Now please put your right and left index fingers on the 'S' and 'L' keys of your keyboard. <br>Please respond as fast and as accurately as possible!<br><br>Press SPACE to continue. </div>","32","","","","","","","","","","","","","","","","","","","",""
"categorize-image","101","505889","0.0-3.0-7.0-0.0","hnqxxxvkj15hnz5","practice_recog","5f58f55dbf27550b01e8dfb3","5f60e3c0a3b16e07647b2ff9","5f6104c0937bc10421ad9c91","true","1823.1200000009267","./Stimuli/ImagesPractice/SN75.jpg","76","","","","test","true","","76","","SN","SN75.jpg","","old","33","3","practice_recog","right","","","",""
"categorize-image","102","507600","0.0-3.0-7.0-0.1","hnqxxxvkj15hnz5","practice_recog","5f58f55dbf27550b01e8dfb3","5f60e3c0a3b16e07647b2ff9","5f6104c0937bc10421ad9c91","true","1192.720000002766","./Stimuli/ImagesPractice/LM224.jpg","76","","","","test","true","","76","","LM","LM224.jpg","","old","34","3","practice_recog","right","","","",""
"categorize-image","103","509049","0.0-3.0-7.0-0.2","hnqxxxvkj15hnz5","practice_recog","5f58f55dbf27550b01e8dfb3","5f60e3c0a3b16e07647b2ff9","5f6104c0937bc10421ad9c91","true","935.3899999987334","./Stimuli/ImagesPractice/SN221.jpg","76","","","","test","true","","76","","SN","SN221.jpg","","old","35","3","practice_recog","right","","","",""
"categorize-image","104","510420","0.0-3.0-7.0-0.3","hnqxxxvkj15hnz5","practice_recog","5f58f55dbf27550b01e8dfb3","5f60e3c0a3b16e07647b2ff9","5f6104c0937bc10421ad9c91","true","857.5399999972433","./Stimuli/ImagesPractice/SN220.jpg","83","","","","test","true","","83","","SN","SN220.jpg","","new","36","3","practice_recog","left","","","",""
"categorize-image","105","511928","0.0-3.0-7.0-0.4","hnqxxxvkj15hnz5","practice_recog","5f58f55dbf27550b01e8dfb3","5f60e3c0a3b16e07647b2ff9","5f6104c0937bc10421ad9c91","true","994.9950000009267","./Stimuli/ImagesPractice/LN17.jpg","76","","","","test","false","","83","","LN","LN17.jpg","","new","37","3","practice_recog","right","","","",""
"categorize-image","106","513926","0.0-3.0-7.0-0.5","hnqxxxvkj15hnz5","practice_recog","5f58f55dbf27550b01e8dfb3","5f60e3c0a3b16e07647b2ff9","5f6104c0937bc10421ad9c91","true","1484.505000000354","./Stimuli/ImagesPractice/LM230.jpg","76","","","","test","true","","76","","LM","LM230.jpg","","old","38","3","practice_recog","right","","","",""
"categorize-image","107","515404","0.0-3.0-7.0-0.6","hnqxxxvkj15hnz5","practice_recog","5f58f55dbf27550b01e8dfb3","5f60e3c0a3b16e07647b2ff9","5f6104c0937bc10421ad9c91","true","964.4249999983003","./Stimuli/ImagesPractice/LN109.jpg","83","","","","test","true","","83","","LN","LN109.jpg","","new","39","3","practice_recog","left","","","",""
"categorize-image","108","517048","0.0-3.0-7.0-0.7","hnqxxxvkj15hnz5","practice_recog","5f58f55dbf27550b01e8dfb3","5f60e3c0a3b16e07647b2ff9","5f6104c0937bc10421ad9c91","true","1135.279999998631","./Stimuli/ImagesPractice/SM98.jpg","76","","","","test","false","","83","","SM","SM98.jpg","","new","40","3","practice_recog","right","","","",""
"categorize-image","109","519472","0.0-3.0-7.0-0.8","hnqxxxvkj15hnz5","practice_recog","5f58f55dbf27550b01e8dfb3","5f60e3c0a3b16e07647b2ff9","5f6104c0937bc10421ad9c91","true","1912.339999999036","./Stimuli/ImagesPractice/LM55.jpg","83","","","","test","true","","83","","LM","LM55.jpg","","new","41","3","practice_recog","left","","","",""
"categorize-image","110","521045","0.0-3.0-7.0-0.9","hnqxxxvkj15hnz5","practice_recog","5f58f55dbf27550b01e8dfb3","5f60e3c0a3b16e07647b2ff9","5f6104c0937bc10421ad9c91","true","1058.5950000023004","./Stimuli/ImagesPractice/LM239.jpg","76","","","","test","true","","76","","LM","LM239.jpg","","old","42","3","practice_recog","right","","","",""
"categorize-image","111","522650","0.0-3.0-7.0-0.10","hnqxxxvkj15hnz5","practice_recog","5f58f55dbf27550b01e8dfb3","5f60e3c0a3b16e07647b2ff9","5f6104c0937bc10421ad9c91","true","1089.00999999966","./Stimuli/ImagesPractice/SN222.jpg","83","","","","test","true","","83","","SN","SN222.jpg","","new","43","3","practice_recog","left","","","",""
"categorize-image","112","524055","0.0-3.0-7.0-0.11","hnqxxxvkj15hnz5","practice_recog","5f58f55dbf27550b01e8dfb3","5f60e3c0a3b16e07647b2ff9","5f6104c0937bc10421ad9c91","true","892.6600000013132","./Stimuli/ImagesPractice/SN76.jpg","83","","","","test","true","","83","","SN","SN76.jpg","","new","44","3","practice_recog","left","","","",""
"categorize-image","113","525342","0.0-3.0-7.0-0.12","hnqxxxvkj15hnz5","practice_recog","5f58f55dbf27550b01e8dfb3","5f60e3c0a3b16e07647b2ff9","5f6104c0937bc10421ad9c91","true","772.2900000007357","./Stimuli/ImagesPractice/LN2.jpg","83","","","","test","true","","83","","LN","LN2.jpg","","new","45","3","practice_recog","left","","","",""
"categorize-image","114","526844","0.0-3.0-7.0-0.13","hnqxxxvkj15hnz5","practice_recog","5f58f55dbf27550b01e8dfb3","5f60e3c0a3b16e07647b2ff9","5f6104c0937bc10421ad9c91","true","986.7249999988126","./Stimuli/ImagesPractice/SM97.jpg","76","","","","test","true","","76","","SM","SM97.jpg","","old","46","3","practice_recog","right","","","",""
"categorize-image","115","528662","0.0-3.0-7.0-0.14","hnqxxxvkj15hnz5","practice_recog","5f58f55dbf27550b01e8dfb3","5f60e3c0a3b16e07647b2ff9","5f6104c0937bc10421ad9c91","true","1304.1950000006473","./Stimuli/ImagesPractice/SM61.jpg","76","","","","test","true","","76","","SM","SM61.jpg","","old","47","3","practice_recog","right","","","",""
"categorize-image","116","530411","0.0-3.0-7.0-0.15","hnqxxxvkj15hnz5","practice_recog","5f58f55dbf27550b01e8dfb3","5f60e3c0a3b16e07647b2ff9","5f6104c0937bc10421ad9c91","true","1236.3000000005122","./Stimuli/ImagesPractice/SM62.jpg","76","","","","test","true","","76","","SM","SM62.jpg","","old","48","3","practice_recog","right","","","",""
"html-keyboard-response","117","532606","0.0-3.0-8.0","hnqxxxvkj15hnz5","instructions","5f58f55dbf27550b01e8dfb3","5f60e3c0a3b16e07647b2ff9","5f6104c0937bc10421ad9c91","false","2188.98999999871","<div align=left> Great!<br><br>Are you ready to continue?<br>If you want to reread the instructions and redo the practice trials, please <br>press „Z“.<br><br>You can proceed when you are ready.<br><br>After the presentation of each object, you will receive an instruction whether to <br>remember or to forget the object.<br>We will test your memory of the following pictures only at the very end of <br>the experiment after all learning blocks are completed. <br><br>Press SPACE to CONTINUE when you are ready. </div>","32","","","","","","","","","","","","","","","","","","","",""
"html-keyboard-response","118","545409","0.0-4.0-0.0","hnqxxxvkj15hnz5","instructions","5f58f55dbf27550b01e8dfb3","5f60e3c0a3b16e07647b2ff9","5f6104c0937bc10421ad9c91","false","12794.935000001686","<div align=left> The actual experiment is about to start.<br>The practice trials are over!<br><br>Please always respond both fast and accurately!<br><br>Remember: <br> <br><li> Please place your index fingers on the <strong>'S'</strong> and <strong>'L'</strong> keys <br>to respond as fast and accurately as possible.</li><li> Every picture can be classified as either mechanical or non-mechanical.</li><li> If you do not respond in time or commit an error, you will receive a corresponding feedback.<br> Please try to respond as <strong> fast </strong> and as <strong> accurately as possible </strong>.</li><li> Remember the <span style='color: dodgerblue; font-size: 28px'>O</span> pictures. <br></li><li> Please minimize distractions and stay focused. </li><br><br>Press SPACE to START.</div>","32","","","","","","","","","","","","","","","","","","","",""
"html-keyboard-response","119","546121","0.0-4.0-1.0-0.0","hnqxxxvkj15hnz5","prime","5f58f55dbf27550b01e8dfb3","5f60e3c0a3b16e07647b2ff9","5f6104c0937bc10421ad9c91","false","null","<span style=""color: black; font-size: 48px"">M + N</span>","null","","","","resp_prompt","","","","","","","","","","","","","","","",""
"categorize-image","120","547685","0.0-4.0-1.0-1.0","hnqxxxvkj15hnz5","prime","5f58f55dbf27550b01e8dfb3","5f60e3c0a3b16e07647b2ff9","5f6104c0937bc10421ad9c91","true","1542.0699999994831","./Stimuli/SelectedImages/LM/LM58.bmp","83","","","","test","true","M + N","83","switch","LM","LM58.bmp","forget","","49","3","prime1","left","","","",""
"html-keyboard-response","121","549695","0.0-4.0-1.0-3.0","hnqxxxvkj15hnz5","prime","5f58f55dbf27550b01e8dfb3","5f60e3c0a3b16e07647b2ff9","5f6104c0937bc10421ad9c91","false","null","<div style=""align-items: center; display: flex; color: darkorange; font-size: 90px""><b>ø</b></div>","null","","","","forget_cue","","","","","","","","","","","","","","","",""
"html-keyboard-response","122","550401","0.0-4.0-1.0-0.1","hnqxxxvkj15hnz5","prime","5f58f55dbf27550b01e8dfb3","5f60e3c0a3b16e07647b2ff9","5f6104c0937bc10421ad9c91","false","null","<span style=""color: black; font-size: 48px"">N + M</span>","null","","","","resp_prompt","","","","","","","","","","","","","","","",""
"categorize-image","123","552419","0.0-4.0-1.0-1.1","hnqxxxvkj15hnz5","prime","5f58f55dbf27550b01e8dfb3","5f60e3c0a3b16e07647b2ff9","5f6104c0937bc10421ad9c91","true","null","./Stimuli/SelectedImages/SN/SN93.bmp","null","","","","test","false","N + M","83","switch","SN","SN93.bmp","remember","","50","3","prime1","too_slow","","","",""
"html-keyboard-response","124","552925","0.0-4.0-1.0-2.1-0.1","hnqxxxvkj15hnz5","prime","5f58f55dbf27550b01e8dfb3","5f60e3c0a3b16e07647b2ff9","5f6104c0937bc10421ad9c91","false","null","<span style=""color: red; font-size: 48px"">Too slow!</span>","null","","","","feedback","","","","","","","","","","","","","","","",""
"html-keyboard-response","125","554930","0.0-4.0-1.0-3.1","hnqxxxvkj15hnz5","prime","5f58f55dbf27550b01e8dfb3","5f60e3c0a3b16e07647b2ff9","5f6104c0937bc10421ad9c91","false","null","<div style=""align-items: center; display: flex; color: dodgerblue; font-size: 90px""><b>o</b></div>","null","","","","forget_cue","","","","","","","","","","","","","","","",""
"html-keyboard-response","126","555638","0.0-4.0-1.0-0.2","hnqxxxvkj15hnz5","prime","5f58f55dbf27550b01e8dfb3","5f60e3c0a3b16e07647b2ff9","5f6104c0937bc10421ad9c91","false","null","<span style=""color: black; font-size: 48px"">M + N</span>","null","","","","resp_prompt","","","","","","","","","","","","","","","",""
"categorize-image","127","556348","0.0-4.0-1.0-1.2","hnqxxxvkj15hnz5","prime","5f58f55dbf27550b01e8dfb3","5f60e3c0a3b16e07647b2ff9","5f6104c0937bc10421ad9c91","true","690.2499999996508","./Stimuli/SelectedImages/SM/SM78.bmp","83","","","","test","true","M + N","83","switch","SM","SM78.bmp","remember","","51","3","prime1","left","","","",""
"html-keyboard-response","128","558354","0.0-4.0-1.0-3.2","hnqxxxvkj15hnz5","prime","5f58f55dbf27550b01e8dfb3","5f60e3c0a3b16e07647b2ff9","5f6104c0937bc10421ad9c91","false","null","<div style=""align-items: center; display: flex; color: dodgerblue; font-size: 90px""><b>o</b></div>","null","","","","forget_cue","","","","","","","","","","","","","","","",""
"html-keyboard-response","129","559058","0.0-4.0-1.0-0.3","hnqxxxvkj15hnz5","prime","5f58f55dbf27550b01e8dfb3","5f60e3c0a3b16e07647b2ff9","5f6104c0937bc10421ad9c91","false","null","<span style=""color: black; font-size: 48px"">M + N</span>","null","","","","resp_prompt","","","","","","","","","","","","","","","",""
"categorize-image","130","559828","0.0-4.0-1.0-1.3","hnqxxxvkj15hnz5","prime","5f58f55dbf27550b01e8dfb3","5f60e3c0a3b16e07647b2ff9","5f6104c0937bc10421ad9c91","true","752.9649999997346","./Stimuli/SelectedImages/LN/LN101.bmp","76","","","","test","true","M + N","76","repetition","LN","LN101.bmp","forget","","52","3","prime1","right","","","",""
"html-keyboard-response","131","561837","0.0-4.0-1.0-3.3","hnqxxxvkj15hnz5","prime","5f58f55dbf27550b01e8dfb3","5f60e3c0a3b16e07647b2ff9","5f6104c0937bc10421ad9c91","false","null","<div style=""align-items: center; display: flex; color: darkorange; font-size: 90px""><b>ø</b></div>","null","","","","forget_cue","","","","","","","","","","","","","","","",""
"html-keyboard-response","132","562543","0.0-4.0-1.0-0.4","hnqxxxvkj15hnz5","prime","5f58f55dbf27550b01e8dfb3","5f60e3c0a3b16e07647b2ff9","5f6104c0937bc10421ad9c91","false","null","<span style=""color: black; font-size: 48px"">N + M</span>","null","","","","resp_prompt","","","","","","","","","","","","","","","",""
"categorize-image","133","563259","0.0-4.0-1.0-1.4","hnqxxxvkj15hnz5","prime","5f58f55dbf27550b01e8dfb3","5f60e3c0a3b16e07647b2ff9","5f6104c0937bc10421ad9c91","true","695.7799999981653","./Stimuli/SelectedImages/LM/LM59.bmp","76","","","","test","true","N + M","76","repetition","LM","LM59.bmp","forget","","53","3","prime1","right","","","",""
"html-keyboard-response","134","565268","0.0-4.0-1.0-3.4","hnqxxxvkj15hnz5","prime","5f58f55dbf27550b01e8dfb3","5f60e3c0a3b16e07647b2ff9","5f6104c0937bc10421ad9c91","false","null","<div style=""align-items: center; display: flex; color: darkorange; font-size: 90px""><b>ø</b></div>","null","","","","forget_cue","","","","","","","","","","","","","","","",""
"html-keyboard-response","135","565974","0.0-4.0-1.0-0.5","hnqxxxvkj15hnz5","prime","5f58f55dbf27550b01e8dfb3","5f60e3c0a3b16e07647b2ff9","5f6104c0937bc10421ad9c91","false","null","<span style=""color: black; font-size: 48px"">M + N</span>","null","","","","resp_prompt","","","","","","","","","","","","","","","",""
"categorize-image","136","566637","0.0-4.0-1.0-1.5","hnqxxxvkj15hnz5","prime","5f58f55dbf27550b01e8dfb3","5f60e3c0a3b16e07647b2ff9","5f6104c0937bc10421ad9c91","true","643.5999999993946","./Stimuli/SelectedImages/SM/SM108.bmp","83","","","","test","true","M + N","83","repetition","SM","SM108.bmp","remember","","54","3","prime1","left","","","",""
"html-keyboard-response","137","568646","0.0-4.0-1.0-3.5","hnqxxxvkj15hnz5","prime","5f58f55dbf27550b01e8dfb3","5f60e3c0a3b16e07647b2ff9","5f6104c0937bc10421ad9c91","false","null","<div style=""align-items: center; display: flex; color: dodgerblue; font-size: 90px""><b>o</b></div>","null","","","","forget_cue","","","","","","","","","","","","","","","",""
"html-keyboard-response","138","569352","0.0-4.0-1.0-0.6","hnqxxxvkj15hnz5","prime","5f58f55dbf27550b01e8dfb3","5f60e3c0a3b16e07647b2ff9","5f6104c0937bc10421ad9c91","false","null","<span style=""color: black; font-size: 48px"">N + M</span>","null","","","","resp_prompt","","","","","","","","","","","","","","","",""
"categorize-image","139","570463","0.0-4.0-1.0-1.6","hnqxxxvkj15hnz5","prime","5f58f55dbf27550b01e8dfb3","5f60e3c0a3b16e07647b2ff9","5f6104c0937bc10421ad9c91","true","1093.779999999213","./Stimuli/SelectedImages/LM/LM103.bmp","76","","","","test","true","N + M","76","repetition","LM","LM103.bmp","remember","","55","3","prime1","right","","","",""
"html-keyboard-response","140","572471","0.0-4.0-1.0-3.6","hnqxxxvkj15hnz5","prime","5f58f55dbf27550b01e8dfb3","5f60e3c0a3b16e07647b2ff9","5f6104c0937bc10421ad9c91","false","null","<div style=""align-items: center; display: flex; color: dodgerblue; font-size: 90px""><b>o</b></div>","null","","","","forget_cue","","","","","","","","","","","","","","","",""
"html-keyboard-response","141","573176","0.0-4.0-1.0-0.7","hnqxxxvkj15hnz5","prime","5f58f55dbf27550b01e8dfb3","5f60e3c0a3b16e07647b2ff9","5f6104c0937bc10421ad9c91","false","null","<span style=""color: black; font-size: 48px"">N + M</span>","null","","","","resp_prompt","","","","","","","","","","","","","","","",""
"categorize-image","142","573884","0.0-4.0-1.0-1.7","hnqxxxvkj15hnz5","prime","5f58f55dbf27550b01e8dfb3","5f60e3c0a3b16e07647b2ff9","5f6104c0937bc10421ad9c91","true","693.765000000014","./Stimuli/SelectedImages/LN/LN9.bmp","83","","","","test","true","N + M","83","switch","LN","LN9.bmp","forget","","56","3","prime1","left","","","",""
"html-keyboard-response","143","575892","0.0-4.0-1.0-3.7","hnqxxxvkj15hnz5","prime","5f58f55dbf27550b01e8dfb3","5f60e3c0a3b16e07647b2ff9","5f6104c0937bc10421ad9c91","false","null","<div style=""align-items: center; display: flex; color: darkorange; font-size: 90px""><b>ø</b></div>","null","","","","forget_cue","","","","","","","","","","","","","","","",""
"html-keyboard-response","144","576598","0.0-4.0-1.0-0.8","hnqxxxvkj15hnz5","prime","5f58f55dbf27550b01e8dfb3","5f60e3c0a3b16e07647b2ff9","5f6104c0937bc10421ad9c91","false","null","<span style=""color: black; font-size: 48px"">M + N</span>","null","","","","resp_prompt","","","","","","","","","","","","","","","",""
"categorize-image","145","577491","0.0-4.0-1.0-1.8","hnqxxxvkj15hnz5","prime","5f58f55dbf27550b01e8dfb3","5f60e3c0a3b16e07647b2ff9","5f6104c0937bc10421ad9c91","true","879.1799999999348","./Stimuli/SelectedImages/SN/SN187.bmp","76","","","","test","true","M + N","76","switch","SN","SN187.bmp","remember","","57","3","prime1","right","","","",""
"html-keyboard-response","146","579500","0.0-4.0-1.0-3.8","hnqxxxvkj15hnz5","prime","5f58f55dbf27550b01e8dfb3","5f60e3c0a3b16e07647b2ff9","5f6104c0937bc10421ad9c91","false","null","<div style=""align-items: center; display: flex; color: dodgerblue; font-size: 90px""><b>o</b></div>","null","","","","forget_cue","","","","","","","","","","","","","","","",""
"html-keyboard-response","147","580206","0.0-4.0-1.0-0.9","hnqxxxvkj15hnz5","prime","5f58f55dbf27550b01e8dfb3","5f60e3c0a3b16e07647b2ff9","5f6104c0937bc10421ad9c91","false","null","<span style=""color: black; font-size: 48px"">M + N</span>","null","","","","resp_prompt","","","","","","","","","","","","","","","",""
"categorize-image","148","581163","0.0-4.0-1.0-1.9","hnqxxxvkj15hnz5","prime","5f58f55dbf27550b01e8dfb3","5f60e3c0a3b16e07647b2ff9","5f6104c0937bc10421ad9c91","true","935.9900000017369","./Stimuli/SelectedImages/SN/SN18.bmp","76","","","","test","true","M + N","76","repetition","SN","SN18.bmp","remember","","58","3","prime1","right","","","",""
"html-keyboard-response","149","583170","0.0-4.0-1.0-3.9","hnqxxxvkj15hnz5","prime","5f58f55dbf27550b01e8dfb3","5f60e3c0a3b16e07647b2ff9","5f6104c0937bc10421ad9c91","false","null","<div style=""align-items: center; display: flex; color: dodgerblue; font-size: 90px""><b>o</b></div>","null","","","","forget_cue","","","","","","","","","","","","","","","",""
"html-keyboard-response","150","583875","0.0-4.0-1.0-0.10","hnqxxxvkj15hnz5","prime","5f58f55dbf27550b01e8dfb3","5f60e3c0a3b16e07647b2ff9","5f6104c0937bc10421ad9c91","false","null","<span style=""color: black; font-size: 48px"">N + M</span>","null","","","","resp_prompt","","","","","","","","","","","","","","","",""
"categorize-image","151","584817","0.0-4.0-1.0-1.10","hnqxxxvkj15hnz5","prime","5f58f55dbf27550b01e8dfb3","5f60e3c0a3b16e07647b2ff9","5f6104c0937bc10421ad9c91","true","922.1550000001444","./Stimuli/SelectedImages/LM/LM235.bmp","76","","","","test","true","N + M","76","repetition","LM","LM235.bmp","forget","","59","3","prime1","right","","","",""
"html-keyboard-response","152","586827","0.0-4.0-1.0-3.10","hnqxxxvkj15hnz5","prime","5f58f55dbf27550b01e8dfb3","5f60e3c0a3b16e07647b2ff9","5f6104c0937bc10421ad9c91","false","null","<div style=""align-items: center; display: flex; color: darkorange; font-size: 90px""><b>ø</b></div>","null","","","","forget_cue","","","","","","","","","","","","","","","",""
"html-keyboard-response","153","587533","0.0-4.0-1.0-0.11","hnqxxxvkj15hnz5","prime","5f58f55dbf27550b01e8dfb3","5f60e3c0a3b16e07647b2ff9","5f6104c0937bc10421ad9c91","false","null","<span style=""color: black; font-size: 48px"">M + N</span>","null","","","","resp_prompt","","","","","","","","","","","","","","","",""
"categorize-image","154","588284","0.0-4.0-1.0-1.11","hnqxxxvkj15hnz5","prime","5f58f55dbf27550b01e8dfb3","5f60e3c0a3b16e07647b2ff9","5f6104c0937bc10421ad9c91","true","731.5699999999488","./Stimuli/SelectedImages/SN/SN179.bmp","76","","","","test","true","M + N","76","switch","SN","SN179.bmp","forget","","60","3","prime1","right","","","",""
"html-keyboard-response","155","590292","0.0-4.0-1.0-3.11","hnqxxxvkj15hnz5","prime","5f58f55dbf27550b01e8dfb3","5f60e3c0a3b16e07647b2ff9","5f6104c0937bc10421ad9c91","false","null","<div style=""align-items: center; display: flex; color: darkorange; font-size: 90px""><b>ø</b></div>","null","","","","forget_cue","","","","","","","","","","","","","","","",""
"html-keyboard-response","156","590999","0.0-4.0-1.0-0.12","hnqxxxvkj15hnz5","prime","5f58f55dbf27550b01e8dfb3","5f60e3c0a3b16e07647b2ff9","5f6104c0937bc10421ad9c91","false","null","<span style=""color: black; font-size: 48px"">N + M</span>","null","","","","resp_prompt","","","","","","","","","","","","","","","",""
"categorize-image","157","592326","0.0-4.0-1.0-1.12","hnqxxxvkj15hnz5","prime","5f58f55dbf27550b01e8dfb3","5f60e3c0a3b16e07647b2ff9","5f6104c0937bc10421ad9c91","true","1315.0500000010943","./Stimuli/SelectedImages/LN/LN42.bmp","83","","","","test","true","N + M","83","switch","LN","LN42.bmp","forget","","61","3","prime1","left","","","",""
"html-keyboard-response","158","594331","0.0-4.0-1.0-3.12","hnqxxxvkj15hnz5","prime","5f58f55dbf27550b01e8dfb3","5f60e3c0a3b16e07647b2ff9","5f6104c0937bc10421ad9c91","false","null","<div style=""align-items: center; display: flex; color: darkorange; font-size: 90px""><b>ø</b></div>","null","","","","forget_cue","","","","","","","","","","","","","","","",""
"html-keyboard-response","159","595040","0.0-4.0-1.0-0.13","hnqxxxvkj15hnz5","prime","5f58f55dbf27550b01e8dfb3","5f60e3c0a3b16e07647b2ff9","5f6104c0937bc10421ad9c91","false","null","<span style=""color: black; font-size: 48px"">N + M</span>","null","","","","resp_prompt","","","","","","","","","","","","","","","",""
"categorize-image","160","596431","0.0-4.0-1.0-1.13","hnqxxxvkj15hnz5","prime","5f58f55dbf27550b01e8dfb3","5f60e3c0a3b16e07647b2ff9","5f6104c0937bc10421ad9c91","true","1361.4600000000792","./Stimuli/SelectedImages/SN/SN49.bmp","83","","","","test","true","N + M","83","switch","SN","SN49.bmp","remember","","62","3","prime1","left","","","",""
"html-keyboard-response","161","598438","0.0-4.0-1.0-3.13","hnqxxxvkj15hnz5","prime","5f58f55dbf27550b01e8dfb3","5f60e3c0a3b16e07647b2ff9","5f6104c0937bc10421ad9c91","false","null","<div style=""align-items: center; display: flex; color: dodgerblue; font-size: 90px""><b>o</b></div>","null","","","","forget_cue","","","","","","","","","","","","","","","",""
"html-keyboard-response","162","599145","0.0-4.0-1.0-0.14","hnqxxxvkj15hnz5","prime","5f58f55dbf27550b01e8dfb3","5f60e3c0a3b16e07647b2ff9","5f6104c0937bc10421ad9c91","false","null","<span style=""color: black; font-size: 48px"">N + M</span>","null","","","","resp_prompt","","","","","","","","","","","","","","","",""
"categorize-image","163","600200","0.0-4.0-1.0-1.14","hnqxxxvkj15hnz5","prime","5f58f55dbf27550b01e8dfb3","5f60e3c0a3b16e07647b2ff9","5f6104c0937bc10421ad9c91","true","1033.9600000006612","./Stimuli/SelectedImages/LM/LM75.bmp","76","","","","test","true","N + M","76","switch","LM","LM75.bmp","forget","","63","3","prime1","right","","","",""
"html-keyboard-response","164","602208","0.0-4.0-1.0-3.14","hnqxxxvkj15hnz5","prime","5f58f55dbf27550b01e8dfb3","5f60e3c0a3b16e07647b2ff9","5f6104c0937bc10421ad9c91","false","null","<div style=""align-items: center; display: flex; color: darkorange; font-size: 90px""><b>ø</b></div>","null","","","","forget_cue","","","","","","","","","","","","","","","",""
"html-keyboard-response","165","602916","0.0-4.0-1.0-0.15","hnqxxxvkj15hnz5","prime","5f58f55dbf27550b01e8dfb3","5f60e3c0a3b16e07647b2ff9","5f6104c0937bc10421ad9c91","false","null","<span style=""color: black; font-size: 48px"">N + M</span>","null","","","","resp_prompt","","","","","","","","","","","","","","","",""
"categorize-image","166","604307","0.0-4.0-1.0-1.15","hnqxxxvkj15hnz5","prime","5f58f55dbf27550b01e8dfb3","5f60e3c0a3b16e07647b2ff9","5f6104c0937bc10421ad9c91","true","1374.9800000005635","./Stimuli/SelectedImages/LM/LM157.bmp","83","","","","test","false","N + M","76","switch","LM","LM157.bmp","forget","","64","3","prime1","left","","","",""
"html-keyboard-response","167","604815","0.0-4.0-1.0-2.15-0.15","hnqxxxvkj15hnz5","prime","5f58f55dbf27550b01e8dfb3","5f60e3c0a3b16e07647b2ff9","5f6104c0937bc10421ad9c91","false","null","<span style=""color: red; font-size: 48px"">Error!</span>","null","","","","feedback","","","","","","","","","","","","","","","",""
"html-keyboard-response","168","606823","0.0-4.0-1.0-3.15","hnqxxxvkj15hnz5","prime","5f58f55dbf27550b01e8dfb3","5f60e3c0a3b16e07647b2ff9","5f6104c0937bc10421ad9c91","false","null","<div style=""align-items: center; display: flex; color: darkorange; font-size: 90px""><b>ø</b></div>","null","","","","forget_cue","","","","","","","","","","","","","","","",""
"html-keyboard-response","169","607530","0.0-4.0-1.0-0.16","hnqxxxvkj15hnz5","prime","5f58f55dbf27550b01e8dfb3","5f60e3c0a3b16e07647b2ff9","5f6104c0937bc10421ad9c91","false","null","<span style=""color: black; font-size: 48px"">M + N</span>","null","","","","resp_prompt","","","","","","","","","","","","","","","",""
"categorize-image","170","608504","0.0-4.0-1.0-1.16","hnqxxxvkj15hnz5","prime","5f58f55dbf27550b01e8dfb3","5f60e3c0a3b16e07647b2ff9","5f6104c0937bc10421ad9c91","true","953.9900000017369","./Stimuli/SelectedImages/SM/SM200.bmp","83","","","","test","true","M + N","83","switch","SM","SM200.bmp","forget","","65","3","prime1","left","","","",""
"html-keyboard-response","171","610512","0.0-4.0-1.0-3.16","hnqxxxvkj15hnz5","prime","5f58f55dbf27550b01e8dfb3","5f60e3c0a3b16e07647b2ff9","5f6104c0937bc10421ad9c91","false","null","<div style=""align-items: center; display: flex; color: darkorange; font-size: 90px""><b>ø</b></div>","null","","","","forget_cue","","","","","","","","","","","","","","","",""
"html-keyboard-response","172","611219","0.0-4.0-1.0-0.17","hnqxxxvkj15hnz5","prime","5f58f55dbf27550b01e8dfb3","5f60e3c0a3b16e07647b2ff9","5f6104c0937bc10421ad9c91","false","null","<span style=""color: black; font-size: 48px"">N + M</span>","null","","","","resp_prompt","","","","","","","","","","","","","","","",""
"categorize-image","173","612391","0.0-4.0-1.0-1.17","hnqxxxvkj15hnz5","prime","5f58f55dbf27550b01e8dfb3","5f60e3c0a3b16e07647b2ff9","5f6104c0937bc10421ad9c91","true","1154.0700000005309","./Stimuli/SelectedImages/SM/SM128.bmp","76","","","","test","true","N + M","76","switch","SM","SM128.bmp","forget","","66","3","prime1","right","","","",""
"html-keyboard-response","174","614398","0.0-4.0-1.0-3.17","hnqxxxvkj15hnz5","prime","5f58f55dbf27550b01e8dfb3","5f60e3c0a3b16e07647b2ff9","5f6104c0937bc10421ad9c91","false","null","<div style=""align-items: center; display: flex; color: darkorange; font-size: 90px""><b>ø</b></div>","null","","","","forget_cue","","","","","","","","","","","","","","","",""
"html-keyboard-response","175","615103","0.0-4.0-1.0-0.18","hnqxxxvkj15hnz5","prime","5f58f55dbf27550b01e8dfb3","5f60e3c0a3b16e07647b2ff9","5f6104c0937bc10421ad9c91","false","null","<span style=""color: black; font-size: 48px"">N + M</span>","null","","","","resp_prompt","","","","","","","","","","","","","","","",""
"categorize-image","176","615858","0.0-4.0-1.0-1.18","hnqxxxvkj15hnz5","prime","5f58f55dbf27550b01e8dfb3","5f60e3c0a3b16e07647b2ff9","5f6104c0937bc10421ad9c91","true","735.999999997206","./Stimuli/SelectedImages/LN/LN177.bmp","83","","","","test","true","N + M","83","switch","LN","LN177.bmp","remember","","67","3","prime1","left","","","",""
"html-keyboard-response","177","617864","0.0-4.0-1.0-3.18","hnqxxxvkj15hnz5","prime","5f58f55dbf27550b01e8dfb3","5f60e3c0a3b16e07647b2ff9","5f6104c0937bc10421ad9c91","false","null","<div style=""align-items: center; display: flex; color: dodgerblue; font-size: 90px""><b>o</b></div>","null","","","","forget_cue","","","","","","","","","","","","","","","",""
"html-keyboard-response","178","618570","0.0-4.0-1.0-0.19","hnqxxxvkj15hnz5","prime","5f58f55dbf27550b01e8dfb3","5f60e3c0a3b16e07647b2ff9","5f6104c0937bc10421ad9c91","false","null","<span style=""color: black; font-size: 48px"">M + N</span>","null","","","","resp_prompt","","","","","","","","","","","","","","","",""
"categorize-image","179","619352","0.0-4.0-1.0-1.19","hnqxxxvkj15hnz5","prime","5f58f55dbf27550b01e8dfb3","5f60e3c0a3b16e07647b2ff9","5f6104c0937bc10421ad9c91","true","759.9150000023656","./Stimuli/SelectedImages/LM/LM209.bmp","83","","","","test","true","M + N","83","repetition","LM","LM209.bmp","forget","","68","3","prime1","left","","","",""
"html-keyboard-response","180","621359","0.0-4.0-1.0-3.19","hnqxxxvkj15hnz5","prime","5f58f55dbf27550b01e8dfb3","5f60e3c0a3b16e07647b2ff9","5f6104c0937bc10421ad9c91","false","null","<div style=""align-items: center; display: flex; color: darkorange; font-size: 90px""><b>ø</b></div>","null","","","","forget_cue","","","","","","","","","","","","","","","",""
"html-keyboard-response","181","622066","0.0-4.0-1.0-0.20","hnqxxxvkj15hnz5","prime","5f58f55dbf27550b01e8dfb3","5f60e3c0a3b16e07647b2ff9","5f6104c0937bc10421ad9c91","false","null","<span style=""color: black; font-size: 48px"">M + N</span>","null","","","","resp_prompt","","","","","","","","","","","","","","","",""
"categorize-image","182","622745","0.0-4.0-1.0-1.20","hnqxxxvkj15hnz5","prime","5f58f55dbf27550b01e8dfb3","5f60e3c0a3b16e07647b2ff9","5f6104c0937bc10421ad9c91","true","659.9199999981793","./Stimuli/SelectedImages/SM/SM184.bmp","83","","","","test","true","M + N","83","repetition","SM","SM184.bmp","remember","","69","3","prime1","left","","","",""
"html-keyboard-response","183","624753","0.0-4.0-1.0-3.20","hnqxxxvkj15hnz5","prime","5f58f55dbf27550b01e8dfb3","5f60e3c0a3b16e07647b2ff9","5f6104c0937bc10421ad9c91","false","null","<div style=""align-items: center; display: flex; color: dodgerblue; font-size: 90px""><b>o</b></div>","null","","","","forget_cue","","","","","","","","","","","","","","","",""
"html-keyboard-response","184","625461","0.0-4.0-1.0-0.21","hnqxxxvkj15hnz5","prime","5f58f55dbf27550b01e8dfb3","5f60e3c0a3b16e07647b2ff9","5f6104c0937bc10421ad9c91","false","null","<span style=""color: black; font-size: 48px"">M + N</span>","null","","","","resp_prompt","","","","","","","","","","","","","","","",""
"categorize-image","185","626170","0.0-4.0-1.0-1.21","hnqxxxvkj15hnz5","prime","5f58f55dbf27550b01e8dfb3","5f60e3c0a3b16e07647b2ff9","5f6104c0937bc10421ad9c91","true","690.1199999994133","./Stimuli/SelectedImages/LN/LN12.bmp","76","","","","test","true","M + N","76","switch","LN","LN12.bmp","remember","","70","3","prime1","right","","","",""
"html-keyboard-response","186","628176","0.0-4.0-1.0-3.21","hnqxxxvkj15hnz5","prime","5f58f55dbf27550b01e8dfb3","5f60e3c0a3b16e07647b2ff9","5f6104c0937bc10421ad9c91","false","null","<div style=""align-items: center; display: flex; color: dodgerblue; font-size: 90px""><b>o</b></div>","null","","","","forget_cue","","","","","","","","","","","","","","","",""
"html-keyboard-response","187","628885","0.0-4.0-1.0-0.22","hnqxxxvkj15hnz5","prime","5f58f55dbf27550b01e8dfb3","5f60e3c0a3b16e07647b2ff9","5f6104c0937bc10421ad9c91","false","null","<span style=""color: black; font-size: 48px"">N + M</span>","null","","","","resp_prompt","","","","","","","","","","","","","","","",""
"categorize-image","188","630467","0.0-4.0-1.0-1.22","hnqxxxvkj15hnz5","prime","5f58f55dbf27550b01e8dfb3","5f60e3c0a3b16e07647b2ff9","5f6104c0937bc10421ad9c91","true","1563.1549999999115","./Stimuli/SelectedImages/LN/LN59.bmp","83","","","","test","true","N + M","83","repetition","LN","LN59.bmp","forget","","71","3","prime1","left","","","",""
"html-keyboard-response","189","632474","0.0-4.0-1.0-3.22","hnqxxxvkj15hnz5","prime","5f58f55dbf27550b01e8dfb3","5f60e3c0a3b16e07647b2ff9","5f6104c0937bc10421ad9c91","false","null","<div style=""align-items: center; display: flex; color: darkorange; font-size: 90px""><b>ø</b></div>","null","","","","forget_cue","","","","","","","","","","","","","","","",""
"html-keyboard-response","190","633179","0.0-4.0-1.0-0.23","hnqxxxvkj15hnz5","prime","5f58f55dbf27550b01e8dfb3","5f60e3c0a3b16e07647b2ff9","5f6104c0937bc10421ad9c91","false","null","<span style=""color: black; font-size: 48px"">M + N</span>","null","","","","resp_prompt","","","","","","","","","","","","","","","",""
"categorize-image","191","633966","0.0-4.0-1.0-1.23","hnqxxxvkj15hnz5","prime","5f58f55dbf27550b01e8dfb3","5f60e3c0a3b16e07647b2ff9","5f6104c0937bc10421ad9c91","true","767.4500000029802","./Stimuli/SelectedImages/LM/LM150.bmp","83","","","","test","true","M + N","83","switch","LM","LM150.bmp","forget","","72","3","prime1","left","","","",""
"html-keyboard-response","192","635972","0.0-4.0-1.0-3.23","hnqxxxvkj15hnz5","prime","5f58f55dbf27550b01e8dfb3","5f60e3c0a3b16e07647b2ff9","5f6104c0937bc10421ad9c91","false","null","<div style=""align-items: center; display: flex; color: darkorange; font-size: 90px""><b>ø</b></div>","null","","","","forget_cue","","","","","","","","","","","","","","","",""
"html-keyboard-response","193","636678","0.0-4.0-1.0-0.24","hnqxxxvkj15hnz5","prime","5f58f55dbf27550b01e8dfb3","5f60e3c0a3b16e07647b2ff9","5f6104c0937bc10421ad9c91","false","null","<span style=""color: black; font-size: 48px"">N + M</span>","null","","","","resp_prompt","","","","","","","","","","","","","","","",""
"categorize-image","194","637436","0.0-4.0-1.0-1.24","hnqxxxvkj15hnz5","prime","5f58f55dbf27550b01e8dfb3","5f60e3c0a3b16e07647b2ff9","5f6104c0937bc10421ad9c91","true","737.3299999999581","./Stimuli/SelectedImages/SM/SM207.bmp","76","","","","test","true","N + M","76","switch","SM","SM207.bmp","remember","","73","3","prime1","right","","","",""
"html-keyboard-response","195","639442","0.0-4.0-1.0-3.24","hnqxxxvkj15hnz5","prime","5f58f55dbf27550b01e8dfb3","5f60e3c0a3b16e07647b2ff9","5f6104c0937bc10421ad9c91","false","null","<div style=""align-items: center; display: flex; color: dodgerblue; font-size: 90px""><b>o</b></div>","null","","","","forget_cue","","","","","","","","","","","","","","","",""
"html-keyboard-response","196","640150","0.0-4.0-1.0-0.25","hnqxxxvkj15hnz5","prime","5f58f55dbf27550b01e8dfb3","5f60e3c0a3b16e07647b2ff9","5f6104c0937bc10421ad9c91","false","null","<span style=""color: black; font-size: 48px"">N + M</span>","null","","","","resp_prompt","","","","","","","","","","","","","","","",""
"categorize-image","197","641940","0.0-4.0-1.0-1.25","hnqxxxvkj15hnz5","prime","5f58f55dbf27550b01e8dfb3","5f60e3c0a3b16e07647b2ff9","5f6104c0937bc10421ad9c91","true","1768.7799999985145","./Stimuli/SelectedImages/LN/LN149.bmp","83","","","","test","true","N + M","83","repetition","LN","LN149.bmp","remember","","74","3","prime1","left","","","",""
"html-keyboard-response","198","643947","0.0-4.0-1.0-3.25","hnqxxxvkj15hnz5","prime","5f58f55dbf27550b01e8dfb3","5f60e3c0a3b16e07647b2ff9","5f6104c0937bc10421ad9c91","false","null","<div style=""align-items: center; display: flex; color: dodgerblue; font-size: 90px""><b>o</b></div>","null","","","","forget_cue","","","","","","","","","","","","","","","",""
"html-keyboard-response","199","644654","0.0-4.0-1.0-0.26","hnqxxxvkj15hnz5","prime","5f58f55dbf27550b01e8dfb3","5f60e3c0a3b16e07647b2ff9","5f6104c0937bc10421ad9c91","false","null","<span style=""color: black; font-size: 48px"">M + N</span>","null","","","","resp_prompt","","","","","","","","","","","","","","","",""
"categorize-image","200","645565","0.0-4.0-1.0-1.26","hnqxxxvkj15hnz5","prime","5f58f55dbf27550b01e8dfb3","5f60e3c0a3b16e07647b2ff9","5f6104c0937bc10421ad9c91","true","891.8849999972153","./Stimuli/SelectedImages/LN/LN92.bmp","76","","","","test","true","M + N","76","repetition","LN","LN92.bmp","remember","","75","3","prime1","right","","","",""
"html-keyboard-response","201","647573","0.0-4.0-1.0-3.26","hnqxxxvkj15hnz5","prime","5f58f55dbf27550b01e8dfb3","5f60e3c0a3b16e07647b2ff9","5f6104c0937bc10421ad9c91","false","null","<div style=""align-items: center; display: flex; color: dodgerblue; font-size: 90px""><b>o</b></div>","null","","","","forget_cue","","","","","","","","","","","","","","","",""
"html-keyboard-response","202","648280","0.0-4.0-1.0-0.27","hnqxxxvkj15hnz5","prime","5f58f55dbf27550b01e8dfb3","5f60e3c0a3b16e07647b2ff9","5f6104c0937bc10421ad9c91","false","null","<span style=""color: black; font-size: 48px"">M + N</span>","null","","","","resp_prompt","","","","","","","","","","","","","","","",""
"categorize-image","203","649374","0.0-4.0-1.0-1.27","hnqxxxvkj15hnz5","prime","5f58f55dbf27550b01e8dfb3","5f60e3c0a3b16e07647b2ff9","5f6104c0937bc10421ad9c91","true","1073.0449999973644","./Stimuli/SelectedImages/SN/SN140.bmp","83","","","","test","false","M + N","76","switch","SN","SN140.bmp","remember","","76","3","prime1","left","","","",""
"html-keyboard-response","204","649883","0.0-4.0-1.0-2.27-0.27","hnqxxxvkj15hnz5","prime","5f58f55dbf27550b01e8dfb3","5f60e3c0a3b16e07647b2ff9","5f6104c0937bc10421ad9c91","false","null","<span style=""color: red; font-size: 48px"">Error!</span>","null","","","","feedback","","","","","","","","","","","","","","","",""
"html-keyboard-response","205","651890","0.0-4.0-1.0-3.27","hnqxxxvkj15hnz5","prime","5f58f55dbf27550b01e8dfb3","5f60e3c0a3b16e07647b2ff9","5f6104c0937bc10421ad9c91","false","null","<div style=""align-items: center; display: flex; color: dodgerblue; font-size: 90px""><b>o</b></div>","null","","","","forget_cue","","","","","","","","","","","","","","","",""
"html-keyboard-response","206","652595","0.0-4.0-1.0-0.28","hnqxxxvkj15hnz5","prime","5f58f55dbf27550b01e8dfb3","5f60e3c0a3b16e07647b2ff9","5f6104c0937bc10421ad9c91","false","null","<span style=""color: black; font-size: 48px"">N + M</span>","null","","","","resp_prompt","","","","","","","","","","","","","","","",""
"categorize-image","207","653504","0.0-4.0-1.0-1.28","hnqxxxvkj15hnz5","prime","5f58f55dbf27550b01e8dfb3","5f60e3c0a3b16e07647b2ff9","5f6104c0937bc10421ad9c91","true","889.9050000000279","./Stimuli/SelectedImages/SN/SN181.bmp","83","","","","test","true","N + M","83","repetition","SN","SN181.bmp","remember","","77","3","prime1","left","","","",""
"html-keyboard-response","208","655511","0.0-4.0-1.0-3.28","hnqxxxvkj15hnz5","prime","5f58f55dbf27550b01e8dfb3","5f60e3c0a3b16e07647b2ff9","5f6104c0937bc10421ad9c91","false","null","<div style=""align-items: center; display: flex; color: dodgerblue; font-size: 90px""><b>o</b></div>","null","","","","forget_cue","","","","","","","","","","","","","","","",""
"html-keyboard-response","209","656220","0.0-4.0-1.0-0.29","hnqxxxvkj15hnz5","prime","5f58f55dbf27550b01e8dfb3","5f60e3c0a3b16e07647b2ff9","5f6104c0937bc10421ad9c91","false","null","<span style=""color: black; font-size: 48px"">N + M</span>","null","","","","resp_prompt","","","","","","","","","","","","","","","",""
"categorize-image","210","657064","0.0-4.0-1.0-1.29","hnqxxxvkj15hnz5","prime","5f58f55dbf27550b01e8dfb3","5f60e3c0a3b16e07647b2ff9","5f6104c0937bc10421ad9c91","true","825.6449999972247","./Stimuli/SelectedImages/LN/LN13.bmp","83","","","","test","true","N + M","83","repetition","LN","LN13.bmp","remember","","78","3","prime1","left","","","",""
"html-keyboard-response","211","659070","0.0-4.0-1.0-3.29","hnqxxxvkj15hnz5","prime","5f58f55dbf27550b01e8dfb3","5f60e3c0a3b16e07647b2ff9","5f6104c0937bc10421ad9c91","false","null","<div style=""align-items: center; display: flex; color: dodgerblue; font-size: 90px""><b>o</b></div>","null","","","","forget_cue","","","","","","","","","","","","","","","",""
"html-keyboard-response","212","659778","0.0-4.0-1.0-0.30","hnqxxxvkj15hnz5","prime","5f58f55dbf27550b01e8dfb3","5f60e3c0a3b16e07647b2ff9","5f6104c0937bc10421ad9c91","false","null","<span style=""color: black; font-size: 48px"">N + M</span>","null","","","","resp_prompt","","","","","","","","","","","","","","","",""
"categorize-image","213","660878","0.0-4.0-1.0-1.30","hnqxxxvkj15hnz5","prime","5f58f55dbf27550b01e8dfb3","5f60e3c0a3b16e07647b2ff9","5f6104c0937bc10421ad9c91","true","1080.5799999980954","./Stimuli/SelectedImages/SM/SM213.bmp","76","","","","test","true","N + M","76","repetition","SM","SM213.bmp","remember","","79","3","prime1","right","","","",""
"html-keyboard-response","214","662887","0.0-4.0-1.0-3.30","hnqxxxvkj15hnz5","prime","5f58f55dbf27550b01e8dfb3","5f60e3c0a3b16e07647b2ff9","5f6104c0937bc10421ad9c91","false","null","<div style=""align-items: center; display: flex; color: dodgerblue; font-size: 90px""><b>o</b></div>","null","","","","forget_cue","","","","","","","","","","","","","","","",""
"html-keyboard-response","215","663594","0.0-4.0-1.0-0.31","hnqxxxvkj15hnz5","prime","5f58f55dbf27550b01e8dfb3","5f60e3c0a3b16e07647b2ff9","5f6104c0937bc10421ad9c91","false","null","<span style=""color: black; font-size: 48px"">N + M</span>","null","","","","resp_prompt","","","","","","","","","","","","","","","",""
"categorize-image","216","664218","0.0-4.0-1.0-1.31","hnqxxxvkj15hnz5","prime","5f58f55dbf27550b01e8dfb3","5f60e3c0a3b16e07647b2ff9","5f6104c0937bc10421ad9c91","true","603.2300000005635","./Stimuli/SelectedImages/LM/LM100.bmp","76","","","","test","true","N + M","76","repetition","LM","LM100.bmp","remember","","80","3","prime1","right","","","",""
"html-keyboard-response","217","666228","0.0-4.0-1.0-3.31","hnqxxxvkj15hnz5","prime","5f58f55dbf27550b01e8dfb3","5f60e3c0a3b16e07647b2ff9","5f6104c0937bc10421ad9c91","false","null","<div style=""align-items: center; display: flex; color: dodgerblue; font-size: 90px""><b>o</b></div>","null","","","","forget_cue","","","","","","","","","","","","","","","",""
"html-keyboard-response","218","666935","0.0-4.0-1.0-0.32","hnqxxxvkj15hnz5","prime","5f58f55dbf27550b01e8dfb3","5f60e3c0a3b16e07647b2ff9","5f6104c0937bc10421ad9c91","false","null","<span style=""color: black; font-size: 48px"">M + N</span>","null","","","","resp_prompt","","","","","","","","","","","","","","","",""
"categorize-image","219","667541","0.0-4.0-1.0-1.32","hnqxxxvkj15hnz5","prime","5f58f55dbf27550b01e8dfb3","5f60e3c0a3b16e07647b2ff9","5f6104c0937bc10421ad9c91","true","589.0599999984261","./Stimuli/SelectedImages/LM/LM57.bmp","83","","","","test","true","M + N","83","repetition","LM","LM57.bmp","forget","","81","3","prime1","left","","","",""
"html-keyboard-response","220","669547","0.0-4.0-1.0-3.32","hnqxxxvkj15hnz5","prime","5f58f55dbf27550b01e8dfb3","5f60e3c0a3b16e07647b2ff9","5f6104c0937bc10421ad9c91","false","null","<div style=""align-items: center; display: flex; color: darkorange; font-size: 90px""><b>ø</b></div>","null","","","","forget_cue","","","","","","","","","","","","","","","",""
"html-keyboard-response","221","670254","0.0-4.0-1.0-0.33","hnqxxxvkj15hnz5","prime","5f58f55dbf27550b01e8dfb3","5f60e3c0a3b16e07647b2ff9","5f6104c0937bc10421ad9c91","false","null","<span style=""color: black; font-size: 48px"">N + M</span>","null","","","","resp_prompt","","","","","","","","","","","","","","","",""
"categorize-image","222","671323","0.0-4.0-1.0-1.33","hnqxxxvkj15hnz5","prime","5f58f55dbf27550b01e8dfb3","5f60e3c0a3b16e07647b2ff9","5f6104c0937bc10421ad9c91","true","1047.8750000002328","./Stimuli/SelectedImages/SM/SM76.bmp","76","","","","test","true","N + M","76","switch","SM","SM76.bmp","remember","","82","3","prime1","right","","","",""
"html-keyboard-response","223","673330","0.0-4.0-1.0-3.33","hnqxxxvkj15hnz5","prime","5f58f55dbf27550b01e8dfb3","5f60e3c0a3b16e07647b2ff9","5f6104c0937bc10421ad9c91","false","null","<div style=""align-items: center; display: flex; color: dodgerblue; font-size: 90px""><b>o</b></div>","null","","","","forget_cue","","","","","","","","","","","","","","","",""
"html-keyboard-response","224","674035","0.0-4.0-1.0-0.34","hnqxxxvkj15hnz5","prime","5f58f55dbf27550b01e8dfb3","5f60e3c0a3b16e07647b2ff9","5f6104c0937bc10421ad9c91","false","null","<span style=""color: black; font-size: 48px"">M + N</span>","null","","","","resp_prompt","","","","","","","","","","","","","","","",""
"categorize-image","225","674816","0.0-4.0-1.0-1.34","hnqxxxvkj15hnz5","prime","5f58f55dbf27550b01e8dfb3","5f60e3c0a3b16e07647b2ff9","5f6104c0937bc10421ad9c91","true","760.7099999986822","./Stimuli/SelectedImages/SN/SN111.bmp","76","","","","test","true","M + N","76","repetition","SN","SN111.bmp","forget","","83","3","prime1","right","","","",""
"html-keyboard-response","226","676823","0.0-4.0-1.0-3.34","hnqxxxvkj15hnz5","prime","5f58f55dbf27550b01e8dfb3","5f60e3c0a3b16e07647b2ff9","5f6104c0937bc10421ad9c91","false","null","<div style=""align-items: center; display: flex; color: darkorange; font-size: 90px""><b>ø</b></div>","null","","","","forget_cue","","","","","","","","","","","","","","","",""
"html-keyboard-response","227","677531","0.0-4.0-1.0-0.35","hnqxxxvkj15hnz5","prime","5f58f55dbf27550b01e8dfb3","5f60e3c0a3b16e07647b2ff9","5f6104c0937bc10421ad9c91","false","null","<span style=""color: black; font-size: 48px"">N + M</span>","null","","","","resp_prompt","","","","","","","","","","","","","","","",""
"categorize-image","228","678892","0.0-4.0-1.0-1.35","hnqxxxvkj15hnz5","prime","5f58f55dbf27550b01e8dfb3","5f60e3c0a3b16e07647b2ff9","5f6104c0937bc10421ad9c91","true","1342.1400000007125","./Stimuli/SelectedImages/SN/SN240.bmp","83","","","","test","true","N + M","83","repetition","SN","SN240.bmp","remember","","84","3","prime1","left","","","",""
"html-keyboard-response","229","680898","0.0-4.0-1.0-3.35","hnqxxxvkj15hnz5","prime","5f58f55dbf27550b01e8dfb3","5f60e3c0a3b16e07647b2ff9","5f6104c0937bc10421ad9c91","false","null","<div style=""align-items: center; display: flex; color: dodgerblue; font-size: 90px""><b>o</b></div>","null","","","","forget_cue","","","","","","","","","","","","","","","",""
"html-keyboard-response","230","681604","0.0-4.0-1.0-0.36","hnqxxxvkj15hnz5","prime","5f58f55dbf27550b01e8dfb3","5f60e3c0a3b16e07647b2ff9","5f6104c0937bc10421ad9c91","false","null","<span style=""color: black; font-size: 48px"">M + N</span>","null","","","","resp_prompt","","","","","","","","","","","","","","","",""
"categorize-image","231","682267","0.0-4.0-1.0-1.36","hnqxxxvkj15hnz5","prime","5f58f55dbf27550b01e8dfb3","5f60e3c0a3b16e07647b2ff9","5f6104c0937bc10421ad9c91","true","642.6600000013132","./Stimuli/SelectedImages/SM/SM17.bmp","83","","","","test","true","M + N","83","repetition","SM","SM17.bmp","forget","","85","3","prime1","left","","","",""
"html-keyboard-response","232","684273","0.0-4.0-1.0-3.36","hnqxxxvkj15hnz5","prime","5f58f55dbf27550b01e8dfb3","5f60e3c0a3b16e07647b2ff9","5f6104c0937bc10421ad9c91","false","null","<div style=""align-items: center; display: flex; color: darkorange; font-size: 90px""><b>ø</b></div>","null","","","","forget_cue","","","","","","","","","","","","","","","",""
"html-keyboard-response","233","684981","0.0-4.0-1.0-0.37","hnqxxxvkj15hnz5","prime","5f58f55dbf27550b01e8dfb3","5f60e3c0a3b16e07647b2ff9","5f6104c0937bc10421ad9c91","false","null","<span style=""color: black; font-size: 48px"">M + N</span>","null","","","","resp_prompt","","","","","","","","","","","","","","","",""
"categorize-image","234","685684","0.0-4.0-1.0-1.37","hnqxxxvkj15hnz5","prime","5f58f55dbf27550b01e8dfb3","5f60e3c0a3b16e07647b2ff9","5f6104c0937bc10421ad9c91","true","672.7650000030408","./Stimuli/SelectedImages/LM/LM51.bmp","83","","","","test","true","M + N","83","switch","LM","LM51.bmp","remember","","86","3","prime1","left","","","",""
"html-keyboard-response","235","687693","0.0-4.0-1.0-3.37","hnqxxxvkj15hnz5","prime","5f58f55dbf27550b01e8dfb3","5f60e3c0a3b16e07647b2ff9","5f6104c0937bc10421ad9c91","false","null","<div style=""align-items: center; display: flex; color: dodgerblue; font-size: 90px""><b>o</b></div>","null","","","","forget_cue","","","","","","","","","","","","","","","",""
"html-keyboard-response","236","688401","0.0-4.0-1.0-0.38","hnqxxxvkj15hnz5","prime","5f58f55dbf27550b01e8dfb3","5f60e3c0a3b16e07647b2ff9","5f6104c0937bc10421ad9c91","false","null","<span style=""color: black; font-size: 48px"">N + M</span>","null","","","","resp_prompt","","","","","","","","","","","","","","","",""
"categorize-image","237","689024","0.0-4.0-1.0-1.38","hnqxxxvkj15hnz5","prime","5f58f55dbf27550b01e8dfb3","5f60e3c0a3b16e07647b2ff9","5f6104c0937bc10421ad9c91","true","603.1399999993155","./Stimuli/SelectedImages/SM/SM73.bmp","76","","","","test","true","N + M","76","repetition","SM","SM73.bmp","forget","","87","3","prime1","right","","","",""
"html-keyboard-response","238","691031","0.0-4.0-1.0-3.38","hnqxxxvkj15hnz5","prime","5f58f55dbf27550b01e8dfb3","5f60e3c0a3b16e07647b2ff9","5f6104c0937bc10421ad9c91","false","null","<div style=""align-items: center; display: flex; color: darkorange; font-size: 90px""><b>ø</b></div>","null","","","","forget_cue","","","","","","","","","","","","","","","",""
"html-keyboard-response","239","691736","0.0-4.0-1.0-0.39","hnqxxxvkj15hnz5","prime","5f58f55dbf27550b01e8dfb3","5f60e3c0a3b16e07647b2ff9","5f6104c0937bc10421ad9c91","false","null","<span style=""color: black; font-size: 48px"">M + N</span>","null","","","","resp_prompt","","","","","","","","","","","","","","","",""
"categorize-image","240","692786","0.0-4.0-1.0-1.39","hnqxxxvkj15hnz5","prime","5f58f55dbf27550b01e8dfb3","5f60e3c0a3b16e07647b2ff9","5f6104c0937bc10421ad9c91","true","1028.7400000016205","./Stimuli/SelectedImages/LN/LN150.bmp","76","","","","test","true","M + N","76","switch","LN","LN150.bmp","forget","","88","3","prime1","right","","","",""
"html-keyboard-response","241","694796","0.0-4.0-1.0-3.39","hnqxxxvkj15hnz5","prime","5f58f55dbf27550b01e8dfb3","5f60e3c0a3b16e07647b2ff9","5f6104c0937bc10421ad9c91","false","null","<div style=""align-items: center; display: flex; color: darkorange; font-size: 90px""><b>ø</b></div>","null","","","","forget_cue","","","","","","","","","","","","","","","",""
"html-keyboard-response","242","695504","0.0-4.0-1.0-0.40","hnqxxxvkj15hnz5","prime","5f58f55dbf27550b01e8dfb3","5f60e3c0a3b16e07647b2ff9","5f6104c0937bc10421ad9c91","false","null","<span style=""color: black; font-size: 48px"">M + N</span>","null","","","","resp_prompt","","","","","","","","","","","","","","","",""
"categorize-image","243","696307","0.0-4.0-1.0-1.40","hnqxxxvkj15hnz5","prime","5f58f55dbf27550b01e8dfb3","5f60e3c0a3b16e07647b2ff9","5f6104c0937bc10421ad9c91","true","785.7600000025705","./Stimuli/SelectedImages/SM/SM24.bmp","83","","","","test","true","M + N","83","switch","SM","SM24.bmp","forget","","89","3","prime1","left","","","",""
"html-keyboard-response","244","698314","0.0-4.0-1.0-3.40","hnqxxxvkj15hnz5","prime","5f58f55dbf27550b01e8dfb3","5f60e3c0a3b16e07647b2ff9","5f6104c0937bc10421ad9c91","false","null","<div style=""align-items: center; display: flex; color: darkorange; font-size: 90px""><b>ø</b></div>","null","","","","forget_cue","","","","","","","","","","","","","","","",""
"html-keyboard-response","245","699019","0.0-4.0-1.0-0.41","hnqxxxvkj15hnz5","prime","5f58f55dbf27550b01e8dfb3","5f60e3c0a3b16e07647b2ff9","5f6104c0937bc10421ad9c91","false","null","<span style=""color: black; font-size: 48px"">M + N</span>","null","","","","resp_prompt","","","","","","","","","","","","","","","",""
"categorize-image","246","699751","0.0-4.0-1.0-1.41","hnqxxxvkj15hnz5","prime","5f58f55dbf27550b01e8dfb3","5f60e3c0a3b16e07647b2ff9","5f6104c0937bc10421ad9c91","true","710.6449999992037","./Stimuli/SelectedImages/LN/LN128.bmp","76","","","","test","true","M + N","76","repetition","LN","LN128.bmp","remember","","90","3","prime1","right","","","",""
"html-keyboard-response","247","701758","0.0-4.0-1.0-3.41","hnqxxxvkj15hnz5","prime","5f58f55dbf27550b01e8dfb3","5f60e3c0a3b16e07647b2ff9","5f6104c0937bc10421ad9c91","false","null","<div style=""align-items: center; display: flex; color: dodgerblue; font-size: 90px""><b>o</b></div>","null","","","","forget_cue","","","","","","","","","","","","","","","",""
"html-keyboard-response","248","702465","0.0-4.0-1.0-0.42","hnqxxxvkj15hnz5","prime","5f58f55dbf27550b01e8dfb3","5f60e3c0a3b16e07647b2ff9","5f6104c0937bc10421ad9c91","false","null","<span style=""color: black; font-size: 48px"">N + M</span>","null","","","","resp_prompt","","","","","","","","","","","","","","","",""
"categorize-image","249","703298","0.0-4.0-1.0-1.42","hnqxxxvkj15hnz5","prime","5f58f55dbf27550b01e8dfb3","5f60e3c0a3b16e07647b2ff9","5f6104c0937bc10421ad9c91","true","813.1799999973737","./Stimuli/SelectedImages/LM/LM179.bmp","76","","","","test","true","N + M","76","switch","LM","LM179.bmp","remember","","91","3","prime1","right","","","",""
"html-keyboard-response","250","705307","0.0-4.0-1.0-3.42","hnqxxxvkj15hnz5","prime","5f58f55dbf27550b01e8dfb3","5f60e3c0a3b16e07647b2ff9","5f6104c0937bc10421ad9c91","false","null","<div style=""align-items: center; display: flex; color: dodgerblue; font-size: 90px""><b>o</b></div>","null","","","","forget_cue","","","","","","","","","","","","","","","",""
"html-keyboard-response","251","706013","0.0-4.0-1.0-0.43","hnqxxxvkj15hnz5","prime","5f58f55dbf27550b01e8dfb3","5f60e3c0a3b16e07647b2ff9","5f6104c0937bc10421ad9c91","false","null","<span style=""color: black; font-size: 48px"">M + N</span>","null","","","","resp_prompt","","","","","","","","","","","","","","","",""
"categorize-image","252","706764","0.0-4.0-1.0-1.43","hnqxxxvkj15hnz5","prime","5f58f55dbf27550b01e8dfb3","5f60e3c0a3b16e07647b2ff9","5f6104c0937bc10421ad9c91","true","731.4949999999953","./Stimuli/SelectedImages/LM/LM48.bmp","83","","","","test","true","M + N","83","repetition","LM","LM48.bmp","remember","","92","3","prime1","left","","","",""
