"trial_type","trial_index","time_elapsed","internal_node_id","subject","exp_part","prolific_PID","study_ID","session_ID","use","rt","stimulus","key_press","button_pressed","responses","question_order","trial_part","correct","resp_map","correct_resp","probe_condition","category","image","forget_condition","list","trial_num","block_num","block","response","test_part","n_span","sequence","num_spaces"
"pavlovia","0","9","0.0-0.0","c5w2mut7wo39oyu","","5d2202ffa80a600017d967b5","5f60e3c0a3b16e07647b2ff9","5f60ef206e7508000b74abe2","false","","","","","","","","","","","","","","","","","","","","","","",""
"html-keyboard-response","1","10900","0.0-1.0-0.0-0.0","c5w2mut7wo39oyu","welcome","5d2202ffa80a600017d967b5","5f60e3c0a3b16e07647b2ff9","5f60ef206e7508000b74abe2","false","10885.195000097156","<div align=left>Dear participant, <br> thank you for participating in an online study of the Cognition, Action, and Sustainability Unit of the University of Freiburg! <br> <br>The aim of this study is to examine our ability to remember previously learned information. <br>Our goal is to find out, whether our memory improves, when we only remember information that is relevant to us. <br>The experiment will take about 35 minutes to complete. <br> <br>Please, note that you can only participate in this study if you are using a device with a keyboard (PC, Laptop etc.) <br>and not if you are using a mobile device such as a tablet or smartphone.<br> <br>Press 'SPACE' to proceed to the experiment. </div>","32","","","","","","","","","","","","","","","","","","","",""
"html-keyboard-response","2","24070","0.0-1.0-0.0-1.0","c5w2mut7wo39oyu","welcome","5d2202ffa80a600017d967b5","5f60e3c0a3b16e07647b2ff9","5f60ef206e7508000b74abe2","false","13166.289999848232","<div align=left><strong> Time Course of this experiment: </strong> <br><br> <strong> 1.</strong>  First, please fill in some information regarding your demographic data. <br><br> <strong> 2.</strong>  Next, your task will be to classify everyday objects. <br>In addition, you will be asked to remember certain objects and recall them later. <br>Working on these tasks requires your undivided attention and concentration.<br>It is therefore essential that you eliminate any sources of distraction in your  <br>environment and ensure that you will not be disturbed. <br><br><strong> 3.</strong>  At the end of the experiment, you will be asked to answer a few additional questions. <br> <br><strong> Important:</strong> After finishing the experiment, only close the browser window <br> by clicking on the 'end the experiment'-button when you are asked to do so. <br>Closing the browser window prematurely will make the allocation of your participation credit impossible. <br><br> Press 'SPACE' to start the experiment. </div>","32","","","","","","","","","","","","","","","","","","","",""
"html-button-response","3","28442","0.0-1.0-0.0-2.0","c5w2mut7wo39oyu","welcome","5d2202ffa80a600017d967b5","5f60e3c0a3b16e07647b2ff9","5f60ef206e7508000b74abe2","true","4366.914999904111","<div align=left><strong> Informed consent </strong>  <br>The aim of our research is to better understand human behavior and mental processes. <br>In the following study your behavior (e.g. choices, reaction times) will be studied. <br> <br><strong> Voluntariness and Anonymity </strong> <br>Your participation in this study is  <strong> voluntary</strong>.<br>You may withdraw your consent to participate at any time without providing a reason for doing so and without fear of prejudice. <br><br>As no personal data will be collected, <strong>your data and your person cannot be connected after data collection</strong> – the data-set is anonymous. <br>Respectively, deletion of your data will not be possible after data collection has been completed, as we cannot retrace your data-set.<br>The results and anonymized data collected in this study will be published as a scientific publication. <br>This will happen in an <strong>anonymized format</strong>, so that no data can be traced back to a specific person. <br> <br>The anonymized data of this study will be made available to other researchers and/or in a data archive on the Internet as a means of transparency and to enable subsequent re-use. By doing so, this study follows the recommendations of the Deutsche Forschungsgemeinschaft (DFG, German Research Foundation) and Deutsche Gesellschaft für Psychologie (DGPS, German Psychological Society) regarding quality assurance in research.<br>If you have any questions now or after the experiment, please contact our team (experiments@cs.uni-freiburg.de).<br><br><br>I hereby declare, that I understand the above described conditions of participation and I agree to participate under these conditions. <br><br> </div>","","0","","","","","","","","","","","","","","","","","","",""
"html-keyboard-response","4","51011","0.0-1.0-0.0-3.0","c5w2mut7wo39oyu","welcome","5d2202ffa80a600017d967b5","5f60e3c0a3b16e07647b2ff9","5f60ef206e7508000b74abe2","false","22562.18500016257","<div align=left><strong> General information concerning the experiment </strong>  <br> <br>Please follow the instructions:<ol> <li><strong> Do not leave this tab (your browser window) during the experiment and do not reload this tab! </strong>  <br>If you do switch tabs/windows during the experiment (to check your mail or visit another website, for example), <br>the experiment will end automatically and you will <strong>not receive credit</strong> for your participation. <br>Repeated participation or resumption of the experiment is impossible.</li> <br><li>Please close all other programs for the duration of your participation. </li> <br><li>Please mute or turn off your phone and put it out of your reach. </li> <br><li>Please also take off any disturbing accessories (such as wristwatches, bracelets, etc.). </li> <br><li>If you have music playing in the background, please turn it off now. </li> <br></ol>Thank you! <br>Press 'SPACE' to continue. </div>","32","","","","","","","","","","","","","","","","","","","",""
"survey-text","5","54930","0.0-1.0-1.0-0.0","c5w2mut7wo39oyu","demographics","5d2202ffa80a600017d967b5","5f60e3c0a3b16e07647b2ff9","5f60ef206e7508000b74abe2","true","3907.704999903217","","","","{""age"":""19""}","","","","","","","","","","","","","","","","","",""
"survey-multi-choice","6","83119","0.0-1.0-1.0-1.0","c5w2mut7wo39oyu","demographics","5d2202ffa80a600017d967b5","5f60e3c0a3b16e07647b2ff9","5f60ef206e7508000b74abe2","true","28181.100000161678","","","","{""gender"":""female"",""school"":""high school"",""education"":""Still in training/ university""}","[0,1,2]","","","","","","","","","","","","","","","","",""
"survey-text","7","100145","0.0-1.0-1.0-2.0-0.0","c5w2mut7wo39oyu","demographics","5d2202ffa80a600017d967b5","5f60e3c0a3b16e07647b2ff9","5f60ef206e7508000b74abe2","true","16986.19499988854","","","","{""education_text"":""Chemistry Bsc""}","","","","","","","","","","","","","","","","","",""
"html-keyboard-response","8","109913","0.0-1.0-2.0","c5w2mut7wo39oyu","instructions","5d2202ffa80a600017d967b5","5f60e3c0a3b16e07647b2ff9","5f60ef206e7508000b74abe2","false","9764.530000044033","<div align=left> The experiment is now about to start: <br> <br>In the following part, you will be presented pictures of everyday objects. <br>Your first task is to <strong>classify these objects. </strong> <br> <br> You will classify them either as mechanical or non-mechanical objects. <br> <br>Objects that include any kind of technical mechanism (for example, wheels, switches, levers, <br> electronic components) fall under the category of <strong>mechanical</strong> objects. <br>Only objects without any kind of technical mechanism should be classified as <strong>non-mechanical</strong>. <br><br>Press 'SPACE' to continue. </div>","32","","","","","","","","","","","","","","","","","","","",""
"html-keyboard-response","9","154883","0.0-2.0-0.0","c5w2mut7wo39oyu","instructions","5d2202ffa80a600017d967b5","5f60e3c0a3b16e07647b2ff9","5f60ef206e7508000b74abe2","false","44966.86500008218","<div align=justify>You will classify the objects using the <strong>'S'</strong> and the <strong>'L'</strong> keys on your keyboard.<br>For doing so, please place your <strong>left index finger</strong> on the <strong>'S'</strong> key and place your <strong>right index finger</strong> on the <strong>'L'</strong> key. <br><br> Each trial starts with an instruction, indicating which key ('S'/'L') you need to press to classify <br>the object as mechanical (letter M) or non-mechanical (letter N).<br>The instruction <strong>M + N</strong> indicates that, in the current trial, by pressing the left key ('S') you classify the displayed object as mechanical (M) <br> and by pressing the right key ('L') you classify the object as non-mechanical (N). <br>The instruction <strong>N + M</strong> on the other hand indicates that by pressing the left key ('S') you classify the displayed object as non-mechanical (N) <br> and by pressing the right key ('L') you classify the object as mechanical (M). <br><br>Please press the key corresponding to the correct classification as fast as possible as soon as the object is displayed and try to avoid making mistakes.<br>If you do not respond within a 2 second window, a corresponding feedback will be displayed and the next trial will start.<br> The experiment is divided into multiple blocks to give you the opportunity to take a break after each block. <br>First, you can now practice this task. <br><br>Please place your <strong>LEFT INDEX FINGER</strong> on the 'S' key and your <strong>RIGHT INDEX FINGER</strong> on the 'L' key now. <br><br>Press SPACE to continue.</div>","32","","","","","","","","","","","","","","","","","","","",""
"html-keyboard-response","10","158895","0.0-2.0-1.0","c5w2mut7wo39oyu","instructions","5d2202ffa80a600017d967b5","5f60e3c0a3b16e07647b2ff9","5f60ef206e7508000b74abe2","false","4009.9049999844283","<div align=left> You will now have time to practice this task.<br><br>Remember: <br> <br><li>Please place your index fingers on the <strong>'S'</strong> and <strong>'L'</strong> keys <br>to respond as fast and accurately as possible.</li><li>Every picture can be classified as either mechanical or non-mechanical.</li><li>If you do not respond in time or commit an error, you will receive a corresponding feedback. </li><li> Please try to respond as <strong> fast </strong> and as <strong> accurately as possible </strong> .<br><li>To ensure optimal results, please minimize distractions and stay focused. </li><br><br>Press SPACE to continue.</div>","32","","","","","","","","","","","","","","","","","","","",""
"html-keyboard-response","11","159608","0.0-2.0-2.0-0.0","c5w2mut7wo39oyu","practice_no_cue","5d2202ffa80a600017d967b5","5f60e3c0a3b16e07647b2ff9","5f60ef206e7508000b74abe2","false","null","<span style=""color: black; font-size: 48px"">M + N</span>","null","","","","resp_prompt","","","","","","","","","","","","","","","",""
"categorize-image","12","160990","0.0-2.0-2.0-1.0","c5w2mut7wo39oyu","practice_no_cue","5d2202ffa80a600017d967b5","5f60e3c0a3b16e07647b2ff9","5f60ef206e7508000b74abe2","true","864.0149999409914","./Stimuli/ImagesPractice/SN221.jpg","76","","","","test","true","M + N","76","","SN","SN221.jpg","forget","old","1","1","start","right","","","",""
"html-keyboard-response","13","161702","0.0-2.0-2.0-0.1","c5w2mut7wo39oyu","practice_no_cue","5d2202ffa80a600017d967b5","5f60e3c0a3b16e07647b2ff9","5f60ef206e7508000b74abe2","false","null","<span style=""color: black; font-size: 48px"">M + N</span>","null","","","","resp_prompt","","","","","","","","","","","","","","","",""
"categorize-image","14","162899","0.0-2.0-2.0-1.1","c5w2mut7wo39oyu","practice_no_cue","5d2202ffa80a600017d967b5","5f60e3c0a3b16e07647b2ff9","5f60ef206e7508000b74abe2","true","684.4099999871105","./Stimuli/ImagesPractice/SM62.jpg","83","","","","test","true","M + N","83","","SM","SM62.jpg","forget","old","2","1","start","left","","","",""
"html-keyboard-response","15","163602","0.0-2.0-2.0-0.2","c5w2mut7wo39oyu","practice_no_cue","5d2202ffa80a600017d967b5","5f60e3c0a3b16e07647b2ff9","5f60ef206e7508000b74abe2","false","null","<span style=""color: black; font-size: 48px"">M + N</span>","null","","","","resp_prompt","","","","","","","","","","","","","","","",""
"categorize-image","16","164948","0.0-2.0-2.0-1.2","c5w2mut7wo39oyu","practice_no_cue","5d2202ffa80a600017d967b5","5f60e3c0a3b16e07647b2ff9","5f60ef206e7508000b74abe2","true","835.1300000213087","./Stimuli/ImagesPractice/LN72.jpg","76","","","","test","true","M + N","76","","LN","LN72.jpg","forget","old","3","1","start","right","","","",""
"html-keyboard-response","17","165660","0.0-2.0-2.0-0.3","c5w2mut7wo39oyu","practice_no_cue","5d2202ffa80a600017d967b5","5f60e3c0a3b16e07647b2ff9","5f60ef206e7508000b74abe2","false","null","<span style=""color: black; font-size: 48px"">N + M</span>","null","","","","resp_prompt","","","","","","","","","","","","","","","",""
"categorize-image","18","167082","0.0-2.0-2.0-1.3","c5w2mut7wo39oyu","practice_no_cue","5d2202ffa80a600017d967b5","5f60e3c0a3b16e07647b2ff9","5f60ef206e7508000b74abe2","true","902.8700001072139","./Stimuli/ImagesPractice/LM55.jpg","83","","","","test","false","N + M","76","","LM","LM55.jpg","remember","old","4","1","start","left","","","",""
"html-keyboard-response","19","167789","0.0-2.0-2.0-0.4","c5w2mut7wo39oyu","practice_no_cue","5d2202ffa80a600017d967b5","5f60e3c0a3b16e07647b2ff9","5f60ef206e7508000b74abe2","false","null","<span style=""color: black; font-size: 48px"">N + M</span>","null","","","","resp_prompt","","","","","","","","","","","","","","","",""
"categorize-image","20","169144","0.0-2.0-2.0-1.4","c5w2mut7wo39oyu","practice_no_cue","5d2202ffa80a600017d967b5","5f60e3c0a3b16e07647b2ff9","5f60ef206e7508000b74abe2","true","845.4350000247359","./Stimuli/ImagesPractice/SN205.jpg","76","","","","test","false","N + M","83","","SN","SN205.jpg","remember","old","5","1","start","right","","","",""
"html-keyboard-response","21","169848","0.0-2.0-2.0-0.5","c5w2mut7wo39oyu","practice_no_cue","5d2202ffa80a600017d967b5","5f60e3c0a3b16e07647b2ff9","5f60ef206e7508000b74abe2","false","null","<span style=""color: black; font-size: 48px"">N + M</span>","null","","","","resp_prompt","","","","","","","","","","","","","","","",""
"categorize-image","22","171444","0.0-2.0-2.0-1.5","c5w2mut7wo39oyu","practice_no_cue","5d2202ffa80a600017d967b5","5f60e3c0a3b16e07647b2ff9","5f60ef206e7508000b74abe2","true","1087.2199998702854","./Stimuli/ImagesPractice/SM98.jpg","83","","","","test","false","N + M","76","","SM","SM98.jpg","remember","old","6","1","start","left","","","",""
"html-keyboard-response","23","172158","0.0-2.0-2.0-0.6","c5w2mut7wo39oyu","practice_no_cue","5d2202ffa80a600017d967b5","5f60e3c0a3b16e07647b2ff9","5f60ef206e7508000b74abe2","false","null","<span style=""color: black; font-size: 48px"">N + M</span>","null","","","","resp_prompt","","","","","","","","","","","","","","","",""
"categorize-image","24","173633","0.0-2.0-2.0-1.6","c5w2mut7wo39oyu","practice_no_cue","5d2202ffa80a600017d967b5","5f60e3c0a3b16e07647b2ff9","5f60ef206e7508000b74abe2","true","964.7399999666959","./Stimuli/ImagesPractice/LM143.jpg","83","","","","test","false","N + M","76","","LM","LM143.jpg","forget","old","7","1","start","left","","","",""
"html-keyboard-response","25","174344","0.0-2.0-2.0-0.7","c5w2mut7wo39oyu","practice_no_cue","5d2202ffa80a600017d967b5","5f60e3c0a3b16e07647b2ff9","5f60ef206e7508000b74abe2","false","null","<span style=""color: black; font-size: 48px"">M + N</span>","null","","","","resp_prompt","","","","","","","","","","","","","","","",""
"categorize-image","26","175905","0.0-2.0-2.0-1.7","c5w2mut7wo39oyu","practice_no_cue","5d2202ffa80a600017d967b5","5f60e3c0a3b16e07647b2ff9","5f60ef206e7508000b74abe2","true","1052.3999999277294","./Stimuli/ImagesPractice/SM35.jpg","83","","","","test","true","M + N","83","","SM","SM35.jpg","remember","old","8","1","start","left","","","",""
"html-keyboard-response","27","176610","0.0-2.0-2.0-0.8","c5w2mut7wo39oyu","practice_no_cue","5d2202ffa80a600017d967b5","5f60e3c0a3b16e07647b2ff9","5f60ef206e7508000b74abe2","false","null","<span style=""color: black; font-size: 48px"">N + M</span>","null","","","","resp_prompt","","","","","","","","","","","","","","","",""
"categorize-image","28","178052","0.0-2.0-2.0-1.8","c5w2mut7wo39oyu","practice_no_cue","5d2202ffa80a600017d967b5","5f60e3c0a3b16e07647b2ff9","5f60ef206e7508000b74abe2","true","926.2250000610948","./Stimuli/ImagesPractice/LM147.jpg","76","","","","test","true","N + M","76","","LM","LM147.jpg","remember","old","9","1","start","right","","","",""
"html-keyboard-response","29","178763","0.0-2.0-2.0-0.9","c5w2mut7wo39oyu","practice_no_cue","5d2202ffa80a600017d967b5","5f60e3c0a3b16e07647b2ff9","5f60ef206e7508000b74abe2","false","null","<span style=""color: black; font-size: 48px"">M + N</span>","null","","","","resp_prompt","","","","","","","","","","","","","","","",""
"categorize-image","30","180173","0.0-2.0-2.0-1.9","c5w2mut7wo39oyu","practice_no_cue","5d2202ffa80a600017d967b5","5f60e3c0a3b16e07647b2ff9","5f60ef206e7508000b74abe2","true","892.4650000408292","./Stimuli/ImagesPractice/LM224.jpg","83","","","","test","true","M + N","83","","LM","LM224.jpg","remember","old","10","1","start","left","","","",""
"html-keyboard-response","31","180876","0.0-2.0-2.0-0.10","c5w2mut7wo39oyu","practice_no_cue","5d2202ffa80a600017d967b5","5f60e3c0a3b16e07647b2ff9","5f60ef206e7508000b74abe2","false","null","<span style=""color: black; font-size: 48px"">N + M</span>","null","","","","resp_prompt","","","","","","","","","","","","","","","",""
"categorize-image","32","182418","0.0-2.0-2.0-1.10","c5w2mut7wo39oyu","practice_no_cue","5d2202ffa80a600017d967b5","5f60e3c0a3b16e07647b2ff9","5f60ef206e7508000b74abe2","true","1022.6950000505894","./Stimuli/ImagesPractice/LM230.jpg","76","","","","test","true","N + M","76","","LM","LM230.jpg","forget","old","11","1","start","right","","","",""
"html-keyboard-response","33","183126","0.0-2.0-2.0-0.11","c5w2mut7wo39oyu","practice_no_cue","5d2202ffa80a600017d967b5","5f60e3c0a3b16e07647b2ff9","5f60ef206e7508000b74abe2","false","null","<span style=""color: black; font-size: 48px"">N + M</span>","null","","","","resp_prompt","","","","","","","","","","","","","","","",""
"categorize-image","34","184459","0.0-2.0-2.0-1.11","c5w2mut7wo39oyu","practice_no_cue","5d2202ffa80a600017d967b5","5f60e3c0a3b16e07647b2ff9","5f60ef206e7508000b74abe2","true","829.0199998300523","./Stimuli/ImagesPractice/SN75.jpg","83","","","","test","true","N + M","83","","SN","SN75.jpg","forget","old","12","1","start","left","","","",""
"html-keyboard-response","35","185175","0.0-2.0-2.0-0.12","c5w2mut7wo39oyu","practice_no_cue","5d2202ffa80a600017d967b5","5f60e3c0a3b16e07647b2ff9","5f60ef206e7508000b74abe2","false","null","<span style=""color: black; font-size: 48px"">M + N</span>","null","","","","resp_prompt","","","","","","","","","","","","","","","",""
"categorize-image","36","186344","0.0-2.0-2.0-1.12","c5w2mut7wo39oyu","practice_no_cue","5d2202ffa80a600017d967b5","5f60e3c0a3b16e07647b2ff9","5f60ef206e7508000b74abe2","true","658.1350001506507","./Stimuli/ImagesPractice/LN2.jpg","76","","","","test","true","M + N","76","","LN","LN2.jpg","forget","old","13","1","start","right","","","",""
"html-keyboard-response","37","187054","0.0-2.0-2.0-0.13","c5w2mut7wo39oyu","practice_no_cue","5d2202ffa80a600017d967b5","5f60e3c0a3b16e07647b2ff9","5f60ef206e7508000b74abe2","false","null","<span style=""color: black; font-size: 48px"">N + M</span>","null","","","","resp_prompt","","","","","","","","","","","","","","","",""
"categorize-image","38","188573","0.0-2.0-2.0-1.13","c5w2mut7wo39oyu","practice_no_cue","5d2202ffa80a600017d967b5","5f60e3c0a3b16e07647b2ff9","5f60ef206e7508000b74abe2","true","1010.8950000721961","./Stimuli/ImagesPractice/LN109.jpg","76","","","","test","false","N + M","83","","LN","LN109.jpg","forget","old","14","1","start","right","","","",""
"html-keyboard-response","39","189276","0.0-2.0-2.0-0.14","c5w2mut7wo39oyu","practice_no_cue","5d2202ffa80a600017d967b5","5f60e3c0a3b16e07647b2ff9","5f60ef206e7508000b74abe2","false","null","<span style=""color: black; font-size: 48px"">M + N</span>","null","","","","resp_prompt","","","","","","","","","","","","","","","",""
"categorize-image","40","190775","0.0-2.0-2.0-1.14","c5w2mut7wo39oyu","practice_no_cue","5d2202ffa80a600017d967b5","5f60e3c0a3b16e07647b2ff9","5f60ef206e7508000b74abe2","true","991.6550000198185","./Stimuli/ImagesPractice/LN4.jpg","76","","","","test","true","M + N","76","","LN","LN4.jpg","remember","old","15","1","start","right","","","",""
"html-keyboard-response","41","191485","0.0-2.0-2.0-0.15","c5w2mut7wo39oyu","practice_no_cue","5d2202ffa80a600017d967b5","5f60e3c0a3b16e07647b2ff9","5f60ef206e7508000b74abe2","false","null","<span style=""color: black; font-size: 48px"">M + N</span>","null","","","","resp_prompt","","","","","","","","","","","","","","","",""
"categorize-image","42","192719","0.0-2.0-2.0-1.15","c5w2mut7wo39oyu","practice_no_cue","5d2202ffa80a600017d967b5","5f60e3c0a3b16e07647b2ff9","5f60ef206e7508000b74abe2","true","727.9600000474602","./Stimuli/ImagesPractice/LN15.jpg","76","","","","test","true","M + N","76","","LN","LN15.jpg","remember","old","16","1","start","right","","","",""
"html-keyboard-response","43","196620","0.0-2.0-3.0","c5w2mut7wo39oyu","break","5d2202ffa80a600017d967b5","5f60e3c0a3b16e07647b2ff9","5f60ef206e7508000b74abe2","false","3897.594999987632","<p style='font-size: 32px;'>Break</><br><br><br><br><br><p style='font-size: 24px;'>In the last block, you committed 5 errors and did not respond in time on 0 trials.
</p><p style='font-size: 24px;'>Try to respond as fast and accurately as possible in the next block as well! </p><p style='font-size: 24px;'>Press SPACE to continue.</p>","32","","","","","","","","","","","","","","","","","","","",""
"html-keyboard-response","44","199864","0.0-2.0-4.0","c5w2mut7wo39oyu","instructions","5d2202ffa80a600017d967b5","5f60e3c0a3b16e07647b2ff9","5f60ef206e7508000b74abe2","false","3238.9949997887015","<div align=left> Great!<br><br>Are you ready to continue?<br><br>If you want to reread the instructions and redo the practice trials, <br>please press „Z“. <br><br>Press SPACE to CONTINUE with the experiment when you are ready. </div>","32","","","","","","","","","","","","","","","","","","","",""
"html-keyboard-response","45","219123","0.0-3.0-0.0","c5w2mut7wo39oyu","instructions","5d2202ffa80a600017d967b5","5f60e3c0a3b16e07647b2ff9","5f60ef206e7508000b74abe2","false","19255.965000018477","<div align=left>Great!<br> <strong>Attention</strong>! You will now receive a second, additional task! <br><br>To this point it was you <strong>first task</strong> to correctly <strong>classify objects</strong>. <br><br>As mentioned in the beginning, we aim to examine how well humans can remember previously learned information.<br>We would like to find out whether our memory improves if we only remember information that is relevant to us. <br><br>Therefore, your <strong>second task</strong> will be to <strong>remember</strong> the pictures you are to categorize. <br> After the learning phase, there will be a memory test phase, in which you will be asked to indicate whether you have seen a picture before or not. <br>Some, but not all pictures shown in the learning phase will appear in the memory test phase.<br>After classifying a picture, you will be told whether you should remember it for the memory test phase or not. <br>Thus, some pictures can be forgotten, whereas others have to be remembered. <br><br>Note: From now on, feedback will only be displayed if you responded incorrectly or not in time.<br><br>Press SPACE to continue.</div>","32","","","","","","","","","","","","","","","","","","","",""
"html-keyboard-response","46","230183","0.0-3.0-1.0","c5w2mut7wo39oyu","instructions","5d2202ffa80a600017d967b5","5f60e3c0a3b16e07647b2ff9","5f60ef206e7508000b74abe2","false","11057.690000161529","<div align=left>In the following part, you will thus have to remember only some pictures. <br>Immediately after seeing and classifying the picture, a symbol will be displayed, indicating whether you should remember or forget the previous picture. <br><br>A <span style='color: dodgerblue; font-size: 28px'>O</span> indicates REMEMBER. That means, you have to remember this picture, because it will be tested later. <br><br>A <span style='color: darkorange; font-size:28px'>Ø</span> indicates FORGET. You do not have to remember this picture. <br><br> As you will have to remember a lot of pictures, it will be hard for you to remember all of them. <br>It will put you at an advantage if you instantly forget the pictures you are not asked to remember. <br> This will make it easier for you to remember the pictures that will be tested afterwards. <br><br>Press SPACE to continue.</div>","32","","","","","","","","","","","","","","","","","","","",""
"html-keyboard-response","47","237483","0.0-3.0-2.0","c5w2mut7wo39oyu","instructions","5d2202ffa80a600017d967b5","5f60e3c0a3b16e07647b2ff9","5f60ef206e7508000b74abe2","false","7297.7549999486655","<div align=left> Now you have the chance to practice both tasks together.<br><br>Remember: <br> <br><li>Please place your index fingers on the <strong>'S'</strong> and <strong>'L'</strong> keys <br>to respond as fast and accurately as possible.</li><li>Every picture can be classified as either mechanical or non-mechanical.</li><li>If you do not respond in time or commit an error, you will receive a corresponding feedback. <br>Please try to respond as <strong> fast </strong> and as <strong> accurately as possible </strong>.</li><li> Please remember only the to-be-remembered <span style='color: dodgerblue; font-size: 28px'>O</span> pictures. <br></li><li> Please minimize distractions and stay focused. </li><br><br>Press SPACE to START</div>","32","","","","","","","","","","","","","","","","","","","",""
"html-keyboard-response","48","238191","0.0-3.0-3.0-0.0","c5w2mut7wo39oyu","practice_cue","5d2202ffa80a600017d967b5","5f60e3c0a3b16e07647b2ff9","5f60ef206e7508000b74abe2","false","null","<span style=""color: black; font-size: 48px"">N + M</span>","null","","","","resp_prompt","","","","","","","","","","","","","","","",""
"categorize-image","49","238845","0.0-3.0-3.0-1.0","c5w2mut7wo39oyu","practice_cue","5d2202ffa80a600017d967b5","5f60e3c0a3b16e07647b2ff9","5f60ef206e7508000b74abe2","true","647.1250001341105","./Stimuli/ImagesPractice/SM98.jpg","76","","","","test","true","N + M","76","","SM","SM98.jpg","remember","old","17","2","practice_forget","right","","","",""
"html-keyboard-response","50","240857","0.0-3.0-3.0-3.0","c5w2mut7wo39oyu","practice_cue","5d2202ffa80a600017d967b5","5f60e3c0a3b16e07647b2ff9","5f60ef206e7508000b74abe2","false","null","<div style=""align-items: center; display: flex; color: dodgerblue; font-size: 90px""><b>o</b></div>","null","","","","forget_cue","","","","","","","","","","","","","","","",""
"html-keyboard-response","51","241570","0.0-3.0-3.0-0.1","c5w2mut7wo39oyu","practice_cue","5d2202ffa80a600017d967b5","5f60e3c0a3b16e07647b2ff9","5f60ef206e7508000b74abe2","false","null","<span style=""color: black; font-size: 48px"">N + M</span>","null","","","","resp_prompt","","","","","","","","","","","","","","","",""
"categorize-image","52","242157","0.0-3.0-3.0-1.1","c5w2mut7wo39oyu","practice_cue","5d2202ffa80a600017d967b5","5f60e3c0a3b16e07647b2ff9","5f60ef206e7508000b74abe2","true","579.8750000540167","./Stimuli/ImagesPractice/LM230.jpg","76","","","","test","true","N + M","76","","LM","LM230.jpg","forget","old","18","2","practice_forget","right","","","",""
"html-keyboard-response","53","244172","0.0-3.0-3.0-3.1","c5w2mut7wo39oyu","practice_cue","5d2202ffa80a600017d967b5","5f60e3c0a3b16e07647b2ff9","5f60ef206e7508000b74abe2","false","null","<div style=""align-items: center; display: flex; color: darkorange; font-size: 90px""><b>ø</b></div>","null","","","","forget_cue","","","","","","","","","","","","","","","",""
"html-keyboard-response","54","244878","0.0-3.0-3.0-0.2","c5w2mut7wo39oyu","practice_cue","5d2202ffa80a600017d967b5","5f60e3c0a3b16e07647b2ff9","5f60ef206e7508000b74abe2","false","null","<span style=""color: black; font-size: 48px"">M + N</span>","null","","","","resp_prompt","","","","","","","","","","","","","","","",""
"categorize-image","55","245485","0.0-3.0-3.0-1.2","c5w2mut7wo39oyu","practice_cue","5d2202ffa80a600017d967b5","5f60e3c0a3b16e07647b2ff9","5f60ef206e7508000b74abe2","true","601.8200002145022","./Stimuli/ImagesPractice/LM224.jpg","83","","","","test","true","M + N","83","","LM","LM224.jpg","remember","old","19","2","practice_forget","left","","","",""
"html-keyboard-response","56","247496","0.0-3.0-3.0-3.2","c5w2mut7wo39oyu","practice_cue","5d2202ffa80a600017d967b5","5f60e3c0a3b16e07647b2ff9","5f60ef206e7508000b74abe2","false","null","<div style=""align-items: center; display: flex; color: dodgerblue; font-size: 90px""><b>o</b></div>","null","","","","forget_cue","","","","","","","","","","","","","","","",""
"html-keyboard-response","57","248215","0.0-3.0-3.0-0.3","c5w2mut7wo39oyu","practice_cue","5d2202ffa80a600017d967b5","5f60e3c0a3b16e07647b2ff9","5f60ef206e7508000b74abe2","false","null","<span style=""color: black; font-size: 48px"">N + M</span>","null","","","","resp_prompt","","","","","","","","","","","","","","","",""
"categorize-image","58","248883","0.0-3.0-3.0-1.3","c5w2mut7wo39oyu","practice_cue","5d2202ffa80a600017d967b5","5f60e3c0a3b16e07647b2ff9","5f60ef206e7508000b74abe2","true","662.8849999979138","./Stimuli/ImagesPractice/LN109.jpg","83","","","","test","true","N + M","83","","LN","LN109.jpg","forget","old","20","2","practice_forget","left","","","",""
"html-keyboard-response","59","250894","0.0-3.0-3.0-3.3","c5w2mut7wo39oyu","practice_cue","5d2202ffa80a600017d967b5","5f60e3c0a3b16e07647b2ff9","5f60ef206e7508000b74abe2","false","null","<div style=""align-items: center; display: flex; color: darkorange; font-size: 90px""><b>ø</b></div>","null","","","","forget_cue","","","","","","","","","","","","","","","",""
"html-keyboard-response","60","251611","0.0-3.0-3.0-0.4","c5w2mut7wo39oyu","practice_cue","5d2202ffa80a600017d967b5","5f60e3c0a3b16e07647b2ff9","5f60ef206e7508000b74abe2","false","null","<span style=""color: black; font-size: 48px"">M + N</span>","null","","","","resp_prompt","","","","","","","","","","","","","","","",""
"categorize-image","61","252247","0.0-3.0-3.0-1.4","c5w2mut7wo39oyu","practice_cue","5d2202ffa80a600017d967b5","5f60e3c0a3b16e07647b2ff9","5f60ef206e7508000b74abe2","true","628.8499999791384","./Stimuli/ImagesPractice/SM35.jpg","83","","","","test","true","M + N","83","","SM","SM35.jpg","remember","old","21","2","practice_forget","left","","","",""
"html-keyboard-response","62","254262","0.0-3.0-3.0-3.4","c5w2mut7wo39oyu","practice_cue","5d2202ffa80a600017d967b5","5f60e3c0a3b16e07647b2ff9","5f60ef206e7508000b74abe2","false","null","<div style=""align-items: center; display: flex; color: dodgerblue; font-size: 90px""><b>o</b></div>","null","","","","forget_cue","","","","","","","","","","","","","","","",""
"html-keyboard-response","63","254973","0.0-3.0-3.0-0.5","c5w2mut7wo39oyu","practice_cue","5d2202ffa80a600017d967b5","5f60e3c0a3b16e07647b2ff9","5f60ef206e7508000b74abe2","false","null","<span style=""color: black; font-size: 48px"">M + N</span>","null","","","","resp_prompt","","","","","","","","","","","","","","","",""
"categorize-image","64","255627","0.0-3.0-3.0-1.5","c5w2mut7wo39oyu","practice_cue","5d2202ffa80a600017d967b5","5f60e3c0a3b16e07647b2ff9","5f60ef206e7508000b74abe2","true","646.5300000272691","./Stimuli/ImagesPractice/SM62.jpg","83","","","","test","true","M + N","83","","SM","SM62.jpg","forget","old","22","2","practice_forget","left","","","",""
"html-keyboard-response","65","257635","0.0-3.0-3.0-3.5","c5w2mut7wo39oyu","practice_cue","5d2202ffa80a600017d967b5","5f60e3c0a3b16e07647b2ff9","5f60ef206e7508000b74abe2","false","null","<div style=""align-items: center; display: flex; color: darkorange; font-size: 90px""><b>ø</b></div>","null","","","","forget_cue","","","","","","","","","","","","","","","",""
"html-keyboard-response","66","258351","0.0-3.0-3.0-0.6","c5w2mut7wo39oyu","practice_cue","5d2202ffa80a600017d967b5","5f60e3c0a3b16e07647b2ff9","5f60ef206e7508000b74abe2","false","null","<span style=""color: black; font-size: 48px"">M + N</span>","null","","","","resp_prompt","","","","","","","","","","","","","","","",""
"categorize-image","67","259018","0.0-3.0-3.0-1.6","c5w2mut7wo39oyu","practice_cue","5d2202ffa80a600017d967b5","5f60e3c0a3b16e07647b2ff9","5f60ef206e7508000b74abe2","true","660.1100000552833","./Stimuli/ImagesPractice/LN72.jpg","76","","","","test","true","M + N","76","","LN","LN72.jpg","forget","old","23","2","practice_forget","right","","","",""
"html-keyboard-response","68","261032","0.0-3.0-3.0-3.6","c5w2mut7wo39oyu","practice_cue","5d2202ffa80a600017d967b5","5f60e3c0a3b16e07647b2ff9","5f60ef206e7508000b74abe2","false","null","<div style=""align-items: center; display: flex; color: darkorange; font-size: 90px""><b>ø</b></div>","null","","","","forget_cue","","","","","","","","","","","","","","","",""
"html-keyboard-response","69","261735","0.0-3.0-3.0-0.7","c5w2mut7wo39oyu","practice_cue","5d2202ffa80a600017d967b5","5f60e3c0a3b16e07647b2ff9","5f60ef206e7508000b74abe2","false","null","<span style=""color: black; font-size: 48px"">N + M</span>","null","","","","resp_prompt","","","","","","","","","","","","","","","",""
"categorize-image","70","262515","0.0-3.0-3.0-1.7","c5w2mut7wo39oyu","practice_cue","5d2202ffa80a600017d967b5","5f60e3c0a3b16e07647b2ff9","5f60ef206e7508000b74abe2","true","774.4400000665337","./Stimuli/ImagesPractice/LM55.jpg","76","","","","test","true","N + M","76","","LM","LM55.jpg","remember","old","24","2","practice_forget","right","","","",""
"html-keyboard-response","71","264527","0.0-3.0-3.0-3.7","c5w2mut7wo39oyu","practice_cue","5d2202ffa80a600017d967b5","5f60e3c0a3b16e07647b2ff9","5f60ef206e7508000b74abe2","false","null","<div style=""align-items: center; display: flex; color: dodgerblue; font-size: 90px""><b>o</b></div>","null","","","","forget_cue","","","","","","","","","","","","","","","",""
"html-keyboard-response","72","265239","0.0-3.0-3.0-0.8","c5w2mut7wo39oyu","practice_cue","5d2202ffa80a600017d967b5","5f60e3c0a3b16e07647b2ff9","5f60ef206e7508000b74abe2","false","null","<span style=""color: black; font-size: 48px"">N + M</span>","null","","","","resp_prompt","","","","","","","","","","","","","","","",""
"categorize-image","73","265939","0.0-3.0-3.0-1.8","c5w2mut7wo39oyu","practice_cue","5d2202ffa80a600017d967b5","5f60e3c0a3b16e07647b2ff9","5f60ef206e7508000b74abe2","true","692.6800000946969","./Stimuli/ImagesPractice/LM147.jpg","76","","","","test","true","N + M","76","","LM","LM147.jpg","remember","old","25","2","practice_forget","right","","","",""
"html-keyboard-response","74","267952","0.0-3.0-3.0-3.8","c5w2mut7wo39oyu","practice_cue","5d2202ffa80a600017d967b5","5f60e3c0a3b16e07647b2ff9","5f60ef206e7508000b74abe2","false","null","<div style=""align-items: center; display: flex; color: dodgerblue; font-size: 90px""><b>o</b></div>","null","","","","forget_cue","","","","","","","","","","","","","","","",""
"html-keyboard-response","75","268666","0.0-3.0-3.0-0.9","c5w2mut7wo39oyu","practice_cue","5d2202ffa80a600017d967b5","5f60e3c0a3b16e07647b2ff9","5f60ef206e7508000b74abe2","false","null","<span style=""color: black; font-size: 48px"">M + N</span>","null","","","","resp_prompt","","","","","","","","","","","","","","","",""
"categorize-image","76","269289","0.0-3.0-3.0-1.9","c5w2mut7wo39oyu","practice_cue","5d2202ffa80a600017d967b5","5f60e3c0a3b16e07647b2ff9","5f60ef206e7508000b74abe2","true","616.0600001458079","./Stimuli/ImagesPractice/LN2.jpg","76","","","","test","true","M + N","76","","LN","LN2.jpg","forget","old","26","2","practice_forget","right","","","",""
"html-keyboard-response","77","271301","0.0-3.0-3.0-3.9","c5w2mut7wo39oyu","practice_cue","5d2202ffa80a600017d967b5","5f60e3c0a3b16e07647b2ff9","5f60ef206e7508000b74abe2","false","null","<div style=""align-items: center; display: flex; color: darkorange; font-size: 90px""><b>ø</b></div>","null","","","","forget_cue","","","","","","","","","","","","","","","",""
"html-keyboard-response","78","272019","0.0-3.0-3.0-0.10","c5w2mut7wo39oyu","practice_cue","5d2202ffa80a600017d967b5","5f60e3c0a3b16e07647b2ff9","5f60ef206e7508000b74abe2","false","null","<span style=""color: black; font-size: 48px"">M + N</span>","null","","","","resp_prompt","","","","","","","","","","","","","","","",""
"categorize-image","79","272698","0.0-3.0-3.0-1.10","c5w2mut7wo39oyu","practice_cue","5d2202ffa80a600017d967b5","5f60e3c0a3b16e07647b2ff9","5f60ef206e7508000b74abe2","true","671.474999981001","./Stimuli/ImagesPractice/LN15.jpg","76","","","","test","true","M + N","76","","LN","LN15.jpg","remember","old","27","2","practice_forget","right","","","",""
"html-keyboard-response","80","274702","0.0-3.0-3.0-3.10","c5w2mut7wo39oyu","practice_cue","5d2202ffa80a600017d967b5","5f60e3c0a3b16e07647b2ff9","5f60ef206e7508000b74abe2","false","null","<div style=""align-items: center; display: flex; color: dodgerblue; font-size: 90px""><b>o</b></div>","null","","","","forget_cue","","","","","","","","","","","","","","","",""
"html-keyboard-response","81","275409","0.0-3.0-3.0-0.11","c5w2mut7wo39oyu","practice_cue","5d2202ffa80a600017d967b5","5f60e3c0a3b16e07647b2ff9","5f60ef206e7508000b74abe2","false","null","<span style=""color: black; font-size: 48px"">N + M</span>","null","","","","resp_prompt","","","","","","","","","","","","","","","",""
"categorize-image","82","276247","0.0-3.0-3.0-1.11","c5w2mut7wo39oyu","practice_cue","5d2202ffa80a600017d967b5","5f60e3c0a3b16e07647b2ff9","5f60ef206e7508000b74abe2","true","834.0949998237193","./Stimuli/ImagesPractice/SN75.jpg","76","","","","test","false","N + M","83","","SN","SN75.jpg","forget","old","28","2","practice_forget","right","","","",""
"html-keyboard-response","83","276750","0.0-3.0-3.0-2.11-0.11","c5w2mut7wo39oyu","practice_cue","5d2202ffa80a600017d967b5","5f60e3c0a3b16e07647b2ff9","5f60ef206e7508000b74abe2","false","null","<span style=""color: red; font-size: 48px"">Error!</span>","null","","","","feedback","","","","","","","","","","","","","","","",""
"html-keyboard-response","84","278752","0.0-3.0-3.0-3.11","c5w2mut7wo39oyu","practice_cue","5d2202ffa80a600017d967b5","5f60e3c0a3b16e07647b2ff9","5f60ef206e7508000b74abe2","false","null","<div style=""align-items: center; display: flex; color: darkorange; font-size: 90px""><b>ø</b></div>","null","","","","forget_cue","","","","","","","","","","","","","","","",""
"html-keyboard-response","85","279455","0.0-3.0-3.0-0.12","c5w2mut7wo39oyu","practice_cue","5d2202ffa80a600017d967b5","5f60e3c0a3b16e07647b2ff9","5f60ef206e7508000b74abe2","false","null","<span style=""color: black; font-size: 48px"">N + M</span>","null","","","","resp_prompt","","","","","","","","","","","","","","","",""
"categorize-image","86","280363","0.0-3.0-3.0-1.12","c5w2mut7wo39oyu","practice_cue","5d2202ffa80a600017d967b5","5f60e3c0a3b16e07647b2ff9","5f60ef206e7508000b74abe2","true","900.5100000649691","./Stimuli/ImagesPractice/SN205.jpg","83","","","","test","true","N + M","83","","SN","SN205.jpg","remember","old","29","2","practice_forget","left","","","",""
"html-keyboard-response","87","282374","0.0-3.0-3.0-3.12","c5w2mut7wo39oyu","practice_cue","5d2202ffa80a600017d967b5","5f60e3c0a3b16e07647b2ff9","5f60ef206e7508000b74abe2","false","null","<div style=""align-items: center; display: flex; color: dodgerblue; font-size: 90px""><b>o</b></div>","null","","","","forget_cue","","","","","","","","","","","","","","","",""
"html-keyboard-response","88","283085","0.0-3.0-3.0-0.13","c5w2mut7wo39oyu","practice_cue","5d2202ffa80a600017d967b5","5f60e3c0a3b16e07647b2ff9","5f60ef206e7508000b74abe2","false","null","<span style=""color: black; font-size: 48px"">M + N</span>","null","","","","resp_prompt","","","","","","","","","","","","","","","",""
"categorize-image","89","284087","0.0-3.0-3.0-1.13","c5w2mut7wo39oyu","practice_cue","5d2202ffa80a600017d967b5","5f60e3c0a3b16e07647b2ff9","5f60ef206e7508000b74abe2","true","986.354999942705","./Stimuli/ImagesPractice/SN221.jpg","76","","","","test","true","M + N","76","","SN","SN221.jpg","forget","old","30","2","practice_forget","right","","","",""
"html-keyboard-response","90","286090","0.0-3.0-3.0-3.13","c5w2mut7wo39oyu","practice_cue","5d2202ffa80a600017d967b5","5f60e3c0a3b16e07647b2ff9","5f60ef206e7508000b74abe2","false","null","<div style=""align-items: center; display: flex; color: darkorange; font-size: 90px""><b>ø</b></div>","null","","","","forget_cue","","","","","","","","","","","","","","","",""
"html-keyboard-response","91","286805","0.0-3.0-3.0-0.14","c5w2mut7wo39oyu","practice_cue","5d2202ffa80a600017d967b5","5f60e3c0a3b16e07647b2ff9","5f60ef206e7508000b74abe2","false","null","<span style=""color: black; font-size: 48px"">N + M</span>","null","","","","resp_prompt","","","","","","","","","","","","","","","",""
"categorize-image","92","288002","0.0-3.0-3.0-1.14","c5w2mut7wo39oyu","practice_cue","5d2202ffa80a600017d967b5","5f60e3c0a3b16e07647b2ff9","5f60ef206e7508000b74abe2","true","1189.4800001755357","./Stimuli/ImagesPractice/LM143.jpg","76","","","","test","true","N + M","76","","LM","LM143.jpg","forget","old","31","2","practice_forget","right","","","",""
"html-keyboard-response","93","290010","0.0-3.0-3.0-3.14","c5w2mut7wo39oyu","practice_cue","5d2202ffa80a600017d967b5","5f60e3c0a3b16e07647b2ff9","5f60ef206e7508000b74abe2","false","null","<div style=""align-items: center; display: flex; color: darkorange; font-size: 90px""><b>ø</b></div>","null","","","","forget_cue","","","","","","","","","","","","","","","",""
"html-keyboard-response","94","290728","0.0-3.0-3.0-0.15","c5w2mut7wo39oyu","practice_cue","5d2202ffa80a600017d967b5","5f60e3c0a3b16e07647b2ff9","5f60ef206e7508000b74abe2","false","null","<span style=""color: black; font-size: 48px"">M + N</span>","null","","","","resp_prompt","","","","","","","","","","","","","","","",""
"categorize-image","95","291388","0.0-3.0-3.0-1.15","c5w2mut7wo39oyu","practice_cue","5d2202ffa80a600017d967b5","5f60e3c0a3b16e07647b2ff9","5f60ef206e7508000b74abe2","true","652.8300000354648","./Stimuli/ImagesPractice/LN4.jpg","76","","","","test","true","M + N","76","","LN","LN4.jpg","remember","old","32","2","practice_forget","right","","","",""
"html-keyboard-response","96","293400","0.0-3.0-3.0-3.15","c5w2mut7wo39oyu","practice_cue","5d2202ffa80a600017d967b5","5f60e3c0a3b16e07647b2ff9","5f60ef206e7508000b74abe2","false","null","<div style=""align-items: center; display: flex; color: dodgerblue; font-size: 90px""><b>o</b></div>","null","","","","forget_cue","","","","","","","","","","","","","","","",""
"html-keyboard-response","97","297407","0.0-3.0-4.0","c5w2mut7wo39oyu","break","5d2202ffa80a600017d967b5","5f60e3c0a3b16e07647b2ff9","5f60ef206e7508000b74abe2","false","4004.6149999834597","<p style='font-size: 32px;'>Break</><br><br><br><br><br><p style='font-size: 24px;'>In the last block, you committed 1 errors and did not respond in time on 0 trials.
</p><p style='font-size: 24px;'>Try to respond as fast and accurately as possible in the next block as well! </p><p style='font-size: 24px;'>Press SPACE to continue.</p>","32","","","","","","","","","","","","","","","","","","","",""
"html-keyboard-response","98","310623","0.0-3.0-5.0","c5w2mut7wo39oyu","instructions","5d2202ffa80a600017d967b5","5f60e3c0a3b16e07647b2ff9","5f60ef206e7508000b74abe2","false","13213.170000119135","<div align=left> Now, to practice, we kindly ask you to remember as many of the to-be-remembered pictures<br>of the previous learning phase as possible.<br><br>The pictures you were instructed to remember were the pictures followed by a <span style='color: dodgerblue; font-size: 28px'>O</span>.<br><br>In this memory test phase, you will also see some new pictures.<br>It is your task to remember whether you were presented with this specific picture in this study so far or not.<br>If you recognize an object (you have already seen it in this study), it is an OLD object. <br>If you do not recognize an object (you have NOT seen it in this study), it is a NEW object. <br><strong> Attention</strong>: As already mentioned, <span style='color: darkorange; font-size:28px'>Ø</span>-pictures will <strong>never</strong> appear in this memory test (neither as new objects). <br><br>Press SPACE to continue. </div>","32","","","","","","","","","","","","","","","","","","","",""
"html-keyboard-response","99","326357","0.0-3.0-6.0","c5w2mut7wo39oyu","instructions","5d2202ffa80a600017d967b5","5f60e3c0a3b16e07647b2ff9","5f60ef206e7508000b74abe2","false","15731.360000092536","<div align=left> M and N no longer will appear on the left/right of the fixation cross. <br>Instead there will be a note at the bottom of the left or right side  <br>indicating which key you should press for an old or new object:  <br> <br>Press the <strong>right</strong> key to classify an object as <strong>old</strong> and press the <strong>left</strong>, to classify an object as <strong>new</strong>.<br>Please classify the objects as new/old by again placing your index finger on the 'S' and 'L' keys <br>and press them accordingly.<br><br><strong>Old:</strong> This object has been presented before. <br><strong>New:</strong> This object has <strong>not</strong> been presented.<br><br>Now please put your right and left index fingers on the 'S' and 'L' keys of your keyboard. <br>Please respond as fast and as accurately as possible!<br><br>Press SPACE to continue. </div>","32","","","","","","","","","","","","","","","","","","","",""
"categorize-image","100","328164","0.0-3.0-7.0-0.0","c5w2mut7wo39oyu","practice_recog","5d2202ffa80a600017d967b5","5f60e3c0a3b16e07647b2ff9","5f60ef206e7508000b74abe2","true","1295.3149999957532","./Stimuli/ImagesPractice/LM147.jpg","76","","","","test","true","","76","","LM","LM147.jpg","","old","33","3","practice_recog","right","","","",""
"categorize-image","101","329425","0.0-3.0-7.0-0.1","c5w2mut7wo39oyu","practice_recog","5d2202ffa80a600017d967b5","5f60e3c0a3b16e07647b2ff9","5f60ef206e7508000b74abe2","true","747.1499999519438","./Stimuli/ImagesPractice/SN76.jpg","83","","","","test","true","","83","","SN","SN76.jpg","","new","34","3","practice_recog","left","","","",""
"categorize-image","102","330644","0.0-3.0-7.0-0.2","c5w2mut7wo39oyu","practice_recog","5d2202ffa80a600017d967b5","5f60e3c0a3b16e07647b2ff9","5f60ef206e7508000b74abe2","true","709.3549999408424","./Stimuli/ImagesPractice/LM55.jpg","76","","","","test","true","","76","","LM","LM55.jpg","","old","35","3","practice_recog","right","","","",""
"categorize-image","103","332043","0.0-3.0-7.0-0.3","c5w2mut7wo39oyu","practice_recog","5d2202ffa80a600017d967b5","5f60e3c0a3b16e07647b2ff9","5f60ef206e7508000b74abe2","true","892.7199998870492","./Stimuli/ImagesPractice/LM224.jpg","76","","","","test","true","","76","","LM","LM224.jpg","","old","36","3","practice_recog","right","","","",""
"categorize-image","104","333225","0.0-3.0-7.0-0.4","c5w2mut7wo39oyu","practice_recog","5d2202ffa80a600017d967b5","5f60e3c0a3b16e07647b2ff9","5f60ef206e7508000b74abe2","true","677.4549998808652","./Stimuli/ImagesPractice/SN220.jpg","83","","","","test","true","","83","","SN","SN220.jpg","","new","37","3","practice_recog","left","","","",""
"categorize-image","105","334620","0.0-3.0-7.0-0.5","c5w2mut7wo39oyu","practice_recog","5d2202ffa80a600017d967b5","5f60e3c0a3b16e07647b2ff9","5f60ef206e7508000b74abe2","true","882.7249999158084","./Stimuli/ImagesPractice/LN17.jpg","83","","","","test","true","","83","","LN","LN17.jpg","","new","38","3","practice_recog","left","","","",""
"categorize-image","106","335797","0.0-3.0-7.0-0.6","c5w2mut7wo39oyu","practice_recog","5d2202ffa80a600017d967b5","5f60e3c0a3b16e07647b2ff9","5f60ef206e7508000b74abe2","true","661.4050001371652","./Stimuli/ImagesPractice/SN222.jpg","83","","","","test","true","","83","","SN","SN222.jpg","","new","39","3","practice_recog","left","","","",""
"categorize-image","107","337000","0.0-3.0-7.0-0.7","c5w2mut7wo39oyu","practice_recog","5d2202ffa80a600017d967b5","5f60e3c0a3b16e07647b2ff9","5f60ef206e7508000b74abe2","true","693.7899999320507","./Stimuli/ImagesPractice/SM98.jpg","76","","","","test","true","","76","","SM","SM98.jpg","","old","40","3","practice_recog","right","","","",""
"categorize-image","108","338234","0.0-3.0-7.0-0.8","c5w2mut7wo39oyu","practice_recog","5d2202ffa80a600017d967b5","5f60e3c0a3b16e07647b2ff9","5f60ef206e7508000b74abe2","true","720.82499996759","./Stimuli/ImagesPractice/SM37.jpg","83","","","","test","true","","83","","SM","SM37.jpg","","new","41","3","practice_recog","left","","","",""
"categorize-image","109","339511","0.0-3.0-7.0-0.9","c5w2mut7wo39oyu","practice_recog","5d2202ffa80a600017d967b5","5f60e3c0a3b16e07647b2ff9","5f60ef206e7508000b74abe2","true","768.0200000759214","./Stimuli/ImagesPractice/SN205.jpg","76","","","","test","true","","76","","SN","SN205.jpg","","old","42","3","practice_recog","right","","","",""
"categorize-image","110","340741","0.0-3.0-7.0-0.10","c5w2mut7wo39oyu","practice_recog","5d2202ffa80a600017d967b5","5f60e3c0a3b16e07647b2ff9","5f60ef206e7508000b74abe2","true","718.75","./Stimuli/ImagesPractice/LM239.jpg","83","","","","test","true","","83","","LM","LM239.jpg","","new","43","3","practice_recog","left","","","",""
"categorize-image","111","341974","0.0-3.0-7.0-0.11","c5w2mut7wo39oyu","practice_recog","5d2202ffa80a600017d967b5","5f60e3c0a3b16e07647b2ff9","5f60ef206e7508000b74abe2","true","728.1599999405444","./Stimuli/ImagesPractice/LN4.jpg","76","","","","test","true","","76","","LN","LN4.jpg","","old","44","3","practice_recog","right","","","",""
"categorize-image","112","343252","0.0-3.0-7.0-0.12","c5w2mut7wo39oyu","practice_recog","5d2202ffa80a600017d967b5","5f60e3c0a3b16e07647b2ff9","5f60ef206e7508000b74abe2","true","771.7100000008941","./Stimuli/ImagesPractice/SM35.jpg","76","","","","test","true","","76","","SM","SM35.jpg","","old","45","3","practice_recog","right","","","",""
"categorize-image","113","344428","0.0-3.0-7.0-0.13","c5w2mut7wo39oyu","practice_recog","5d2202ffa80a600017d967b5","5f60e3c0a3b16e07647b2ff9","5f60ef206e7508000b74abe2","true","670.8900001831353","./Stimuli/ImagesPractice/LN15.jpg","76","","","","test","true","","76","","LN","LN15.jpg","","old","46","3","practice_recog","right","","","",""
"categorize-image","114","345741","0.0-3.0-7.0-0.14","c5w2mut7wo39oyu","practice_recog","5d2202ffa80a600017d967b5","5f60e3c0a3b16e07647b2ff9","5f60ef206e7508000b74abe2","true","806.9649999961257","./Stimuli/ImagesPractice/SM61.jpg","83","","","","test","true","","83","","SM","SM61.jpg","","new","47","3","practice_recog","left","","","",""
"categorize-image","115","346961","0.0-3.0-7.0-0.15","c5w2mut7wo39oyu","practice_recog","5d2202ffa80a600017d967b5","5f60e3c0a3b16e07647b2ff9","5f60ef206e7508000b74abe2","true","715.04499996081","./Stimuli/ImagesPractice/SM97.jpg","83","","","","test","true","","83","","SM","SM97.jpg","","new","48","3","practice_recog","left","","","",""
"html-keyboard-response","116","352743","0.0-3.0-8.0","c5w2mut7wo39oyu","instructions","5d2202ffa80a600017d967b5","5f60e3c0a3b16e07647b2ff9","5f60ef206e7508000b74abe2","false","5780.050000175834","<div align=left> Great!<br><br>Are you ready to continue?<br>If you want to reread the instructions and redo the practice trials, please <br>press „Z“.<br><br>You can proceed when you are ready.<br><br>After the presentation of each object, you will receive an instruction whether to <br>remember or to forget the object.<br>We will test your memory of the following pictures only at the very end of <br>the experiment after all learning blocks are completed. <br><br>Press SPACE to CONTINUE when you are ready. </div>","32","","","","","","","","","","","","","","","","","","","",""
"html-keyboard-response","117","357063","0.0-4.0-0.0","c5w2mut7wo39oyu","instructions","5d2202ffa80a600017d967b5","5f60e3c0a3b16e07647b2ff9","5f60ef206e7508000b74abe2","false","4316.850000061095","<div align=left> The actual experiment is about to start.<br>The practice trials are over!<br><br>Please always respond both fast and accurately!<br><br>Remember: <br> <br><li> Please place your index fingers on the <strong>'S'</strong> and <strong>'L'</strong> keys <br>to respond as fast and accurately as possible.</li><li> Every picture can be classified as either mechanical or non-mechanical.</li><li> If you do not respond in time or commit an error, you will receive a corresponding feedback.<br> Please try to respond as <strong> fast </strong> and as <strong> accurately as possible </strong>.</li><li> Remember the <span style='color: dodgerblue; font-size: 28px'>O</span> pictures. <br></li><li> Please minimize distractions and stay focused. </li><br><br>Press SPACE to START.</div>","32","","","","","","","","","","","","","","","","","","","",""
"html-keyboard-response","118","357774","0.0-4.0-1.0-0.0","c5w2mut7wo39oyu","prime","5d2202ffa80a600017d967b5","5f60e3c0a3b16e07647b2ff9","5f60ef206e7508000b74abe2","false","null","<span style=""color: black; font-size: 48px"">N + M</span>","null","","","","resp_prompt","","","","","","","","","","","","","","","",""
"categorize-image","119","358741","0.0-4.0-1.0-1.0","c5w2mut7wo39oyu","prime","5d2202ffa80a600017d967b5","5f60e3c0a3b16e07647b2ff9","5f60ef206e7508000b74abe2","true","959.7150001209229","./Stimuli/SelectedImages/SM/SM213.bmp","76","","","","test","true","N + M","76","repetition","SM","SM213.bmp","forget","","49","3","prime1","right","","","",""
"html-keyboard-response","120","360751","0.0-4.0-1.0-3.0","c5w2mut7wo39oyu","prime","5d2202ffa80a600017d967b5","5f60e3c0a3b16e07647b2ff9","5f60ef206e7508000b74abe2","false","null","<div style=""align-items: center; display: flex; color: darkorange; font-size: 90px""><b>ø</b></div>","null","","","","forget_cue","","","","","","","","","","","","","","","",""
"html-keyboard-response","121","361460","0.0-4.0-1.0-0.1","c5w2mut7wo39oyu","prime","5d2202ffa80a600017d967b5","5f60e3c0a3b16e07647b2ff9","5f60ef206e7508000b74abe2","false","null","<span style=""color: black; font-size: 48px"">M + N</span>","null","","","","resp_prompt","","","","","","","","","","","","","","","",""
"categorize-image","122","362274","0.0-4.0-1.0-1.1","c5w2mut7wo39oyu","prime","5d2202ffa80a600017d967b5","5f60e3c0a3b16e07647b2ff9","5f60ef206e7508000b74abe2","true","806.4849998336285","./Stimuli/SelectedImages/SM/SM148.bmp","83","","","","test","true","M + N","83","switch","SM","SM148.bmp","forget","","50","3","prime1","left","","","",""
"html-keyboard-response","123","364285","0.0-4.0-1.0-3.1","c5w2mut7wo39oyu","prime","5d2202ffa80a600017d967b5","5f60e3c0a3b16e07647b2ff9","5f60ef206e7508000b74abe2","false","null","<div style=""align-items: center; display: flex; color: darkorange; font-size: 90px""><b>ø</b></div>","null","","","","forget_cue","","","","","","","","","","","","","","","",""
"html-keyboard-response","124","364993","0.0-4.0-1.0-0.2","c5w2mut7wo39oyu","prime","5d2202ffa80a600017d967b5","5f60e3c0a3b16e07647b2ff9","5f60ef206e7508000b74abe2","false","null","<span style=""color: black; font-size: 48px"">M + N</span>","null","","","","resp_prompt","","","","","","","","","","","","","","","",""
"categorize-image","125","365697","0.0-4.0-1.0-1.2","c5w2mut7wo39oyu","prime","5d2202ffa80a600017d967b5","5f60e3c0a3b16e07647b2ff9","5f60ef206e7508000b74abe2","true","698.3950000721961","./Stimuli/SelectedImages/LN/LN82.bmp","76","","","","test","true","M + N","76","switch","LN","LN82.bmp","remember","","51","3","prime1","right","","","",""
"html-keyboard-response","126","367702","0.0-4.0-1.0-3.2","c5w2mut7wo39oyu","prime","5d2202ffa80a600017d967b5","5f60e3c0a3b16e07647b2ff9","5f60ef206e7508000b74abe2","false","null","<div style=""align-items: center; display: flex; color: dodgerblue; font-size: 90px""><b>o</b></div>","null","","","","forget_cue","","","","","","","","","","","","","","","",""
"html-keyboard-response","127","368417","0.0-4.0-1.0-0.3","c5w2mut7wo39oyu","prime","5d2202ffa80a600017d967b5","5f60e3c0a3b16e07647b2ff9","5f60ef206e7508000b74abe2","false","null","<span style=""color: black; font-size: 48px"">N + M</span>","null","","","","resp_prompt","","","","","","","","","","","","","","","",""
"categorize-image","128","369101","0.0-4.0-1.0-1.3","c5w2mut7wo39oyu","prime","5d2202ffa80a600017d967b5","5f60e3c0a3b16e07647b2ff9","5f60ef206e7508000b74abe2","true","680.1399998366833","./Stimuli/SelectedImages/SN/SN128.bmp","83","","","","test","true","N + M","83","switch","SN","SN128.bmp","remember","","52","3","prime1","left","","","",""
"html-keyboard-response","129","371110","0.0-4.0-1.0-3.3","c5w2mut7wo39oyu","prime","5d2202ffa80a600017d967b5","5f60e3c0a3b16e07647b2ff9","5f60ef206e7508000b74abe2","false","null","<div style=""align-items: center; display: flex; color: dodgerblue; font-size: 90px""><b>o</b></div>","null","","","","forget_cue","","","","","","","","","","","","","","","",""
"html-keyboard-response","130","371827","0.0-4.0-1.0-0.4","c5w2mut7wo39oyu","prime","5d2202ffa80a600017d967b5","5f60e3c0a3b16e07647b2ff9","5f60ef206e7508000b74abe2","false","null","<span style=""color: black; font-size: 48px"">M + N</span>","null","","","","resp_prompt","","","","","","","","","","","","","","","",""
"categorize-image","131","373404","0.0-4.0-1.0-1.4","c5w2mut7wo39oyu","prime","5d2202ffa80a600017d967b5","5f60e3c0a3b16e07647b2ff9","5f60ef206e7508000b74abe2","true","1569.8949999641627","./Stimuli/SelectedImages/SM/SM205.bmp","83","","","","test","true","M + N","83","switch","SM","SM205.bmp","remember","","53","3","prime1","left","","","",""
"html-keyboard-response","132","375416","0.0-4.0-1.0-3.4","c5w2mut7wo39oyu","prime","5d2202ffa80a600017d967b5","5f60e3c0a3b16e07647b2ff9","5f60ef206e7508000b74abe2","false","null","<div style=""align-items: center; display: flex; color: dodgerblue; font-size: 90px""><b>o</b></div>","null","","","","forget_cue","","","","","","","","","","","","","","","",""
"html-keyboard-response","133","376119","0.0-4.0-1.0-0.5","c5w2mut7wo39oyu","prime","5d2202ffa80a600017d967b5","5f60e3c0a3b16e07647b2ff9","5f60ef206e7508000b74abe2","false","null","<span style=""color: black; font-size: 48px"">N + M</span>","null","","","","resp_prompt","","","","","","","","","","","","","","","",""
"categorize-image","134","376667","0.0-4.0-1.0-1.5","c5w2mut7wo39oyu","prime","5d2202ffa80a600017d967b5","5f60e3c0a3b16e07647b2ff9","5f60ef206e7508000b74abe2","true","540.7849999610335","./Stimuli/SelectedImages/SN/SN187.bmp","83","","","","test","true","N + M","83","repetition","SN","SN187.bmp","forget","","54","3","prime1","left","","","",""
"html-keyboard-response","135","378684","0.0-4.0-1.0-3.5","c5w2mut7wo39oyu","prime","5d2202ffa80a600017d967b5","5f60e3c0a3b16e07647b2ff9","5f60ef206e7508000b74abe2","false","null","<div style=""align-items: center; display: flex; color: darkorange; font-size: 90px""><b>ø</b></div>","null","","","","forget_cue","","","","","","","","","","","","","","","",""
"html-keyboard-response","136","379389","0.0-4.0-1.0-0.6","c5w2mut7wo39oyu","prime","5d2202ffa80a600017d967b5","5f60e3c0a3b16e07647b2ff9","5f60ef206e7508000b74abe2","false","null","<span style=""color: black; font-size: 48px"">M + N</span>","null","","","","resp_prompt","","","","","","","","","","","","","","","",""
"categorize-image","137","380106","0.0-4.0-1.0-1.6","c5w2mut7wo39oyu","prime","5d2202ffa80a600017d967b5","5f60e3c0a3b16e07647b2ff9","5f60ef206e7508000b74abe2","true","710.5750001501292","./Stimuli/SelectedImages/LM/LM216.bmp","83","","","","test","true","M + N","83","repetition","LM","LM216.bmp","remember","","55","3","prime1","left","","","",""
"html-keyboard-response","138","382117","0.0-4.0-1.0-3.6","c5w2mut7wo39oyu","prime","5d2202ffa80a600017d967b5","5f60e3c0a3b16e07647b2ff9","5f60ef206e7508000b74abe2","false","null","<div style=""align-items: center; display: flex; color: dodgerblue; font-size: 90px""><b>o</b></div>","null","","","","forget_cue","","","","","","","","","","","","","","","",""
"html-keyboard-response","139","382831","0.0-4.0-1.0-0.7","c5w2mut7wo39oyu","prime","5d2202ffa80a600017d967b5","5f60e3c0a3b16e07647b2ff9","5f60ef206e7508000b74abe2","false","null","<span style=""color: black; font-size: 48px"">N + M</span>","null","","","","resp_prompt","","","","","","","","","","","","","","","",""
"categorize-image","140","383607","0.0-4.0-1.0-1.7","c5w2mut7wo39oyu","prime","5d2202ffa80a600017d967b5","5f60e3c0a3b16e07647b2ff9","5f60ef206e7508000b74abe2","true","764.7899999283254","./Stimuli/SelectedImages/LM/LM58.bmp","83","","","","test","false","N + M","76","switch","LM","LM58.bmp","remember","","56","3","prime1","left","","","",""
"html-keyboard-response","141","384123","0.0-4.0-1.0-2.7-0.7","c5w2mut7wo39oyu","prime","5d2202ffa80a600017d967b5","5f60e3c0a3b16e07647b2ff9","5f60ef206e7508000b74abe2","false","null","<span style=""color: red; font-size: 48px"">Error!</span>","null","","","","feedback","","","","","","","","","","","","","","","",""
"html-keyboard-response","142","386132","0.0-4.0-1.0-3.7","c5w2mut7wo39oyu","prime","5d2202ffa80a600017d967b5","5f60e3c0a3b16e07647b2ff9","5f60ef206e7508000b74abe2","false","null","<div style=""align-items: center; display: flex; color: dodgerblue; font-size: 90px""><b>o</b></div>","null","","","","forget_cue","","","","","","","","","","","","","","","",""
"html-keyboard-response","143","386844","0.0-4.0-1.0-0.8","c5w2mut7wo39oyu","prime","5d2202ffa80a600017d967b5","5f60e3c0a3b16e07647b2ff9","5f60ef206e7508000b74abe2","false","null","<span style=""color: black; font-size: 48px"">M + N</span>","null","","","","resp_prompt","","","","","","","","","","","","","","","",""
"categorize-image","144","387741","0.0-4.0-1.0-1.8","c5w2mut7wo39oyu","prime","5d2202ffa80a600017d967b5","5f60e3c0a3b16e07647b2ff9","5f60ef206e7508000b74abe2","true","890.1499998755753","./Stimuli/SelectedImages/SN/SN179.bmp","76","","","","test","true","M + N","76","switch","SN","SN179.bmp","remember","","57","3","prime1","right","","","",""
"html-keyboard-response","145","389747","0.0-4.0-1.0-3.8","c5w2mut7wo39oyu","prime","5d2202ffa80a600017d967b5","5f60e3c0a3b16e07647b2ff9","5f60ef206e7508000b74abe2","false","null","<div style=""align-items: center; display: flex; color: dodgerblue; font-size: 90px""><b>o</b></div>","null","","","","forget_cue","","","","","","","","","","","","","","","",""
"html-keyboard-response","146","390460","0.0-4.0-1.0-0.9","c5w2mut7wo39oyu","prime","5d2202ffa80a600017d967b5","5f60e3c0a3b16e07647b2ff9","5f60ef206e7508000b74abe2","false","null","<span style=""color: black; font-size: 48px"">N + M</span>","null","","","","resp_prompt","","","","","","","","","","","","","","","",""
"categorize-image","147","391104","0.0-4.0-1.0-1.9","c5w2mut7wo39oyu","prime","5d2202ffa80a600017d967b5","5f60e3c0a3b16e07647b2ff9","5f60ef206e7508000b74abe2","true","637.624999973923","./Stimuli/SelectedImages/SN/SN52.bmp","83","","","","test","true","N + M","83","switch","SN","SN52.bmp","remember","","58","3","prime1","left","","","",""
"html-keyboard-response","148","393118","0.0-4.0-1.0-3.9","c5w2mut7wo39oyu","prime","5d2202ffa80a600017d967b5","5f60e3c0a3b16e07647b2ff9","5f60ef206e7508000b74abe2","false","null","<div style=""align-items: center; display: flex; color: dodgerblue; font-size: 90px""><b>o</b></div>","null","","","","forget_cue","","","","","","","","","","","","","","","",""
"html-keyboard-response","149","393826","0.0-4.0-1.0-0.10","c5w2mut7wo39oyu","prime","5d2202ffa80a600017d967b5","5f60e3c0a3b16e07647b2ff9","5f60ef206e7508000b74abe2","false","null","<span style=""color: black; font-size: 48px"">M + N</span>","null","","","","resp_prompt","","","","","","","","","","","","","","","",""
"categorize-image","150","394526","0.0-4.0-1.0-1.10","c5w2mut7wo39oyu","prime","5d2202ffa80a600017d967b5","5f60e3c0a3b16e07647b2ff9","5f60ef206e7508000b74abe2","true","692.8300000727177","./Stimuli/SelectedImages/LN/LN9.bmp","76","","","","test","true","M + N","76","switch","LN","LN9.bmp","forget","","59","3","prime1","right","","","",""
"html-keyboard-response","151","396543","0.0-4.0-1.0-3.10","c5w2mut7wo39oyu","prime","5d2202ffa80a600017d967b5","5f60e3c0a3b16e07647b2ff9","5f60ef206e7508000b74abe2","false","null","<div style=""align-items: center; display: flex; color: darkorange; font-size: 90px""><b>ø</b></div>","null","","","","forget_cue","","","","","","","","","","","","","","","",""
"html-keyboard-response","152","397256","0.0-4.0-1.0-0.11","c5w2mut7wo39oyu","prime","5d2202ffa80a600017d967b5","5f60e3c0a3b16e07647b2ff9","5f60ef206e7508000b74abe2","false","null","<span style=""color: black; font-size: 48px"">N + M</span>","null","","","","resp_prompt","","","","","","","","","","","","","","","",""
"categorize-image","153","397995","0.0-4.0-1.0-1.11","c5w2mut7wo39oyu","prime","5d2202ffa80a600017d967b5","5f60e3c0a3b16e07647b2ff9","5f60ef206e7508000b74abe2","true","733.6450000293553","./Stimuli/SelectedImages/SM/SM106.bmp","76","","","","test","true","N + M","76","switch","SM","SM106.bmp","remember","","60","3","prime1","right","","","",""
"html-keyboard-response","154","399998","0.0-4.0-1.0-3.11","c5w2mut7wo39oyu","prime","5d2202ffa80a600017d967b5","5f60e3c0a3b16e07647b2ff9","5f60ef206e7508000b74abe2","false","null","<div style=""align-items: center; display: flex; color: dodgerblue; font-size: 90px""><b>o</b></div>","null","","","","forget_cue","","","","","","","","","","","","","","","",""
"html-keyboard-response","155","400702","0.0-4.0-1.0-0.12","c5w2mut7wo39oyu","prime","5d2202ffa80a600017d967b5","5f60e3c0a3b16e07647b2ff9","5f60ef206e7508000b74abe2","false","null","<span style=""color: black; font-size: 48px"">N + M</span>","null","","","","resp_prompt","","","","","","","","","","","","","","","",""
"categorize-image","156","402202","0.0-4.0-1.0-1.12","c5w2mut7wo39oyu","prime","5d2202ffa80a600017d967b5","5f60e3c0a3b16e07647b2ff9","5f60ef206e7508000b74abe2","true","1492.9949999786913","./Stimuli/SelectedImages/LM/LM209.bmp","83","","","","test","false","N + M","76","switch","LM","LM209.bmp","forget","","61","3","prime1","left","","","",""
"html-keyboard-response","157","402710","0.0-4.0-1.0-2.12-0.12","c5w2mut7wo39oyu","prime","5d2202ffa80a600017d967b5","5f60e3c0a3b16e07647b2ff9","5f60ef206e7508000b74abe2","false","null","<span style=""color: red; font-size: 48px"">Error!</span>","null","","","","feedback","","","","","","","","","","","","","","","",""
"html-keyboard-response","158","404726","0.0-4.0-1.0-3.12","c5w2mut7wo39oyu","prime","5d2202ffa80a600017d967b5","5f60e3c0a3b16e07647b2ff9","5f60ef206e7508000b74abe2","false","null","<div style=""align-items: center; display: flex; color: darkorange; font-size: 90px""><b>ø</b></div>","null","","","","forget_cue","","","","","","","","","","","","","","","",""
"html-keyboard-response","159","405430","0.0-4.0-1.0-0.13","c5w2mut7wo39oyu","prime","5d2202ffa80a600017d967b5","5f60e3c0a3b16e07647b2ff9","5f60ef206e7508000b74abe2","false","null","<span style=""color: black; font-size: 48px"">N + M</span>","null","","","","resp_prompt","","","","","","","","","","","","","","","",""
"categorize-image","160","406739","0.0-4.0-1.0-1.13","c5w2mut7wo39oyu","prime","5d2202ffa80a600017d967b5","5f60e3c0a3b16e07647b2ff9","5f60ef206e7508000b74abe2","true","1301.7599999438971","./Stimuli/SelectedImages/SM/SM195.bmp","76","","","","test","true","N + M","76","repetition","SM","SM195.bmp","forget","","62","3","prime1","right","","","",""
"html-keyboard-response","161","408753","0.0-4.0-1.0-3.13","c5w2mut7wo39oyu","prime","5d2202ffa80a600017d967b5","5f60e3c0a3b16e07647b2ff9","5f60ef206e7508000b74abe2","false","null","<div style=""align-items: center; display: flex; color: darkorange; font-size: 90px""><b>ø</b></div>","null","","","","forget_cue","","","","","","","","","","","","","","","",""
"html-keyboard-response","162","409467","0.0-4.0-1.0-0.14","c5w2mut7wo39oyu","prime","5d2202ffa80a600017d967b5","5f60e3c0a3b16e07647b2ff9","5f60ef206e7508000b74abe2","false","null","<span style=""color: black; font-size: 48px"">M + N</span>","null","","","","resp_prompt","","","","","","","","","","","","","","","",""
"categorize-image","163","410423","0.0-4.0-1.0-1.14","c5w2mut7wo39oyu","prime","5d2202ffa80a600017d967b5","5f60e3c0a3b16e07647b2ff9","5f60ef206e7508000b74abe2","true","949.1300000809133","./Stimuli/SelectedImages/LM/LM150.bmp","83","","","","test","true","M + N","83","repetition","LM","LM150.bmp","forget","","63","3","prime1","left","","","",""
"html-keyboard-response","164","412439","0.0-4.0-1.0-3.14","c5w2mut7wo39oyu","prime","5d2202ffa80a600017d967b5","5f60e3c0a3b16e07647b2ff9","5f60ef206e7508000b74abe2","false","null","<div style=""align-items: center; display: flex; color: darkorange; font-size: 90px""><b>ø</b></div>","null","","","","forget_cue","","","","","","","","","","","","","","","",""
"html-keyboard-response","165","413142","0.0-4.0-1.0-0.15","c5w2mut7wo39oyu","prime","5d2202ffa80a600017d967b5","5f60e3c0a3b16e07647b2ff9","5f60ef206e7508000b74abe2","false","null","<span style=""color: black; font-size: 48px"">M + N</span>","null","","","","resp_prompt","","","","","","","","","","","","","","","",""
"categorize-image","166","414057","0.0-4.0-1.0-1.15","c5w2mut7wo39oyu","prime","5d2202ffa80a600017d967b5","5f60e3c0a3b16e07647b2ff9","5f60ef206e7508000b74abe2","true","907.8349999617785","./Stimuli/SelectedImages/LN/LN149.bmp","76","","","","test","true","M + N","76","switch","LN","LN149.bmp","remember","","64","3","prime1","right","","","",""
"html-keyboard-response","167","416063","0.0-4.0-1.0-3.15","c5w2mut7wo39oyu","prime","5d2202ffa80a600017d967b5","5f60e3c0a3b16e07647b2ff9","5f60ef206e7508000b74abe2","false","null","<div style=""align-items: center; display: flex; color: dodgerblue; font-size: 90px""><b>o</b></div>","null","","","","forget_cue","","","","","","","","","","","","","","","",""
"html-keyboard-response","168","416780","0.0-4.0-1.0-0.16","c5w2mut7wo39oyu","prime","5d2202ffa80a600017d967b5","5f60e3c0a3b16e07647b2ff9","5f60ef206e7508000b74abe2","false","null","<span style=""color: black; font-size: 48px"">N + M</span>","null","","","","resp_prompt","","","","","","","","","","","","","","","",""
"categorize-image","169","417786","0.0-4.0-1.0-1.16","c5w2mut7wo39oyu","prime","5d2202ffa80a600017d967b5","5f60e3c0a3b16e07647b2ff9","5f60ef206e7508000b74abe2","true","999.0749999415129","./Stimuli/SelectedImages/SN/SN140.bmp","83","","","","test","true","N + M","83","repetition","SN","SN140.bmp","remember","","65","3","prime1","left","","","",""
"html-keyboard-response","170","419788","0.0-4.0-1.0-3.16","c5w2mut7wo39oyu","prime","5d2202ffa80a600017d967b5","5f60e3c0a3b16e07647b2ff9","5f60ef206e7508000b74abe2","false","null","<div style=""align-items: center; display: flex; color: dodgerblue; font-size: 90px""><b>o</b></div>","null","","","","forget_cue","","","","","","","","","","","","","","","",""
"html-keyboard-response","171","420495","0.0-4.0-1.0-0.17","c5w2mut7wo39oyu","prime","5d2202ffa80a600017d967b5","5f60e3c0a3b16e07647b2ff9","5f60ef206e7508000b74abe2","false","null","<span style=""color: black; font-size: 48px"">M + N</span>","null","","","","resp_prompt","","","","","","","","","","","","","","","",""
"categorize-image","172","421172","0.0-4.0-1.0-1.17","c5w2mut7wo39oyu","prime","5d2202ffa80a600017d967b5","5f60e3c0a3b16e07647b2ff9","5f60ef206e7508000b74abe2","true","670.3249998390675","./Stimuli/SelectedImages/LN/LN92.bmp","76","","","","test","true","M + N","76","switch","LN","LN92.bmp","forget","","66","3","prime1","right","","","",""
"html-keyboard-response","173","423176","0.0-4.0-1.0-3.17","c5w2mut7wo39oyu","prime","5d2202ffa80a600017d967b5","5f60e3c0a3b16e07647b2ff9","5f60ef206e7508000b74abe2","false","null","<div style=""align-items: center; display: flex; color: darkorange; font-size: 90px""><b>ø</b></div>","null","","","","forget_cue","","","","","","","","","","","","","","","",""
"html-keyboard-response","174","423883","0.0-4.0-1.0-0.18","c5w2mut7wo39oyu","prime","5d2202ffa80a600017d967b5","5f60e3c0a3b16e07647b2ff9","5f60ef206e7508000b74abe2","false","null","<span style=""color: black; font-size: 48px"">M + N</span>","null","","","","resp_prompt","","","","","","","","","","","","","","","",""
"categorize-image","175","424645","0.0-4.0-1.0-1.18","c5w2mut7wo39oyu","prime","5d2202ffa80a600017d967b5","5f60e3c0a3b16e07647b2ff9","5f60ef206e7508000b74abe2","true","754.8350000288337","./Stimuli/SelectedImages/SM/SM24.bmp","83","","","","test","true","M + N","83","repetition","SM","SM24.bmp","forget","","67","3","prime1","left","","","",""
"html-keyboard-response","176","426663","0.0-4.0-1.0-3.18","c5w2mut7wo39oyu","prime","5d2202ffa80a600017d967b5","5f60e3c0a3b16e07647b2ff9","5f60ef206e7508000b74abe2","false","null","<div style=""align-items: center; display: flex; color: darkorange; font-size: 90px""><b>ø</b></div>","null","","","","forget_cue","","","","","","","","","","","","","","","",""
"html-keyboard-response","177","427379","0.0-4.0-1.0-0.19","c5w2mut7wo39oyu","prime","5d2202ffa80a600017d967b5","5f60e3c0a3b16e07647b2ff9","5f60ef206e7508000b74abe2","false","null","<span style=""color: black; font-size: 48px"">M + N</span>","null","","","","resp_prompt","","","","","","","","","","","","","","","",""
"categorize-image","178","427999","0.0-4.0-1.0-1.19","c5w2mut7wo39oyu","prime","5d2202ffa80a600017d967b5","5f60e3c0a3b16e07647b2ff9","5f60ef206e7508000b74abe2","true","615.8499999437481","./Stimuli/SelectedImages/LM/LM57.bmp","83","","","","test","true","M + N","83","repetition","LM","LM57.bmp","forget","","68","3","prime1","left","","","",""
"html-keyboard-response","179","430009","0.0-4.0-1.0-3.19","c5w2mut7wo39oyu","prime","5d2202ffa80a600017d967b5","5f60e3c0a3b16e07647b2ff9","5f60ef206e7508000b74abe2","false","null","<div style=""align-items: center; display: flex; color: darkorange; font-size: 90px""><b>ø</b></div>","null","","","","forget_cue","","","","","","","","","","","","","","","",""
"html-keyboard-response","180","430725","0.0-4.0-1.0-0.20","c5w2mut7wo39oyu","prime","5d2202ffa80a600017d967b5","5f60e3c0a3b16e07647b2ff9","5f60ef206e7508000b74abe2","false","null","<span style=""color: black; font-size: 48px"">N + M</span>","null","","","","resp_prompt","","","","","","","","","","","","","","","",""
"categorize-image","181","431348","0.0-4.0-1.0-1.20","c5w2mut7wo39oyu","prime","5d2202ffa80a600017d967b5","5f60e3c0a3b16e07647b2ff9","5f60ef206e7508000b74abe2","true","616.6499999817461","./Stimuli/SelectedImages/SM/SM184.bmp","76","","","","test","true","N + M","76","switch","SM","SM184.bmp","forget","","69","3","prime1","right","","","",""
"html-keyboard-response","182","433362","0.0-4.0-1.0-3.20","c5w2mut7wo39oyu","prime","5d2202ffa80a600017d967b5","5f60e3c0a3b16e07647b2ff9","5f60ef206e7508000b74abe2","false","null","<div style=""align-items: center; display: flex; color: darkorange; font-size: 90px""><b>ø</b></div>","null","","","","forget_cue","","","","","","","","","","","","","","","",""
"html-keyboard-response","183","434077","0.0-4.0-1.0-0.21","c5w2mut7wo39oyu","prime","5d2202ffa80a600017d967b5","5f60e3c0a3b16e07647b2ff9","5f60ef206e7508000b74abe2","false","null","<span style=""color: black; font-size: 48px"">N + M</span>","null","","","","resp_prompt","","","","","","","","","","","","","","","",""
"categorize-image","184","434918","0.0-4.0-1.0-1.21","c5w2mut7wo39oyu","prime","5d2202ffa80a600017d967b5","5f60e3c0a3b16e07647b2ff9","5f60ef206e7508000b74abe2","true","834.0149999130517","./Stimuli/SelectedImages/LN/LN59.bmp","83","","","","test","true","N + M","83","repetition","LN","LN59.bmp","forget","","70","3","prime1","left","","","",""
"html-keyboard-response","185","436920","0.0-4.0-1.0-3.21","c5w2mut7wo39oyu","prime","5d2202ffa80a600017d967b5","5f60e3c0a3b16e07647b2ff9","5f60ef206e7508000b74abe2","false","null","<div style=""align-items: center; display: flex; color: darkorange; font-size: 90px""><b>ø</b></div>","null","","","","forget_cue","","","","","","","","","","","","","","","",""
"html-keyboard-response","186","437633","0.0-4.0-1.0-0.22","c5w2mut7wo39oyu","prime","5d2202ffa80a600017d967b5","5f60e3c0a3b16e07647b2ff9","5f60ef206e7508000b74abe2","false","null","<span style=""color: black; font-size: 48px"">M + N</span>","null","","","","resp_prompt","","","","","","","","","","","","","","","",""
"categorize-image","187","438302","0.0-4.0-1.0-1.22","c5w2mut7wo39oyu","prime","5d2202ffa80a600017d967b5","5f60e3c0a3b16e07647b2ff9","5f60ef206e7508000b74abe2","true","661.8250000756234","./Stimuli/SelectedImages/SM/SM128.bmp","83","","","","test","true","M + N","83","repetition","SM","SM128.bmp","forget","","71","3","prime1","left","","","",""
"html-keyboard-response","188","440314","0.0-4.0-1.0-3.22","c5w2mut7wo39oyu","prime","5d2202ffa80a600017d967b5","5f60e3c0a3b16e07647b2ff9","5f60ef206e7508000b74abe2","false","null","<div style=""align-items: center; display: flex; color: darkorange; font-size: 90px""><b>ø</b></div>","null","","","","forget_cue","","","","","","","","","","","","","","","",""
"html-keyboard-response","189","441021","0.0-4.0-1.0-0.23","c5w2mut7wo39oyu","prime","5d2202ffa80a600017d967b5","5f60e3c0a3b16e07647b2ff9","5f60ef206e7508000b74abe2","false","null","<span style=""color: black; font-size: 48px"">M + N</span>","null","","","","resp_prompt","","","","","","","","","","","","","","","",""
"categorize-image","190","441870","0.0-4.0-1.0-1.23","c5w2mut7wo39oyu","prime","5d2202ffa80a600017d967b5","5f60e3c0a3b16e07647b2ff9","5f60ef206e7508000b74abe2","true","841.5099999401718","./Stimuli/SelectedImages/SN/SN182.bmp","76","","","","test","true","M + N","76","repetition","SN","SN182.bmp","remember","","72","3","prime1","right","","","",""
"html-keyboard-response","191","443874","0.0-4.0-1.0-3.23","c5w2mut7wo39oyu","prime","5d2202ffa80a600017d967b5","5f60e3c0a3b16e07647b2ff9","5f60ef206e7508000b74abe2","false","null","<div style=""align-items: center; display: flex; color: dodgerblue; font-size: 90px""><b>o</b></div>","null","","","","forget_cue","","","","","","","","","","","","","","","",""
"html-keyboard-response","192","444583","0.0-4.0-1.0-0.24","c5w2mut7wo39oyu","prime","5d2202ffa80a600017d967b5","5f60e3c0a3b16e07647b2ff9","5f60ef206e7508000b74abe2","false","null","<span style=""color: black; font-size: 48px"">N + M</span>","null","","","","resp_prompt","","","","","","","","","","","","","","","",""
"categorize-image","193","445354","0.0-4.0-1.0-1.24","c5w2mut7wo39oyu","prime","5d2202ffa80a600017d967b5","5f60e3c0a3b16e07647b2ff9","5f60ef206e7508000b74abe2","true","764.9250000249594","./Stimuli/SelectedImages/LM/LM235.bmp","76","","","","test","true","N + M","76","repetition","LM","LM235.bmp","forget","","73","3","prime1","right","","","",""
"html-keyboard-response","194","447366","0.0-4.0-1.0-3.24","c5w2mut7wo39oyu","prime","5d2202ffa80a600017d967b5","5f60e3c0a3b16e07647b2ff9","5f60ef206e7508000b74abe2","false","null","<div style=""align-items: center; display: flex; color: darkorange; font-size: 90px""><b>ø</b></div>","null","","","","forget_cue","","","","","","","","","","","","","","","",""
"html-keyboard-response","195","448078","0.0-4.0-1.0-0.25","c5w2mut7wo39oyu","prime","5d2202ffa80a600017d967b5","5f60e3c0a3b16e07647b2ff9","5f60ef206e7508000b74abe2","false","null","<span style=""color: black; font-size: 48px"">M + N</span>","null","","","","resp_prompt","","","","","","","","","","","","","","","",""
"categorize-image","196","449028","0.0-4.0-1.0-1.25","c5w2mut7wo39oyu","prime","5d2202ffa80a600017d967b5","5f60e3c0a3b16e07647b2ff9","5f60ef206e7508000b74abe2","true","943.1000000331551","./Stimuli/SelectedImages/LM/LM75.bmp","83","","","","test","true","M + N","83","switch","LM","LM75.bmp","remember","","74","3","prime1","left","","","",""
"html-keyboard-response","197","451033","0.0-4.0-1.0-3.25","c5w2mut7wo39oyu","prime","5d2202ffa80a600017d967b5","5f60e3c0a3b16e07647b2ff9","5f60ef206e7508000b74abe2","false","null","<div style=""align-items: center; display: flex; color: dodgerblue; font-size: 90px""><b>o</b></div>","null","","","","forget_cue","","","","","","","","","","","","","","","",""
"html-keyboard-response","198","451737","0.0-4.0-1.0-0.26","c5w2mut7wo39oyu","prime","5d2202ffa80a600017d967b5","5f60e3c0a3b16e07647b2ff9","5f60ef206e7508000b74abe2","false","null","<span style=""color: black; font-size: 48px"">N + M</span>","null","","","","resp_prompt","","","","","","","","","","","","","","","",""
"categorize-image","199","452877","0.0-4.0-1.0-1.26","c5w2mut7wo39oyu","prime","5d2202ffa80a600017d967b5","5f60e3c0a3b16e07647b2ff9","5f60ef206e7508000b74abe2","true","1133.2900000270456","./Stimuli/SelectedImages/SN/SN240.bmp","83","","","","test","true","N + M","83","switch","SN","SN240.bmp","forget","","75","3","prime1","left","","","",""
"html-keyboard-response","200","454892","0.0-4.0-1.0-3.26","c5w2mut7wo39oyu","prime","5d2202ffa80a600017d967b5","5f60e3c0a3b16e07647b2ff9","5f60ef206e7508000b74abe2","false","null","<div style=""align-items: center; display: flex; color: darkorange; font-size: 90px""><b>ø</b></div>","null","","","","forget_cue","","","","","","","","","","","","","","","",""
"html-keyboard-response","201","455594","0.0-4.0-1.0-0.27","c5w2mut7wo39oyu","prime","5d2202ffa80a600017d967b5","5f60e3c0a3b16e07647b2ff9","5f60ef206e7508000b74abe2","false","null","<span style=""color: black; font-size: 48px"">M + N</span>","null","","","","resp_prompt","","","","","","","","","","","","","","","",""
"categorize-image","202","456373","0.0-4.0-1.0-1.27","c5w2mut7wo39oyu","prime","5d2202ffa80a600017d967b5","5f60e3c0a3b16e07647b2ff9","5f60ef206e7508000b74abe2","true","774.0299999713898","./Stimuli/SelectedImages/LN/LN150.bmp","76","","","","test","true","M + N","76","repetition","LN","LN150.bmp","remember","","76","3","prime1","right","","","",""
"html-keyboard-response","203","458385","0.0-4.0-1.0-3.27","c5w2mut7wo39oyu","prime","5d2202ffa80a600017d967b5","5f60e3c0a3b16e07647b2ff9","5f60ef206e7508000b74abe2","false","null","<div style=""align-items: center; display: flex; color: dodgerblue; font-size: 90px""><b>o</b></div>","null","","","","forget_cue","","","","","","","","","","","","","","","",""
"html-keyboard-response","204","459095","0.0-4.0-1.0-0.28","c5w2mut7wo39oyu","prime","5d2202ffa80a600017d967b5","5f60e3c0a3b16e07647b2ff9","5f60ef206e7508000b74abe2","false","null","<span style=""color: black; font-size: 48px"">N + M</span>","null","","","","resp_prompt","","","","","","","","","","","","","","","",""
"categorize-image","205","459985","0.0-4.0-1.0-1.28","c5w2mut7wo39oyu","prime","5d2202ffa80a600017d967b5","5f60e3c0a3b16e07647b2ff9","5f60ef206e7508000b74abe2","true","883.9750001206994","./Stimuli/SelectedImages/SM/SM17.bmp","76","","","","test","true","N + M","76","switch","SM","SM17.bmp","remember","","77","3","prime1","right","","","",""
"html-keyboard-response","206","461999","0.0-4.0-1.0-3.28","c5w2mut7wo39oyu","prime","5d2202ffa80a600017d967b5","5f60e3c0a3b16e07647b2ff9","5f60ef206e7508000b74abe2","false","null","<div style=""align-items: center; display: flex; color: dodgerblue; font-size: 90px""><b>o</b></div>","null","","","","forget_cue","","","","","","","","","","","","","","","",""
"html-keyboard-response","207","462713","0.0-4.0-1.0-0.29","c5w2mut7wo39oyu","prime","5d2202ffa80a600017d967b5","5f60e3c0a3b16e07647b2ff9","5f60ef206e7508000b74abe2","false","null","<span style=""color: black; font-size: 48px"">N + M</span>","null","","","","resp_prompt","","","","","","","","","","","","","","","",""
"categorize-image","208","463803","0.0-4.0-1.0-1.29","c5w2mut7wo39oyu","prime","5d2202ffa80a600017d967b5","5f60e3c0a3b16e07647b2ff9","5f60ef206e7508000b74abe2","true","1083.2599999848753","./Stimuli/SelectedImages/LM/LM179.bmp","76","","","","test","true","N + M","76","repetition","LM","LM179.bmp","forget","","78","3","prime1","right","","","",""
"html-keyboard-response","209","465817","0.0-4.0-1.0-3.29","c5w2mut7wo39oyu","prime","5d2202ffa80a600017d967b5","5f60e3c0a3b16e07647b2ff9","5f60ef206e7508000b74abe2","false","null","<div style=""align-items: center; display: flex; color: darkorange; font-size: 90px""><b>ø</b></div>","null","","","","forget_cue","","","","","","","","","","","","","","","",""
"html-keyboard-response","210","466524","0.0-4.0-1.0-0.30","c5w2mut7wo39oyu","prime","5d2202ffa80a600017d967b5","5f60e3c0a3b16e07647b2ff9","5f60ef206e7508000b74abe2","false","null","<span style=""color: black; font-size: 48px"">M + N</span>","null","","","","resp_prompt","","","","","","","","","","","","","","","",""
"categorize-image","211","467258","0.0-4.0-1.0-1.30","c5w2mut7wo39oyu","prime","5d2202ffa80a600017d967b5","5f60e3c0a3b16e07647b2ff9","5f60ef206e7508000b74abe2","true","726.6599999275059","./Stimuli/SelectedImages/LN/LN42.bmp","76","","","","test","true","M + N","76","repetition","LN","LN42.bmp","forget","","79","3","prime1","right","","","",""
"html-keyboard-response","212","469265","0.0-4.0-1.0-3.30","c5w2mut7wo39oyu","prime","5d2202ffa80a600017d967b5","5f60e3c0a3b16e07647b2ff9","5f60ef206e7508000b74abe2","false","null","<div style=""align-items: center; display: flex; color: darkorange; font-size: 90px""><b>ø</b></div>","null","","","","forget_cue","","","","","","","","","","","","","","","",""
"html-keyboard-response","213","469970","0.0-4.0-1.0-0.31","c5w2mut7wo39oyu","prime","5d2202ffa80a600017d967b5","5f60e3c0a3b16e07647b2ff9","5f60ef206e7508000b74abe2","false","null","<span style=""color: black; font-size: 48px"">N + M</span>","null","","","","resp_prompt","","","","","","","","","","","","","","","",""
"categorize-image","214","470724","0.0-4.0-1.0-1.31","c5w2mut7wo39oyu","prime","5d2202ffa80a600017d967b5","5f60e3c0a3b16e07647b2ff9","5f60ef206e7508000b74abe2","true","748.579999897629","./Stimuli/SelectedImages/SN/SN155.bmp","83","","","","test","true","N + M","83","repetition","SN","SN155.bmp","remember","","80","3","prime1","left","","","",""
"html-keyboard-response","215","472732","0.0-4.0-1.0-3.31","c5w2mut7wo39oyu","prime","5d2202ffa80a600017d967b5","5f60e3c0a3b16e07647b2ff9","5f60ef206e7508000b74abe2","false","null","<div style=""align-items: center; display: flex; color: dodgerblue; font-size: 90px""><b>o</b></div>","null","","","","forget_cue","","","","","","","","","","","","","","","",""
"html-keyboard-response","216","473440","0.0-4.0-1.0-0.32","c5w2mut7wo39oyu","prime","5d2202ffa80a600017d967b5","5f60e3c0a3b16e07647b2ff9","5f60ef206e7508000b74abe2","false","null","<span style=""color: black; font-size: 48px"">N + M</span>","null","","","","resp_prompt","","","","","","","","","","","","","","","",""
"categorize-image","217","474625","0.0-4.0-1.0-1.32","c5w2mut7wo39oyu","prime","5d2202ffa80a600017d967b5","5f60e3c0a3b16e07647b2ff9","5f60ef206e7508000b74abe2","true","1177.9799999203533","./Stimuli/SelectedImages/LN/LN177.bmp","83","","","","test","true","N + M","83","switch","LN","LN177.bmp","forget","","81","3","prime1","left","","","",""
"html-keyboard-response","218","476631","0.0-4.0-1.0-3.32","c5w2mut7wo39oyu","prime","5d2202ffa80a600017d967b5","5f60e3c0a3b16e07647b2ff9","5f60ef206e7508000b74abe2","false","null","<div style=""align-items: center; display: flex; color: darkorange; font-size: 90px""><b>ø</b></div>","null","","","","forget_cue","","","","","","","","","","","","","","","",""
"html-keyboard-response","219","477344","0.0-4.0-1.0-0.33","c5w2mut7wo39oyu","prime","5d2202ffa80a600017d967b5","5f60e3c0a3b16e07647b2ff9","5f60ef206e7508000b74abe2","false","null","<span style=""color: black; font-size: 48px"">N + M</span>","null","","","","resp_prompt","","","","","","","","","","","","","","","",""
"categorize-image","220","478137","0.0-4.0-1.0-1.33","c5w2mut7wo39oyu","prime","5d2202ffa80a600017d967b5","5f60e3c0a3b16e07647b2ff9","5f60ef206e7508000b74abe2","true","786.2850001547486","./Stimuli/SelectedImages/SM/SM108.bmp","76","","","","test","true","N + M","76","repetition","SM","SM108.bmp","remember","","82","3","prime1","right","","","",""
"html-keyboard-response","221","480152","0.0-4.0-1.0-3.33","c5w2mut7wo39oyu","prime","5d2202ffa80a600017d967b5","5f60e3c0a3b16e07647b2ff9","5f60ef206e7508000b74abe2","false","null","<div style=""align-items: center; display: flex; color: dodgerblue; font-size: 90px""><b>o</b></div>","null","","","","forget_cue","","","","","","","","","","","","","","","",""
"html-keyboard-response","222","480864","0.0-4.0-1.0-0.34","c5w2mut7wo39oyu","prime","5d2202ffa80a600017d967b5","5f60e3c0a3b16e07647b2ff9","5f60ef206e7508000b74abe2","false","null","<span style=""color: black; font-size: 48px"">N + M</span>","null","","","","resp_prompt","","","","","","","","","","","","","","","",""
"categorize-image","223","481594","0.0-4.0-1.0-1.34","c5w2mut7wo39oyu","prime","5d2202ffa80a600017d967b5","5f60e3c0a3b16e07647b2ff9","5f60ef206e7508000b74abe2","true","723.5550000332296","./Stimuli/SelectedImages/LN/LN111.bmp","83","","","","test","true","N + M","83","switch","LN","LN111.bmp","remember","","83","3","prime1","left","","","",""
"html-keyboard-response","224","483603","0.0-4.0-1.0-3.34","c5w2mut7wo39oyu","prime","5d2202ffa80a600017d967b5","5f60e3c0a3b16e07647b2ff9","5f60ef206e7508000b74abe2","false","null","<div style=""align-items: center; display: flex; color: dodgerblue; font-size: 90px""><b>o</b></div>","null","","","","forget_cue","","","","","","","","","","","","","","","",""
"html-keyboard-response","225","484314","0.0-4.0-1.0-0.35","c5w2mut7wo39oyu","prime","5d2202ffa80a600017d967b5","5f60e3c0a3b16e07647b2ff9","5f60ef206e7508000b74abe2","false","null","<span style=""color: black; font-size: 48px"">M + N</span>","null","","","","resp_prompt","","","","","","","","","","","","","","","",""
"categorize-image","226","485031","0.0-4.0-1.0-1.35","c5w2mut7wo39oyu","prime","5d2202ffa80a600017d967b5","5f60e3c0a3b16e07647b2ff9","5f60ef206e7508000b74abe2","true","710.1400000974536","./Stimuli/SelectedImages/SN/SN93.bmp","76","","","","test","true","M + N","76","switch","SN","SN93.bmp","forget","","84","3","prime1","right","","","",""
"html-keyboard-response","227","487047","0.0-4.0-1.0-3.35","c5w2mut7wo39oyu","prime","5d2202ffa80a600017d967b5","5f60e3c0a3b16e07647b2ff9","5f60ef206e7508000b74abe2","false","null","<div style=""align-items: center; display: flex; color: darkorange; font-size: 90px""><b>ø</b></div>","null","","","","forget_cue","","","","","","","","","","","","","","","",""
"html-keyboard-response","228","487753","0.0-4.0-1.0-0.36","c5w2mut7wo39oyu","prime","5d2202ffa80a600017d967b5","5f60e3c0a3b16e07647b2ff9","5f60ef206e7508000b74abe2","false","null","<span style=""color: black; font-size: 48px"">N + M</span>","null","","","","resp_prompt","","","","","","","","","","","","","","","",""
"categorize-image","229","488623","0.0-4.0-1.0-1.36","c5w2mut7wo39oyu","prime","5d2202ffa80a600017d967b5","5f60e3c0a3b16e07647b2ff9","5f60ef206e7508000b74abe2","true","864.3399998545647","./Stimuli/SelectedImages/LN/LN12.bmp","83","","","","test","true","N + M","83","switch","LN","LN12.bmp","forget","","85","3","prime1","left","","","",""
"html-keyboard-response","230","490631","0.0-4.0-1.0-3.36","c5w2mut7wo39oyu","prime","5d2202ffa80a600017d967b5","5f60e3c0a3b16e07647b2ff9","5f60ef206e7508000b74abe2","false","null","<div style=""align-items: center; display: flex; color: darkorange; font-size: 90px""><b>ø</b></div>","null","","","","forget_cue","","","","","","","","","","","","","","","",""
"html-keyboard-response","231","491345","0.0-4.0-1.0-0.37","c5w2mut7wo39oyu","prime","5d2202ffa80a600017d967b5","5f60e3c0a3b16e07647b2ff9","5f60ef206e7508000b74abe2","false","null","<span style=""color: black; font-size: 48px"">M + N</span>","null","","","","resp_prompt","","","","","","","","","","","","","","","",""
"categorize-image","232","492108","0.0-4.0-1.0-1.37","c5w2mut7wo39oyu","prime","5d2202ffa80a600017d967b5","5f60e3c0a3b16e07647b2ff9","5f60ef206e7508000b74abe2","true","742.6650000270456","./Stimuli/SelectedImages/LM/LM51.bmp","83","","","","test","true","M + N","83","switch","LM","LM51.bmp","forget","","86","3","prime1","left","","","",""
"html-keyboard-response","233","494112","0.0-4.0-1.0-3.37","c5w2mut7wo39oyu","prime","5d2202ffa80a600017d967b5","5f60e3c0a3b16e07647b2ff9","5f60ef206e7508000b74abe2","false","null","<div style=""align-items: center; display: flex; color: darkorange; font-size: 90px""><b>ø</b></div>","null","","","","forget_cue","","","","","","","","","","","","","","","",""
"html-keyboard-response","234","494819","0.0-4.0-1.0-0.38","c5w2mut7wo39oyu","prime","5d2202ffa80a600017d967b5","5f60e3c0a3b16e07647b2ff9","5f60ef206e7508000b74abe2","false","null","<span style=""color: black; font-size: 48px"">M + N</span>","null","","","","resp_prompt","","","","","","","","","","","","","","","",""
"categorize-image","235","495811","0.0-4.0-1.0-1.38","c5w2mut7wo39oyu","prime","5d2202ffa80a600017d967b5","5f60e3c0a3b16e07647b2ff9","5f60ef206e7508000b74abe2","true","986.415000166744","./Stimuli/SelectedImages/LM/LM48.bmp","83","","","","test","true","M + N","83","switch","LM","LM48.bmp","remember","","87","3","prime1","left","","","",""
"html-keyboard-response","236","497814","0.0-4.0-1.0-3.38","c5w2mut7wo39oyu","prime","5d2202ffa80a600017d967b5","5f60e3c0a3b16e07647b2ff9","5f60ef206e7508000b74abe2","false","null","<div style=""align-items: center; display: flex; color: dodgerblue; font-size: 90px""><b>o</b></div>","null","","","","forget_cue","","","","","","","","","","","","","","","",""
"html-keyboard-response","237","498518","0.0-4.0-1.0-0.39","c5w2mut7wo39oyu","prime","5d2202ffa80a600017d967b5","5f60e3c0a3b16e07647b2ff9","5f60ef206e7508000b74abe2","false","null","<span style=""color: black; font-size: 48px"">M + N</span>","null","","","","resp_prompt","","","","","","","","","","","","","","","",""
"categorize-image","238","499570","0.0-4.0-1.0-1.39","c5w2mut7wo39oyu","prime","5d2202ffa80a600017d967b5","5f60e3c0a3b16e07647b2ff9","5f60ef206e7508000b74abe2","true","1045.1700000558048","./Stimuli/SelectedImages/LM/LM100.bmp","83","","","","test","true","M + N","83","switch","LM","LM100.bmp","forget","","88","3","prime1","left","","","",""
"html-keyboard-response","239","501581","0.0-4.0-1.0-3.39","c5w2mut7wo39oyu","prime","5d2202ffa80a600017d967b5","5f60e3c0a3b16e07647b2ff9","5f60ef206e7508000b74abe2","false","null","<div style=""align-items: center; display: flex; color: darkorange; font-size: 90px""><b>ø</b></div>","null","","","","forget_cue","","","","","","","","","","","","","","","",""
"html-keyboard-response","240","502304","0.0-4.0-1.0-0.40","c5w2mut7wo39oyu","prime","5d2202ffa80a600017d967b5","5f60e3c0a3b16e07647b2ff9","5f60ef206e7508000b74abe2","false","null","<span style=""color: black; font-size: 48px"">N + M</span>","null","","","","resp_prompt","","","","","","","","","","","","","","","",""
"categorize-image","241","503353","0.0-4.0-1.0-1.40","c5w2mut7wo39oyu","prime","5d2202ffa80a600017d967b5","5f60e3c0a3b16e07647b2ff9","5f60ef206e7508000b74abe2","true","1040.3449998702854","./Stimuli/SelectedImages/LM/LM103.bmp","76","","","","test","true","N + M","76","switch","LM","LM103.bmp","remember","","89","3","prime1","right","","","",""
"html-keyboard-response","242","505362","0.0-4.0-1.0-3.40","c5w2mut7wo39oyu","prime","5d2202ffa80a600017d967b5","5f60e3c0a3b16e07647b2ff9","5f60ef206e7508000b74abe2","false","null","<div style=""align-items: center; display: flex; color: dodgerblue; font-size: 90px""><b>o</b></div>","null","","","","forget_cue","","","","","","","","","","","","","","","",""
"html-keyboard-response","243","506078","0.0-4.0-1.0-0.41","c5w2mut7wo39oyu","prime","5d2202ffa80a600017d967b5","5f60e3c0a3b16e07647b2ff9","5f60ef206e7508000b74abe2","false","null","<span style=""color: black; font-size: 48px"">N + M</span>","null","","","","resp_prompt","","","","","","","","","","","","","","","",""
"categorize-image","244","506883","0.0-4.0-1.0-1.41","c5w2mut7wo39oyu","prime","5d2202ffa80a600017d967b5","5f60e3c0a3b16e07647b2ff9","5f60ef206e7508000b74abe2","true","797.7249999530613","./Stimuli/SelectedImages/LN/LN28.bmp","83","","","","test","true","N + M","83","switch","LN","LN28.bmp","remember","","90","3","prime1","left","","","",""
"html-keyboard-response","245","508888","0.0-4.0-1.0-3.41","c5w2mut7wo39oyu","prime","5d2202ffa80a600017d967b5","5f60e3c0a3b16e07647b2ff9","5f60ef206e7508000b74abe2","false","null","<div style=""align-items: center; display: flex; color: dodgerblue; font-size: 90px""><b>o</b></div>","null","","","","forget_cue","","","","","","","","","","","","","","","",""
"html-keyboard-response","246","509596","0.0-4.0-1.0-0.42","c5w2mut7wo39oyu","prime","5d2202ffa80a600017d967b5","5f60e3c0a3b16e07647b2ff9","5f60ef206e7508000b74abe2","false","null","<span style=""color: black; font-size: 48px"">M + N</span>","null","","","","resp_prompt","","","","","","","","","","","","","","","",""
"categorize-image","247","510452","0.0-4.0-1.0-1.42","c5w2mut7wo39oyu","prime","5d2202ffa80a600017d967b5","5f60e3c0a3b16e07647b2ff9","5f60ef206e7508000b74abe2","true","848.7650000024587","./Stimuli/SelectedImages/LN/LN13.bmp","76","","","","test","true","M + N","76","repetition","LN","LN13.bmp","forget","","91","3","prime1","right","","","",""
"html-keyboard-response","248","512461","0.0-4.0-1.0-3.42","c5w2mut7wo39oyu","prime","5d2202ffa80a600017d967b5","5f60e3c0a3b16e07647b2ff9","5f60ef206e7508000b74abe2","false","null","<div style=""align-items: center; display: flex; color: darkorange; font-size: 90px""><b>ø</b></div>","null","","","","forget_cue","","","","","","","","","","","","","","","",""
"html-keyboard-response","249","513172","0.0-4.0-1.0-0.43","c5w2mut7wo39oyu","prime","5d2202ffa80a600017d967b5","5f60e3c0a3b16e07647b2ff9","5f60ef206e7508000b74abe2","false","null","<span style=""color: black; font-size: 48px"">M + N</span>","null","","","","resp_prompt","","","","","","","","","","","","","","","",""
"categorize-image","250","514218","0.0-4.0-1.0-1.43","c5w2mut7wo39oyu","prime","5d2202ffa80a600017d967b5","5f60e3c0a3b16e07647b2ff9","5f60ef206e7508000b74abe2","true","1038.925000000745","./Stimuli/SelectedImages/LN/LN101.bmp","76","","","","test","true","M + N","76","repetition","LN","LN101.bmp","remember","","92","3","prime1","right","","","",""
"html-keyboard-response","251","516236","0.0-4.0-1.0-3.43","c5w2mut7wo39oyu","prime","5d2202ffa80a600017d967b5","5f60e3c0a3b16e07647b2ff9","5f60ef206e7508000b74abe2","false","null","<div style=""align-items: center; display: flex; color: dodgerblue; font-size: 90px""><b>o</b></div>","null","","","","forget_cue","","","","","","","","","","","","","","","",""
"html-keyboard-response","252","516950","0.0-4.0-1.0-0.44","c5w2mut7wo39oyu","prime","5d2202ffa80a600017d967b5","5f60e3c0a3b16e07647b2ff9","5f60ef206e7508000b74abe2","false","null","<span style=""color: black; font-size: 48px"">N + M</span>","null","","","","resp_prompt","","","","","","","","","","","","","","","",""
