"trial_type","trial_index","time_elapsed","internal_node_id","subject","exp_part","prolific_PID","study_ID","session_ID","use","rt","stimulus","key_press","button_pressed","responses","question_order","trial_part","correct","resp_map","correct_resp","probe_condition","category","image","forget_condition","list","trial_num","block_num","block","response","test_part","n_span","sequence","num_spaces"
"pavlovia","0","3","0.0-0.0","8ok5d6p1q74zlsr","","5f5f7faadce2060497c9e7ae","5f60e3c0a3b16e07647b2ff9","5f60eb8dda8043000a5b639e","false","","","","","","","","","","","","","","","","","","","","","","",""
"html-keyboard-response","1","7983","0.0-1.0-0.0-0.0","8ok5d6p1q74zlsr","welcome","5f5f7faadce2060497c9e7ae","5f60e3c0a3b16e07647b2ff9","5f60eb8dda8043000a5b639e","false","7979.5000000158325","<div align=left>Dear participant, <br> thank you for participating in an online study of the Cognition, Action, and Sustainability Unit of the University of Freiburg! <br> <br>The aim of this study is to examine our ability to remember previously learned information. <br>Our goal is to find out, whether our memory improves, when we only remember information that is relevant to us. <br>The experiment will take about 35 minutes to complete. <br> <br>Please, note that you can only participate in this study if you are using a device with a keyboard (PC, Laptop etc.) <br>and not if you are using a mobile device such as a tablet or smartphone.<br> <br>Press 'SPACE' to proceed to the experiment. </div>","32","","","","","","","","","","","","","","","","","","","",""
"html-keyboard-response","2","19309","0.0-1.0-0.0-1.0","8ok5d6p1q74zlsr","welcome","5f5f7faadce2060497c9e7ae","5f60e3c0a3b16e07647b2ff9","5f60eb8dda8043000a5b639e","false","11325.269999972079","<div align=left><strong> Time Course of this experiment: </strong> <br><br> <strong> 1.</strong>  First, please fill in some information regarding your demographic data. <br><br> <strong> 2.</strong>  Next, your task will be to classify everyday objects. <br>In addition, you will be asked to remember certain objects and recall them later. <br>Working on these tasks requires your undivided attention and concentration.<br>It is therefore essential that you eliminate any sources of distraction in your  <br>environment and ensure that you will not be disturbed. <br><br><strong> 3.</strong>  At the end of the experiment, you will be asked to answer a few additional questions. <br> <br><strong> Important:</strong> After finishing the experiment, only close the browser window <br> by clicking on the 'end the experiment'-button when you are asked to do so. <br>Closing the browser window prematurely will make the allocation of your participation credit impossible. <br><br> Press 'SPACE' to start the experiment. </div>","32","","","","","","","","","","","","","","","","","","","",""
"html-button-response","3","176639","0.0-1.0-0.0-2.0","8ok5d6p1q74zlsr","welcome","5f5f7faadce2060497c9e7ae","5f60e3c0a3b16e07647b2ff9","5f60eb8dda8043000a5b639e","true","157333.5799999768","<div align=left><strong> Informed consent </strong>  <br>The aim of our research is to better understand human behavior and mental processes. <br>In the following study your behavior (e.g. choices, reaction times) will be studied. <br> <br><strong> Voluntariness and Anonymity </strong> <br>Your participation in this study is  <strong> voluntary</strong>.<br>You may withdraw your consent to participate at any time without providing a reason for doing so and without fear of prejudice. <br><br>As no personal data will be collected, <strong>your data and your person cannot be connected after data collection</strong> – the data-set is anonymous. <br>Respectively, deletion of your data will not be possible after data collection has been completed, as we cannot retrace your data-set.<br>The results and anonymized data collected in this study will be published as a scientific publication. <br>This will happen in an <strong>anonymized format</strong>, so that no data can be traced back to a specific person. <br> <br>The anonymized data of this study will be made available to other researchers and/or in a data archive on the Internet as a means of transparency and to enable subsequent re-use. By doing so, this study follows the recommendations of the Deutsche Forschungsgemeinschaft (DFG, German Research Foundation) and Deutsche Gesellschaft für Psychologie (DGPS, German Psychological Society) regarding quality assurance in research.<br>If you have any questions now or after the experiment, please contact our team (experiments@cs.uni-freiburg.de).<br><br><br>I hereby declare, that I understand the above described conditions of participation and I agree to participate under these conditions. <br><br> </div>","","0","","","","","","","","","","","","","","","","","","",""
"html-keyboard-response","4","209648","0.0-1.0-0.0-3.0","8ok5d6p1q74zlsr","welcome","5f5f7faadce2060497c9e7ae","5f60e3c0a3b16e07647b2ff9","5f60eb8dda8043000a5b639e","false","33008.31999996444","<div align=left><strong> General information concerning the experiment </strong>  <br> <br>Please follow the instructions:<ol> <li><strong> Do not leave this tab (your browser window) during the experiment and do not reload this tab! </strong>  <br>If you do switch tabs/windows during the experiment (to check your mail or visit another website, for example), <br>the experiment will end automatically and you will <strong>not receive credit</strong> for your participation. <br>Repeated participation or resumption of the experiment is impossible.</li> <br><li>Please close all other programs for the duration of your participation. </li> <br><li>Please mute or turn off your phone and put it out of your reach. </li> <br><li>Please also take off any disturbing accessories (such as wristwatches, bracelets, etc.). </li> <br><li>If you have music playing in the background, please turn it off now. </li> <br></ol>Thank you! <br>Press 'SPACE' to continue. </div>","32","","","","","","","","","","","","","","","","","","","",""
"survey-text","5","213360","0.0-1.0-1.0-0.0","8ok5d6p1q74zlsr","demographics","5f5f7faadce2060497c9e7ae","5f60e3c0a3b16e07647b2ff9","5f60eb8dda8043000a5b639e","true","3708.494999969844","","","","{""age"":""26""}","","","","","","","","","","","","","","","","","",""
"survey-multi-choice","6","233029","0.0-1.0-1.0-1.0","8ok5d6p1q74zlsr","demographics","5f5f7faadce2060497c9e7ae","5f60e3c0a3b16e07647b2ff9","5f60eb8dda8043000a5b639e","true","19668.01999998279","","","","{""gender"":""female"",""school"":""high school"",""education"":""Completed university degree or equivalent""}","[0,1,2]","","","","","","","","","","","","","","","","",""
"html-keyboard-response","7","247294","0.0-1.0-2.0","8ok5d6p1q74zlsr","instructions","5f5f7faadce2060497c9e7ae","5f60e3c0a3b16e07647b2ff9","5f60eb8dda8043000a5b639e","false","14263.679999974556","<div align=left> The experiment is now about to start: <br> <br>In the following part, you will be presented pictures of everyday objects. <br>Your first task is to <strong>classify these objects. </strong> <br> <br> You will classify them either as mechanical or non-mechanical objects. <br> <br>Objects that include any kind of technical mechanism (for example, wheels, switches, levers, <br> electronic components) fall under the category of <strong>mechanical</strong> objects. <br>Only objects without any kind of technical mechanism should be classified as <strong>non-mechanical</strong>. <br><br>Press 'SPACE' to continue. </div>","32","","","","","","","","","","","","","","","","","","","",""
"html-keyboard-response","8","276846","0.0-2.0-0.0","8ok5d6p1q74zlsr","instructions","5f5f7faadce2060497c9e7ae","5f60e3c0a3b16e07647b2ff9","5f60eb8dda8043000a5b639e","false","29551.444999990053","<div align=justify>You will classify the objects using the <strong>'S'</strong> and the <strong>'L'</strong> keys on your keyboard.<br>For doing so, please place your <strong>left index finger</strong> on the <strong>'S'</strong> key and place your <strong>right index finger</strong> on the <strong>'L'</strong> key. <br><br> Each trial starts with an instruction, indicating which key ('S'/'L') you need to press to classify <br>the object as mechanical (letter M) or non-mechanical (letter N).<br>The instruction <strong>M + N</strong> indicates that, in the current trial, by pressing the left key ('S') you classify the displayed object as mechanical (M) <br> and by pressing the right key ('L') you classify the object as non-mechanical (N). <br>The instruction <strong>N + M</strong> on the other hand indicates that by pressing the left key ('S') you classify the displayed object as non-mechanical (N) <br> and by pressing the right key ('L') you classify the object as mechanical (M). <br><br>Please press the key corresponding to the correct classification as fast as possible as soon as the object is displayed and try to avoid making mistakes.<br>If you do not respond within a 2 second window, a corresponding feedback will be displayed and the next trial will start.<br> The experiment is divided into multiple blocks to give you the opportunity to take a break after each block. <br>First, you can now practice this task. <br><br>Please place your <strong>LEFT INDEX FINGER</strong> on the 'S' key and your <strong>RIGHT INDEX FINGER</strong> on the 'L' key now. <br><br>Press SPACE to continue.</div>","32","","","","","","","","","","","","","","","","","","","",""
"html-keyboard-response","9","286005","0.0-2.0-1.0","8ok5d6p1q74zlsr","instructions","5f5f7faadce2060497c9e7ae","5f60e3c0a3b16e07647b2ff9","5f60eb8dda8043000a5b639e","false","9158.759999962058","<div align=left> You will now have time to practice this task.<br><br>Remember: <br> <br><li>Please place your index fingers on the <strong>'S'</strong> and <strong>'L'</strong> keys <br>to respond as fast and accurately as possible.</li><li>Every picture can be classified as either mechanical or non-mechanical.</li><li>If you do not respond in time or commit an error, you will receive a corresponding feedback. </li><li> Please try to respond as <strong> fast </strong> and as <strong> accurately as possible </strong> .<br><li>To ensure optimal results, please minimize distractions and stay focused. </li><br><br>Press SPACE to continue.</div>","32","","","","","","","","","","","","","","","","","","","",""
"html-keyboard-response","10","286711","0.0-2.0-2.0-0.0","8ok5d6p1q74zlsr","practice_no_cue","5f5f7faadce2060497c9e7ae","5f60e3c0a3b16e07647b2ff9","5f60eb8dda8043000a5b639e","false","null","<span style=""color: black; font-size: 48px"">M + N</span>","null","","","","resp_prompt","","","","","","","","","","","","","","","",""
"categorize-image","11","288249","0.0-2.0-2.0-1.0","8ok5d6p1q74zlsr","practice_no_cue","5f5f7faadce2060497c9e7ae","5f60e3c0a3b16e07647b2ff9","5f60eb8dda8043000a5b639e","true","1035.8850000193343","./Stimuli/ImagesPractice/LM224.jpg","83","","","","test","true","M + N","83","","LM","LM224.jpg","forget","old","1","1","start","left","","","",""
"html-keyboard-response","12","288956","0.0-2.0-2.0-0.1","8ok5d6p1q74zlsr","practice_no_cue","5f5f7faadce2060497c9e7ae","5f60e3c0a3b16e07647b2ff9","5f60eb8dda8043000a5b639e","false","null","<span style=""color: black; font-size: 48px"">M + N</span>","null","","","","resp_prompt","","","","","","","","","","","","","","","",""
"categorize-image","13","290538","0.0-2.0-2.0-1.1","8ok5d6p1q74zlsr","practice_no_cue","5f5f7faadce2060497c9e7ae","5f60e3c0a3b16e07647b2ff9","5f60eb8dda8043000a5b639e","true","1079.3449999764562","./Stimuli/ImagesPractice/LM230.jpg","83","","","","test","true","M + N","83","","LM","LM230.jpg","forget","old","2","1","start","left","","","",""
"html-keyboard-response","14","291241","0.0-2.0-2.0-0.2","8ok5d6p1q74zlsr","practice_no_cue","5f5f7faadce2060497c9e7ae","5f60e3c0a3b16e07647b2ff9","5f60eb8dda8043000a5b639e","false","null","<span style=""color: black; font-size: 48px"">M + N</span>","null","","","","resp_prompt","","","","","","","","","","","","","","","",""
"categorize-image","15","292529","0.0-2.0-2.0-1.2","8ok5d6p1q74zlsr","practice_no_cue","5f5f7faadce2060497c9e7ae","5f60e3c0a3b16e07647b2ff9","5f60eb8dda8043000a5b639e","true","785.8000000123866","./Stimuli/ImagesPractice/SN205.jpg","76","","","","test","true","M + N","76","","SN","SN205.jpg","forget","old","3","1","start","right","","","",""
"html-keyboard-response","16","293235","0.0-2.0-2.0-0.3","8ok5d6p1q74zlsr","practice_no_cue","5f5f7faadce2060497c9e7ae","5f60e3c0a3b16e07647b2ff9","5f60eb8dda8043000a5b639e","false","null","<span style=""color: black; font-size: 48px"">N + M</span>","null","","","","resp_prompt","","","","","","","","","","","","","","","",""
"categorize-image","17","294548","0.0-2.0-2.0-1.3","8ok5d6p1q74zlsr","practice_no_cue","5f5f7faadce2060497c9e7ae","5f60e3c0a3b16e07647b2ff9","5f60eb8dda8043000a5b639e","true","807.0400000433438","./Stimuli/ImagesPractice/SN222.jpg","76","","","","test","false","N + M","83","","SN","SN222.jpg","remember","old","4","1","start","right","","","",""
"html-keyboard-response","18","295254","0.0-2.0-2.0-0.4","8ok5d6p1q74zlsr","practice_no_cue","5f5f7faadce2060497c9e7ae","5f60e3c0a3b16e07647b2ff9","5f60eb8dda8043000a5b639e","false","null","<span style=""color: black; font-size: 48px"">N + M</span>","null","","","","resp_prompt","","","","","","","","","","","","","","","",""
"categorize-image","19","296675","0.0-2.0-2.0-1.4","8ok5d6p1q74zlsr","practice_no_cue","5f5f7faadce2060497c9e7ae","5f60e3c0a3b16e07647b2ff9","5f60eb8dda8043000a5b639e","true","915.7649999833666","./Stimuli/ImagesPractice/SM97.jpg","83","","","","test","false","N + M","76","","SM","SM97.jpg","forget","old","5","1","start","left","","","",""
"html-keyboard-response","20","297383","0.0-2.0-2.0-0.5","8ok5d6p1q74zlsr","practice_no_cue","5f5f7faadce2060497c9e7ae","5f60e3c0a3b16e07647b2ff9","5f60eb8dda8043000a5b639e","false","null","<span style=""color: black; font-size: 48px"">M + N</span>","null","","","","resp_prompt","","","","","","","","","","","","","","","",""
"categorize-image","21","298678","0.0-2.0-2.0-1.5","8ok5d6p1q74zlsr","practice_no_cue","5f5f7faadce2060497c9e7ae","5f60e3c0a3b16e07647b2ff9","5f60eb8dda8043000a5b639e","true","788.8299999758601","./Stimuli/ImagesPractice/SM37.jpg","83","","","","test","true","M + N","83","","SM","SM37.jpg","remember","old","6","1","start","left","","","",""
"html-keyboard-response","22","299384","0.0-2.0-2.0-0.6","8ok5d6p1q74zlsr","practice_no_cue","5f5f7faadce2060497c9e7ae","5f60e3c0a3b16e07647b2ff9","5f60eb8dda8043000a5b639e","false","null","<span style=""color: black; font-size: 48px"">N + M</span>","null","","","","resp_prompt","","","","","","","","","","","","","","","",""
"categorize-image","23","300992","0.0-2.0-2.0-1.6","8ok5d6p1q74zlsr","practice_no_cue","5f5f7faadce2060497c9e7ae","5f60e3c0a3b16e07647b2ff9","5f60eb8dda8043000a5b639e","true","1106.2749999691732","./Stimuli/ImagesPractice/LM143.jpg","76","","","","test","true","N + M","76","","LM","LM143.jpg","remember","old","7","1","start","right","","","",""
"html-keyboard-response","24","301694","0.0-2.0-2.0-0.7","8ok5d6p1q74zlsr","practice_no_cue","5f5f7faadce2060497c9e7ae","5f60e3c0a3b16e07647b2ff9","5f60eb8dda8043000a5b639e","false","null","<span style=""color: black; font-size: 48px"">M + N</span>","null","","","","resp_prompt","","","","","","","","","","","","","","","",""
"categorize-image","25","303052","0.0-2.0-2.0-1.7","8ok5d6p1q74zlsr","practice_no_cue","5f5f7faadce2060497c9e7ae","5f60e3c0a3b16e07647b2ff9","5f60eb8dda8043000a5b639e","true","852.0449999487028","./Stimuli/ImagesPractice/LM147.jpg","83","","","","test","true","M + N","83","","LM","LM147.jpg","remember","old","8","1","start","left","","","",""
"html-keyboard-response","26","303758","0.0-2.0-2.0-0.8","8ok5d6p1q74zlsr","practice_no_cue","5f5f7faadce2060497c9e7ae","5f60e3c0a3b16e07647b2ff9","5f60eb8dda8043000a5b639e","false","null","<span style=""color: black; font-size: 48px"">N + M</span>","null","","","","resp_prompt","","","","","","","","","","","","","","","",""
"categorize-image","27","305366","0.0-2.0-2.0-1.8","8ok5d6p1q74zlsr","practice_no_cue","5f5f7faadce2060497c9e7ae","5f60e3c0a3b16e07647b2ff9","5f60eb8dda8043000a5b639e","true","1102.0949999801815","./Stimuli/ImagesPractice/LN15.jpg","83","","","","test","true","N + M","83","","LN","LN15.jpg","forget","old","9","1","start","left","","","",""
"html-keyboard-response","28","306068","0.0-2.0-2.0-0.9","8ok5d6p1q74zlsr","practice_no_cue","5f5f7faadce2060497c9e7ae","5f60e3c0a3b16e07647b2ff9","5f60eb8dda8043000a5b639e","false","null","<span style=""color: black; font-size: 48px"">N + M</span>","null","","","","resp_prompt","","","","","","","","","","","","","","","",""
"categorize-image","29","307477","0.0-2.0-2.0-1.9","8ok5d6p1q74zlsr","practice_no_cue","5f5f7faadce2060497c9e7ae","5f60e3c0a3b16e07647b2ff9","5f60eb8dda8043000a5b639e","true","902.6449999655597","./Stimuli/ImagesPractice/LN17.jpg","83","","","","test","true","N + M","83","","LN","LN17.jpg","forget","old","10","1","start","left","","","",""
"html-keyboard-response","30","308183","0.0-2.0-2.0-0.10","8ok5d6p1q74zlsr","practice_no_cue","5f5f7faadce2060497c9e7ae","5f60e3c0a3b16e07647b2ff9","5f60eb8dda8043000a5b639e","false","null","<span style=""color: black; font-size: 48px"">M + N</span>","null","","","","resp_prompt","","","","","","","","","","","","","","","",""
"categorize-image","31","309992","0.0-2.0-2.0-1.10","8ok5d6p1q74zlsr","practice_no_cue","5f5f7faadce2060497c9e7ae","5f60e3c0a3b16e07647b2ff9","5f60eb8dda8043000a5b639e","true","1307.379999954719","./Stimuli/ImagesPractice/SM61.jpg","83","","","","test","true","M + N","83","","SM","SM61.jpg","remember","old","11","1","start","left","","","",""
"html-keyboard-response","32","310695","0.0-2.0-2.0-0.11","8ok5d6p1q74zlsr","practice_no_cue","5f5f7faadce2060497c9e7ae","5f60e3c0a3b16e07647b2ff9","5f60eb8dda8043000a5b639e","false","null","<span style=""color: black; font-size: 48px"">M + N</span>","null","","","","resp_prompt","","","","","","","","","","","","","","","",""
"categorize-image","33","311927","0.0-2.0-2.0-1.11","8ok5d6p1q74zlsr","practice_no_cue","5f5f7faadce2060497c9e7ae","5f60e3c0a3b16e07647b2ff9","5f60eb8dda8043000a5b639e","true","730.5400000186637","./Stimuli/ImagesPractice/LM55.jpg","83","","","","test","true","M + N","83","","LM","LM55.jpg","remember","old","12","1","start","left","","","",""
"html-keyboard-response","34","312629","0.0-2.0-2.0-0.12","8ok5d6p1q74zlsr","practice_no_cue","5f5f7faadce2060497c9e7ae","5f60e3c0a3b16e07647b2ff9","5f60eb8dda8043000a5b639e","false","null","<span style=""color: black; font-size: 48px"">N + M</span>","null","","","","resp_prompt","","","","","","","","","","","","","","","",""
"categorize-image","35","314106","0.0-2.0-2.0-1.12","8ok5d6p1q74zlsr","practice_no_cue","5f5f7faadce2060497c9e7ae","5f60e3c0a3b16e07647b2ff9","5f60eb8dda8043000a5b639e","true","972.4050000077114","./Stimuli/ImagesPractice/SN76.jpg","83","","","","test","true","N + M","83","","SN","SN76.jpg","remember","old","13","1","start","left","","","",""
"html-keyboard-response","36","314808","0.0-2.0-2.0-0.13","8ok5d6p1q74zlsr","practice_no_cue","5f5f7faadce2060497c9e7ae","5f60e3c0a3b16e07647b2ff9","5f60eb8dda8043000a5b639e","false","null","<span style=""color: black; font-size: 48px"">N + M</span>","null","","","","resp_prompt","","","","","","","","","","","","","","","",""
"categorize-image","37","316270","0.0-2.0-2.0-1.13","8ok5d6p1q74zlsr","practice_no_cue","5f5f7faadce2060497c9e7ae","5f60e3c0a3b16e07647b2ff9","5f60eb8dda8043000a5b639e","true","960.3549999883398","./Stimuli/ImagesPractice/SM98.jpg","76","","","","test","true","N + M","76","","SM","SM98.jpg","remember","old","14","1","start","right","","","",""
"html-keyboard-response","38","316974","0.0-2.0-2.0-0.14","8ok5d6p1q74zlsr","practice_no_cue","5f5f7faadce2060497c9e7ae","5f60e3c0a3b16e07647b2ff9","5f60eb8dda8043000a5b639e","false","null","<span style=""color: black; font-size: 48px"">N + M</span>","null","","","","resp_prompt","","","","","","","","","","","","","","","",""
"categorize-image","39","318772","0.0-2.0-2.0-1.14","8ok5d6p1q74zlsr","practice_no_cue","5f5f7faadce2060497c9e7ae","5f60e3c0a3b16e07647b2ff9","5f60eb8dda8043000a5b639e","true","1291.785000008531","./Stimuli/ImagesPractice/SM62.jpg","76","","","","test","true","N + M","76","","SM","SM62.jpg","forget","old","15","1","start","right","","","",""
"html-keyboard-response","40","319478","0.0-2.0-2.0-0.15","8ok5d6p1q74zlsr","practice_no_cue","5f5f7faadce2060497c9e7ae","5f60e3c0a3b16e07647b2ff9","5f60eb8dda8043000a5b639e","false","null","<span style=""color: black; font-size: 48px"">M + N</span>","null","","","","resp_prompt","","","","","","","","","","","","","","","",""
"categorize-image","41","321085","0.0-2.0-2.0-1.15","8ok5d6p1q74zlsr","practice_no_cue","5f5f7faadce2060497c9e7ae","5f60e3c0a3b16e07647b2ff9","5f60eb8dda8043000a5b639e","true","1100.4950000206009","./Stimuli/ImagesPractice/LN4.jpg","76","","","","test","true","M + N","76","","LN","LN4.jpg","forget","old","16","1","start","right","","","",""
"html-keyboard-response","42","325746","0.0-2.0-3.0","8ok5d6p1q74zlsr","break","5f5f7faadce2060497c9e7ae","5f60e3c0a3b16e07647b2ff9","5f60eb8dda8043000a5b639e","false","4659.419999981765","<p style='font-size: 32px;'>Break</><br><br><br><br><br><p style='font-size: 24px;'>In the last block, you committed 2 errors and did not respond in time on 0 trials.
</p><p style='font-size: 24px;'>Try to respond as fast and accurately as possible in the next block as well! </p><p style='font-size: 24px;'>Press SPACE to continue.</p>","32","","","","","","","","","","","","","","","","","","","",""
"html-keyboard-response","43","329522","0.0-2.0-4.0","8ok5d6p1q74zlsr","instructions","5f5f7faadce2060497c9e7ae","5f60e3c0a3b16e07647b2ff9","5f60eb8dda8043000a5b639e","false","3774.3500000215136","<div align=left> Great!<br><br>Are you ready to continue?<br><br>If you want to reread the instructions and redo the practice trials, <br>please press „Z“. <br><br>Press SPACE to CONTINUE with the experiment when you are ready. </div>","32","","","","","","","","","","","","","","","","","","","",""
"html-keyboard-response","44","345835","0.0-3.0-0.0","8ok5d6p1q74zlsr","instructions","5f5f7faadce2060497c9e7ae","5f60e3c0a3b16e07647b2ff9","5f60eb8dda8043000a5b639e","false","16312.814999953844","<div align=left>Great!<br> <strong>Attention</strong>! You will now receive a second, additional task! <br><br>To this point it was you <strong>first task</strong> to correctly <strong>classify objects</strong>. <br><br>As mentioned in the beginning, we aim to examine how well humans can remember previously learned information.<br>We would like to find out whether our memory improves if we only remember information that is relevant to us. <br><br>Therefore, your <strong>second task</strong> will be to <strong>remember</strong> the pictures you are to categorize. <br> After the learning phase, there will be a memory test phase, in which you will be asked to indicate whether you have seen a picture before or not. <br>Some, but not all pictures shown in the learning phase will appear in the memory test phase.<br>After classifying a picture, you will be told whether you should remember it for the memory test phase or not. <br>Thus, some pictures can be forgotten, whereas others have to be remembered. <br><br>Note: From now on, feedback will only be displayed if you responded incorrectly or not in time.<br><br>Press SPACE to continue.</div>","32","","","","","","","","","","","","","","","","","","","",""
"html-keyboard-response","45","359387","0.0-3.0-1.0","8ok5d6p1q74zlsr","instructions","5f5f7faadce2060497c9e7ae","5f60e3c0a3b16e07647b2ff9","5f60eb8dda8043000a5b639e","false","13551.050000009127","<div align=left>In the following part, you will thus have to remember only some pictures. <br>Immediately after seeing and classifying the picture, a symbol will be displayed, indicating whether you should remember or forget the previous picture. <br><br>A <span style='color: dodgerblue; font-size: 28px'>O</span> indicates REMEMBER. That means, you have to remember this picture, because it will be tested later. <br><br>A <span style='color: darkorange; font-size:28px'>Ø</span> indicates FORGET. You do not have to remember this picture. <br><br> As you will have to remember a lot of pictures, it will be hard for you to remember all of them. <br>It will put you at an advantage if you instantly forget the pictures you are not asked to remember. <br> This will make it easier for you to remember the pictures that will be tested afterwards. <br><br>Press SPACE to continue.</div>","32","","","","","","","","","","","","","","","","","","","",""
"html-keyboard-response","46","361513","0.0-3.0-2.0","8ok5d6p1q74zlsr","instructions","5f5f7faadce2060497c9e7ae","5f60e3c0a3b16e07647b2ff9","5f60eb8dda8043000a5b639e","false","2125.784999981988","<div align=left> Now you have the chance to practice both tasks together.<br><br>Remember: <br> <br><li>Please place your index fingers on the <strong>'S'</strong> and <strong>'L'</strong> keys <br>to respond as fast and accurately as possible.</li><li>Every picture can be classified as either mechanical or non-mechanical.</li><li>If you do not respond in time or commit an error, you will receive a corresponding feedback. <br>Please try to respond as <strong> fast </strong> and as <strong> accurately as possible </strong>.</li><li> Please remember only the to-be-remembered <span style='color: dodgerblue; font-size: 28px'>O</span> pictures. <br></li><li> Please minimize distractions and stay focused. </li><br><br>Press SPACE to START</div>","32","","","","","","","","","","","","","","","","","","","",""
"html-keyboard-response","47","362219","0.0-3.0-3.0-0.0","8ok5d6p1q74zlsr","practice_cue","5f5f7faadce2060497c9e7ae","5f60e3c0a3b16e07647b2ff9","5f60eb8dda8043000a5b639e","false","null","<span style=""color: black; font-size: 48px"">N + M</span>","null","","","","resp_prompt","","","","","","","","","","","","","","","",""
"categorize-image","48","363220","0.0-3.0-3.0-1.0","8ok5d6p1q74zlsr","practice_cue","5f5f7faadce2060497c9e7ae","5f60e3c0a3b16e07647b2ff9","5f60eb8dda8043000a5b639e","true","996.8000000226311","./Stimuli/ImagesPractice/SM98.jpg","76","","","","test","true","N + M","76","","SM","SM98.jpg","remember","old","17","2","practice_forget","right","","","",""
"html-keyboard-response","49","365222","0.0-3.0-3.0-3.0","8ok5d6p1q74zlsr","practice_cue","5f5f7faadce2060497c9e7ae","5f60e3c0a3b16e07647b2ff9","5f60eb8dda8043000a5b639e","false","null","<div style=""align-items: center; display: flex; color: dodgerblue; font-size: 90px""><b>o</b></div>","null","","","","forget_cue","","","","","","","","","","","","","","","",""
"html-keyboard-response","50","365925","0.0-3.0-3.0-0.1","8ok5d6p1q74zlsr","practice_cue","5f5f7faadce2060497c9e7ae","5f60e3c0a3b16e07647b2ff9","5f60eb8dda8043000a5b639e","false","null","<span style=""color: black; font-size: 48px"">M + N</span>","null","","","","resp_prompt","","","","","","","","","","","","","","","",""
"categorize-image","51","366955","0.0-3.0-3.0-1.1","8ok5d6p1q74zlsr","practice_cue","5f5f7faadce2060497c9e7ae","5f60e3c0a3b16e07647b2ff9","5f60eb8dda8043000a5b639e","true","1027.330000011716","./Stimuli/ImagesPractice/SM37.jpg","83","","","","test","true","M + N","83","","SM","SM37.jpg","remember","old","18","2","practice_forget","left","","","",""
"html-keyboard-response","52","368959","0.0-3.0-3.0-3.1","8ok5d6p1q74zlsr","practice_cue","5f5f7faadce2060497c9e7ae","5f60e3c0a3b16e07647b2ff9","5f60eb8dda8043000a5b639e","false","null","<div style=""align-items: center; display: flex; color: dodgerblue; font-size: 90px""><b>o</b></div>","null","","","","forget_cue","","","","","","","","","","","","","","","",""
"html-keyboard-response","53","369665","0.0-3.0-3.0-0.2","8ok5d6p1q74zlsr","practice_cue","5f5f7faadce2060497c9e7ae","5f60e3c0a3b16e07647b2ff9","5f60eb8dda8043000a5b639e","false","null","<span style=""color: black; font-size: 48px"">M + N</span>","null","","","","resp_prompt","","","","","","","","","","","","","","","",""
"categorize-image","54","370539","0.0-3.0-3.0-1.2","8ok5d6p1q74zlsr","practice_cue","5f5f7faadce2060497c9e7ae","5f60e3c0a3b16e07647b2ff9","5f60eb8dda8043000a5b639e","true","871.0699999937788","./Stimuli/ImagesPractice/LN4.jpg","76","","","","test","true","M + N","76","","LN","LN4.jpg","forget","old","19","2","practice_forget","right","","","",""
"html-keyboard-response","55","372545","0.0-3.0-3.0-3.2","8ok5d6p1q74zlsr","practice_cue","5f5f7faadce2060497c9e7ae","5f60e3c0a3b16e07647b2ff9","5f60eb8dda8043000a5b639e","false","null","<div style=""align-items: center; display: flex; color: darkorange; font-size: 90px""><b>ø</b></div>","null","","","","forget_cue","","","","","","","","","","","","","","","",""
"html-keyboard-response","56","373251","0.0-3.0-3.0-0.3","8ok5d6p1q74zlsr","practice_cue","5f5f7faadce2060497c9e7ae","5f60e3c0a3b16e07647b2ff9","5f60eb8dda8043000a5b639e","false","null","<span style=""color: black; font-size: 48px"">M + N</span>","null","","","","resp_prompt","","","","","","","","","","","","","","","",""
"categorize-image","57","373908","0.0-3.0-3.0-1.3","8ok5d6p1q74zlsr","practice_cue","5f5f7faadce2060497c9e7ae","5f60e3c0a3b16e07647b2ff9","5f60eb8dda8043000a5b639e","true","654.8750000074506","./Stimuli/ImagesPractice/SM61.jpg","83","","","","test","true","M + N","83","","SM","SM61.jpg","remember","old","20","2","practice_forget","left","","","",""
"html-keyboard-response","58","375910","0.0-3.0-3.0-3.3","8ok5d6p1q74zlsr","practice_cue","5f5f7faadce2060497c9e7ae","5f60e3c0a3b16e07647b2ff9","5f60eb8dda8043000a5b639e","false","null","<div style=""align-items: center; display: flex; color: dodgerblue; font-size: 90px""><b>o</b></div>","null","","","","forget_cue","","","","","","","","","","","","","","","",""
"html-keyboard-response","59","376615","0.0-3.0-3.0-0.4","8ok5d6p1q74zlsr","practice_cue","5f5f7faadce2060497c9e7ae","5f60e3c0a3b16e07647b2ff9","5f60eb8dda8043000a5b639e","false","null","<span style=""color: black; font-size: 48px"">N + M</span>","null","","","","resp_prompt","","","","","","","","","","","","","","","",""
"categorize-image","60","377354","0.0-3.0-3.0-1.4","8ok5d6p1q74zlsr","practice_cue","5f5f7faadce2060497c9e7ae","5f60e3c0a3b16e07647b2ff9","5f60eb8dda8043000a5b639e","true","735.8499999972992","./Stimuli/ImagesPractice/SN76.jpg","83","","","","test","true","N + M","83","","SN","SN76.jpg","remember","old","21","2","practice_forget","left","","","",""
"html-keyboard-response","61","379360","0.0-3.0-3.0-3.4","8ok5d6p1q74zlsr","practice_cue","5f5f7faadce2060497c9e7ae","5f60e3c0a3b16e07647b2ff9","5f60eb8dda8043000a5b639e","false","null","<div style=""align-items: center; display: flex; color: dodgerblue; font-size: 90px""><b>o</b></div>","null","","","","forget_cue","","","","","","","","","","","","","","","",""
"html-keyboard-response","62","380065","0.0-3.0-3.0-0.5","8ok5d6p1q74zlsr","practice_cue","5f5f7faadce2060497c9e7ae","5f60e3c0a3b16e07647b2ff9","5f60eb8dda8043000a5b639e","false","null","<span style=""color: black; font-size: 48px"">M + N</span>","null","","","","resp_prompt","","","","","","","","","","","","","","","",""
"categorize-image","63","381019","0.0-3.0-3.0-1.5","8ok5d6p1q74zlsr","practice_cue","5f5f7faadce2060497c9e7ae","5f60e3c0a3b16e07647b2ff9","5f60eb8dda8043000a5b639e","true","950.9449999895878","./Stimuli/ImagesPractice/LM230.jpg","83","","","","test","true","M + N","83","","LM","LM230.jpg","forget","old","22","2","practice_forget","left","","","",""
"html-keyboard-response","64","383025","0.0-3.0-3.0-3.5","8ok5d6p1q74zlsr","practice_cue","5f5f7faadce2060497c9e7ae","5f60e3c0a3b16e07647b2ff9","5f60eb8dda8043000a5b639e","false","null","<div style=""align-items: center; display: flex; color: darkorange; font-size: 90px""><b>ø</b></div>","null","","","","forget_cue","","","","","","","","","","","","","","","",""
"html-keyboard-response","65","383731","0.0-3.0-3.0-0.6","8ok5d6p1q74zlsr","practice_cue","5f5f7faadce2060497c9e7ae","5f60e3c0a3b16e07647b2ff9","5f60eb8dda8043000a5b639e","false","null","<span style=""color: black; font-size: 48px"">M + N</span>","null","","","","resp_prompt","","","","","","","","","","","","","","","",""
"categorize-image","66","384458","0.0-3.0-3.0-1.6","8ok5d6p1q74zlsr","practice_cue","5f5f7faadce2060497c9e7ae","5f60e3c0a3b16e07647b2ff9","5f60eb8dda8043000a5b639e","true","724.0849999943748","./Stimuli/ImagesPractice/LM55.jpg","83","","","","test","true","M + N","83","","LM","LM55.jpg","remember","old","23","2","practice_forget","left","","","",""
"html-keyboard-response","67","386464","0.0-3.0-3.0-3.6","8ok5d6p1q74zlsr","practice_cue","5f5f7faadce2060497c9e7ae","5f60e3c0a3b16e07647b2ff9","5f60eb8dda8043000a5b639e","false","null","<div style=""align-items: center; display: flex; color: dodgerblue; font-size: 90px""><b>o</b></div>","null","","","","forget_cue","","","","","","","","","","","","","","","",""
"html-keyboard-response","68","387168","0.0-3.0-3.0-0.7","8ok5d6p1q74zlsr","practice_cue","5f5f7faadce2060497c9e7ae","5f60e3c0a3b16e07647b2ff9","5f60eb8dda8043000a5b639e","false","null","<span style=""color: black; font-size: 48px"">N + M</span>","null","","","","resp_prompt","","","","","","","","","","","","","","","",""
"categorize-image","69","388154","0.0-3.0-3.0-1.7","8ok5d6p1q74zlsr","practice_cue","5f5f7faadce2060497c9e7ae","5f60e3c0a3b16e07647b2ff9","5f60eb8dda8043000a5b639e","true","983.7500000139698","./Stimuli/ImagesPractice/SN222.jpg","83","","","","test","true","N + M","83","","SN","SN222.jpg","remember","old","24","2","practice_forget","left","","","",""
"html-keyboard-response","70","390160","0.0-3.0-3.0-3.7","8ok5d6p1q74zlsr","practice_cue","5f5f7faadce2060497c9e7ae","5f60e3c0a3b16e07647b2ff9","5f60eb8dda8043000a5b639e","false","null","<div style=""align-items: center; display: flex; color: dodgerblue; font-size: 90px""><b>o</b></div>","null","","","","forget_cue","","","","","","","","","","","","","","","",""
"html-keyboard-response","71","390866","0.0-3.0-3.0-0.8","8ok5d6p1q74zlsr","practice_cue","5f5f7faadce2060497c9e7ae","5f60e3c0a3b16e07647b2ff9","5f60eb8dda8043000a5b639e","false","null","<span style=""color: black; font-size: 48px"">N + M</span>","null","","","","resp_prompt","","","","","","","","","","","","","","","",""
"categorize-image","72","391627","0.0-3.0-3.0-1.8","8ok5d6p1q74zlsr","practice_cue","5f5f7faadce2060497c9e7ae","5f60e3c0a3b16e07647b2ff9","5f60eb8dda8043000a5b639e","true","757.7349999919534","./Stimuli/ImagesPractice/LN15.jpg","83","","","","test","true","N + M","83","","LN","LN15.jpg","forget","old","25","2","practice_forget","left","","","",""
"html-keyboard-response","73","393633","0.0-3.0-3.0-3.8","8ok5d6p1q74zlsr","practice_cue","5f5f7faadce2060497c9e7ae","5f60e3c0a3b16e07647b2ff9","5f60eb8dda8043000a5b639e","false","null","<div style=""align-items: center; display: flex; color: darkorange; font-size: 90px""><b>ø</b></div>","null","","","","forget_cue","","","","","","","","","","","","","","","",""
"html-keyboard-response","74","394338","0.0-3.0-3.0-0.9","8ok5d6p1q74zlsr","practice_cue","5f5f7faadce2060497c9e7ae","5f60e3c0a3b16e07647b2ff9","5f60eb8dda8043000a5b639e","false","null","<span style=""color: black; font-size: 48px"">M + N</span>","null","","","","resp_prompt","","","","","","","","","","","","","","","",""
"categorize-image","75","395090","0.0-3.0-3.0-1.9","8ok5d6p1q74zlsr","practice_cue","5f5f7faadce2060497c9e7ae","5f60e3c0a3b16e07647b2ff9","5f60eb8dda8043000a5b639e","true","747.9049999965355","./Stimuli/ImagesPractice/SN205.jpg","76","","","","test","true","M + N","76","","SN","SN205.jpg","forget","old","26","2","practice_forget","right","","","",""
"html-keyboard-response","76","397091","0.0-3.0-3.0-3.9","8ok5d6p1q74zlsr","practice_cue","5f5f7faadce2060497c9e7ae","5f60e3c0a3b16e07647b2ff9","5f60eb8dda8043000a5b639e","false","null","<div style=""align-items: center; display: flex; color: darkorange; font-size: 90px""><b>ø</b></div>","null","","","","forget_cue","","","","","","","","","","","","","","","",""
"html-keyboard-response","77","397797","0.0-3.0-3.0-0.10","8ok5d6p1q74zlsr","practice_cue","5f5f7faadce2060497c9e7ae","5f60e3c0a3b16e07647b2ff9","5f60eb8dda8043000a5b639e","false","null","<span style=""color: black; font-size: 48px"">N + M</span>","null","","","","resp_prompt","","","","","","","","","","","","","","","",""
"categorize-image","78","398498","0.0-3.0-3.0-1.10","8ok5d6p1q74zlsr","practice_cue","5f5f7faadce2060497c9e7ae","5f60e3c0a3b16e07647b2ff9","5f60eb8dda8043000a5b639e","true","695.8949999534525","./Stimuli/ImagesPractice/SM97.jpg","76","","","","test","true","N + M","76","","SM","SM97.jpg","forget","old","27","2","practice_forget","right","","","",""
"html-keyboard-response","79","400501","0.0-3.0-3.0-3.10","8ok5d6p1q74zlsr","practice_cue","5f5f7faadce2060497c9e7ae","5f60e3c0a3b16e07647b2ff9","5f60eb8dda8043000a5b639e","false","null","<div style=""align-items: center; display: flex; color: darkorange; font-size: 90px""><b>ø</b></div>","null","","","","forget_cue","","","","","","","","","","","","","","","",""
"html-keyboard-response","80","401207","0.0-3.0-3.0-0.11","8ok5d6p1q74zlsr","practice_cue","5f5f7faadce2060497c9e7ae","5f60e3c0a3b16e07647b2ff9","5f60eb8dda8043000a5b639e","false","null","<span style=""color: black; font-size: 48px"">N + M</span>","null","","","","resp_prompt","","","","","","","","","","","","","","","",""
"categorize-image","81","402042","0.0-3.0-3.0-1.11","8ok5d6p1q74zlsr","practice_cue","5f5f7faadce2060497c9e7ae","5f60e3c0a3b16e07647b2ff9","5f60eb8dda8043000a5b639e","true","832.1149999974295","./Stimuli/ImagesPractice/LN17.jpg","83","","","","test","true","N + M","83","","LN","LN17.jpg","forget","old","28","2","practice_forget","left","","","",""
"html-keyboard-response","82","404047","0.0-3.0-3.0-3.11","8ok5d6p1q74zlsr","practice_cue","5f5f7faadce2060497c9e7ae","5f60e3c0a3b16e07647b2ff9","5f60eb8dda8043000a5b639e","false","null","<div style=""align-items: center; display: flex; color: darkorange; font-size: 90px""><b>ø</b></div>","null","","","","forget_cue","","","","","","","","","","","","","","","",""
"html-keyboard-response","83","404753","0.0-3.0-3.0-0.12","8ok5d6p1q74zlsr","practice_cue","5f5f7faadce2060497c9e7ae","5f60e3c0a3b16e07647b2ff9","5f60eb8dda8043000a5b639e","false","null","<span style=""color: black; font-size: 48px"">N + M</span>","null","","","","resp_prompt","","","","","","","","","","","","","","","",""
"categorize-image","84","405489","0.0-3.0-3.0-1.12","8ok5d6p1q74zlsr","practice_cue","5f5f7faadce2060497c9e7ae","5f60e3c0a3b16e07647b2ff9","5f60eb8dda8043000a5b639e","true","732.5249999994412","./Stimuli/ImagesPractice/SM62.jpg","76","","","","test","true","N + M","76","","SM","SM62.jpg","forget","old","29","2","practice_forget","right","","","",""
"html-keyboard-response","85","407491","0.0-3.0-3.0-3.12","8ok5d6p1q74zlsr","practice_cue","5f5f7faadce2060497c9e7ae","5f60e3c0a3b16e07647b2ff9","5f60eb8dda8043000a5b639e","false","null","<div style=""align-items: center; display: flex; color: darkorange; font-size: 90px""><b>ø</b></div>","null","","","","forget_cue","","","","","","","","","","","","","","","",""
"html-keyboard-response","86","408195","0.0-3.0-3.0-0.13","8ok5d6p1q74zlsr","practice_cue","5f5f7faadce2060497c9e7ae","5f60e3c0a3b16e07647b2ff9","5f60eb8dda8043000a5b639e","false","null","<span style=""color: black; font-size: 48px"">M + N</span>","null","","","","resp_prompt","","","","","","","","","","","","","","","",""
"categorize-image","87","409097","0.0-3.0-3.0-1.13","8ok5d6p1q74zlsr","practice_cue","5f5f7faadce2060497c9e7ae","5f60e3c0a3b16e07647b2ff9","5f60eb8dda8043000a5b639e","true","900.0000000232831","./Stimuli/ImagesPractice/LM224.jpg","83","","","","test","true","M + N","83","","LM","LM224.jpg","forget","old","30","2","practice_forget","left","","","",""
"html-keyboard-response","88","411102","0.0-3.0-3.0-3.13","8ok5d6p1q74zlsr","practice_cue","5f5f7faadce2060497c9e7ae","5f60e3c0a3b16e07647b2ff9","5f60eb8dda8043000a5b639e","false","null","<div style=""align-items: center; display: flex; color: darkorange; font-size: 90px""><b>ø</b></div>","null","","","","forget_cue","","","","","","","","","","","","","","","",""
"html-keyboard-response","89","411808","0.0-3.0-3.0-0.14","8ok5d6p1q74zlsr","practice_cue","5f5f7faadce2060497c9e7ae","5f60e3c0a3b16e07647b2ff9","5f60eb8dda8043000a5b639e","false","null","<span style=""color: black; font-size: 48px"">N + M</span>","null","","","","resp_prompt","","","","","","","","","","","","","","","",""
"categorize-image","90","412898","0.0-3.0-3.0-1.14","8ok5d6p1q74zlsr","practice_cue","5f5f7faadce2060497c9e7ae","5f60e3c0a3b16e07647b2ff9","5f60eb8dda8043000a5b639e","true","1087.230000004638","./Stimuli/ImagesPractice/LM143.jpg","76","","","","test","true","N + M","76","","LM","LM143.jpg","remember","old","31","2","practice_forget","right","","","",""
"html-keyboard-response","91","414903","0.0-3.0-3.0-3.14","8ok5d6p1q74zlsr","practice_cue","5f5f7faadce2060497c9e7ae","5f60e3c0a3b16e07647b2ff9","5f60eb8dda8043000a5b639e","false","null","<div style=""align-items: center; display: flex; color: dodgerblue; font-size: 90px""><b>o</b></div>","null","","","","forget_cue","","","","","","","","","","","","","","","",""
"html-keyboard-response","92","415607","0.0-3.0-3.0-0.15","8ok5d6p1q74zlsr","practice_cue","5f5f7faadce2060497c9e7ae","5f60e3c0a3b16e07647b2ff9","5f60eb8dda8043000a5b639e","false","null","<span style=""color: black; font-size: 48px"">M + N</span>","null","","","","resp_prompt","","","","","","","","","","","","","","","",""
"categorize-image","93","416329","0.0-3.0-3.0-1.15","8ok5d6p1q74zlsr","practice_cue","5f5f7faadce2060497c9e7ae","5f60e3c0a3b16e07647b2ff9","5f60eb8dda8043000a5b639e","true","718.8500000047497","./Stimuli/ImagesPractice/LM147.jpg","83","","","","test","true","M + N","83","","LM","LM147.jpg","remember","old","32","2","practice_forget","left","","","",""
"html-keyboard-response","94","418335","0.0-3.0-3.0-3.15","8ok5d6p1q74zlsr","practice_cue","5f5f7faadce2060497c9e7ae","5f60e3c0a3b16e07647b2ff9","5f60eb8dda8043000a5b639e","false","null","<div style=""align-items: center; display: flex; color: dodgerblue; font-size: 90px""><b>o</b></div>","null","","","","forget_cue","","","","","","","","","","","","","","","",""
"html-keyboard-response","95","421016","0.0-3.0-4.0","8ok5d6p1q74zlsr","break","5f5f7faadce2060497c9e7ae","5f60e3c0a3b16e07647b2ff9","5f60eb8dda8043000a5b639e","false","2680.065000022296","<p style='font-size: 32px;'>Break</><br><br><br><br><br><p style='font-size: 24px;'>In the last block, you committed 0 errors and did not respond in time on 0 trials.
</p><p style='font-size: 24px;'>Try to respond as fast and accurately as possible in the next block as well! </p><p style='font-size: 24px;'>Press SPACE to continue.</p>","32","","","","","","","","","","","","","","","","","","","",""
"html-keyboard-response","96","424961","0.0-3.0-5.0","8ok5d6p1q74zlsr","instructions","5f5f7faadce2060497c9e7ae","5f60e3c0a3b16e07647b2ff9","5f60eb8dda8043000a5b639e","false","3944.125000038184","<div align=left> Now, to practice, we kindly ask you to remember as many of the to-be-remembered pictures<br>of the previous learning phase as possible.<br><br>The pictures you were instructed to remember were the pictures followed by a <span style='color: dodgerblue; font-size: 28px'>O</span>.<br><br>In this memory test phase, you will also see some new pictures.<br>It is your task to remember whether you were presented with this specific picture in this study so far or not.<br>If you recognize an object (you have already seen it in this study), it is an OLD object. <br>If you do not recognize an object (you have NOT seen it in this study), it is a NEW object. <br><strong> Attention</strong>: As already mentioned, <span style='color: darkorange; font-size:28px'>Ø</span>-pictures will <strong>never</strong> appear in this memory test (neither as new objects). <br><br>Press SPACE to continue. </div>","32","","","","","","","","","","","","","","","","","","","",""
"html-keyboard-response","97","457095","0.0-3.0-6.0","8ok5d6p1q74zlsr","instructions","5f5f7faadce2060497c9e7ae","5f60e3c0a3b16e07647b2ff9","5f60eb8dda8043000a5b639e","false","32134.475000028033","<div align=left> M and N no longer will appear on the left/right of the fixation cross. <br>Instead there will be a note at the bottom of the left or right side  <br>indicating which key you should press for an old or new object:  <br> <br>Press the <strong>right</strong> key to classify an object as <strong>old</strong> and press the <strong>left</strong>, to classify an object as <strong>new</strong>.<br>Please classify the objects as new/old by again placing your index finger on the 'S' and 'L' keys <br>and press them accordingly.<br><br><strong>Old:</strong> This object has been presented before. <br><strong>New:</strong> This object has <strong>not</strong> been presented.<br><br>Now please put your right and left index fingers on the 'S' and 'L' keys of your keyboard. <br>Please respond as fast and as accurately as possible!<br><br>Press SPACE to continue. </div>","32","","","","","","","","","","","","","","","","","","","",""
"categorize-image","98","459775","0.0-3.0-7.0-0.0","8ok5d6p1q74zlsr","practice_recog","5f5f7faadce2060497c9e7ae","5f60e3c0a3b16e07647b2ff9","5f60eb8dda8043000a5b639e","true","2173.204999999143","./Stimuli/ImagesPractice/SM98.jpg","76","","","","test","true","","76","","SM","SM98.jpg","","old","33","3","practice_recog","right","","","",""
"categorize-image","99","462653","0.0-3.0-7.0-0.1","8ok5d6p1q74zlsr","practice_recog","5f5f7faadce2060497c9e7ae","5f60e3c0a3b16e07647b2ff9","5f60eb8dda8043000a5b639e","true","2371.2499999674037","./Stimuli/ImagesPractice/SN75.jpg","83","","","","test","true","","83","","SN","SN75.jpg","","new","34","3","practice_recog","left","","","",""
"categorize-image","100","464240","0.0-3.0-7.0-0.2","8ok5d6p1q74zlsr","practice_recog","5f5f7faadce2060497c9e7ae","5f60e3c0a3b16e07647b2ff9","5f60eb8dda8043000a5b639e","true","1079.5599999837577","./Stimuli/ImagesPractice/LN72.jpg","83","","","","test","true","","83","","LN","LN72.jpg","","new","35","3","practice_recog","left","","","",""
"categorize-image","101","466135","0.0-3.0-7.0-0.3","8ok5d6p1q74zlsr","practice_recog","5f5f7faadce2060497c9e7ae","5f60e3c0a3b16e07647b2ff9","5f60eb8dda8043000a5b639e","true","1388.3650000207126","./Stimuli/ImagesPractice/LM55.jpg","76","","","","test","true","","76","","LM","LM55.jpg","","old","36","3","practice_recog","right","","","",""
"categorize-image","102","467714","0.0-3.0-7.0-0.4","8ok5d6p1q74zlsr","practice_recog","5f5f7faadce2060497c9e7ae","5f60e3c0a3b16e07647b2ff9","5f60eb8dda8043000a5b639e","true","1072.2299999906681","./Stimuli/ImagesPractice/LN2.jpg","83","","","","test","true","","83","","LN","LN2.jpg","","new","37","3","practice_recog","left","","","",""
"categorize-image","103","469250","0.0-3.0-7.0-0.5","8ok5d6p1q74zlsr","practice_recog","5f5f7faadce2060497c9e7ae","5f60e3c0a3b16e07647b2ff9","5f60eb8dda8043000a5b639e","true","1033.159999991767","./Stimuli/ImagesPractice/SM37.jpg","76","","","","test","true","","76","","SM","SM37.jpg","","old","38","3","practice_recog","right","","","",""
"categorize-image","104","470599","0.0-3.0-7.0-0.6","8ok5d6p1q74zlsr","practice_recog","5f5f7faadce2060497c9e7ae","5f60e3c0a3b16e07647b2ff9","5f60eb8dda8043000a5b639e","true","842.8249999997206","./Stimuli/ImagesPractice/LN109.jpg","83","","","","test","true","","83","","LN","LN109.jpg","","new","39","3","practice_recog","left","","","",""
"categorize-image","105","472151","0.0-3.0-7.0-0.7","8ok5d6p1q74zlsr","practice_recog","5f5f7faadce2060497c9e7ae","5f60e3c0a3b16e07647b2ff9","5f60eb8dda8043000a5b639e","true","1045.1849999953993","./Stimuli/ImagesPractice/SM35.jpg","83","","","","test","true","","83","","SM","SM35.jpg","","new","40","3","practice_recog","left","","","",""
"categorize-image","106","473501","0.0-3.0-7.0-0.8","8ok5d6p1q74zlsr","practice_recog","5f5f7faadce2060497c9e7ae","5f60e3c0a3b16e07647b2ff9","5f60eb8dda8043000a5b639e","true","846.0550000309013","./Stimuli/ImagesPractice/SN76.jpg","76","","","","test","true","","76","","SN","SN76.jpg","","old","41","3","practice_recog","right","","","",""
"categorize-image","107","474942","0.0-3.0-7.0-0.9","8ok5d6p1q74zlsr","practice_recog","5f5f7faadce2060497c9e7ae","5f60e3c0a3b16e07647b2ff9","5f60eb8dda8043000a5b639e","true","934.5949999988079","./Stimuli/ImagesPractice/SM61.jpg","76","","","","test","true","","76","","SM","SM61.jpg","","old","42","3","practice_recog","right","","","",""
"categorize-image","108","476235","0.0-3.0-7.0-0.10","8ok5d6p1q74zlsr","practice_recog","5f5f7faadce2060497c9e7ae","5f60e3c0a3b16e07647b2ff9","5f60eb8dda8043000a5b639e","true","789.2250000149943","./Stimuli/ImagesPractice/LM239.jpg","83","","","","test","true","","83","","LM","LM239.jpg","","new","43","3","practice_recog","left","","","",""
"categorize-image","109","477441","0.0-3.0-7.0-0.11","8ok5d6p1q74zlsr","practice_recog","5f5f7faadce2060497c9e7ae","5f60e3c0a3b16e07647b2ff9","5f60eb8dda8043000a5b639e","true","704.5999999972992","./Stimuli/ImagesPractice/SN221.jpg","83","","","","test","true","","83","","SN","SN221.jpg","","new","44","3","practice_recog","left","","","",""
"categorize-image","110","478767","0.0-3.0-7.0-0.12","8ok5d6p1q74zlsr","practice_recog","5f5f7faadce2060497c9e7ae","5f60e3c0a3b16e07647b2ff9","5f60eb8dda8043000a5b639e","true","818.9949999796227","./Stimuli/ImagesPractice/SN222.jpg","76","","","","test","true","","76","","SN","SN222.jpg","","old","45","3","practice_recog","right","","","",""
"categorize-image","111","480006","0.0-3.0-7.0-0.13","8ok5d6p1q74zlsr","practice_recog","5f5f7faadce2060497c9e7ae","5f60e3c0a3b16e07647b2ff9","5f60eb8dda8043000a5b639e","true","732.3700000415556","./Stimuli/ImagesPractice/LM143.jpg","76","","","","test","true","","76","","LM","LM143.jpg","","old","46","3","practice_recog","right","","","",""
"categorize-image","112","481182","0.0-3.0-7.0-0.14","8ok5d6p1q74zlsr","practice_recog","5f5f7faadce2060497c9e7ae","5f60e3c0a3b16e07647b2ff9","5f60eb8dda8043000a5b639e","true","669.274999992922","./Stimuli/ImagesPractice/SN220.jpg","83","","","","test","true","","83","","SN","SN220.jpg","","new","47","3","practice_recog","left","","","",""
"categorize-image","113","482406","0.0-3.0-7.0-0.15","8ok5d6p1q74zlsr","practice_recog","5f5f7faadce2060497c9e7ae","5f60e3c0a3b16e07647b2ff9","5f60eb8dda8043000a5b639e","true","717.1499999822117","./Stimuli/ImagesPractice/LM147.jpg","76","","","","test","true","","76","","LM","LM147.jpg","","old","48","3","practice_recog","right","","","",""
"html-keyboard-response","114","483877","0.0-3.0-8.0","8ok5d6p1q74zlsr","instructions","5f5f7faadce2060497c9e7ae","5f60e3c0a3b16e07647b2ff9","5f60eb8dda8043000a5b639e","false","1469.9200000031851","<div align=left> Great!<br><br>Are you ready to continue?<br>If you want to reread the instructions and redo the practice trials, please <br>press „Z“.<br><br>You can proceed when you are ready.<br><br>After the presentation of each object, you will receive an instruction whether to <br>remember or to forget the object.<br>We will test your memory of the following pictures only at the very end of <br>the experiment after all learning blocks are completed. <br><br>Press SPACE to CONTINUE when you are ready. </div>","32","","","","","","","","","","","","","","","","","","","",""
"html-keyboard-response","115","487573","0.0-4.0-0.0","8ok5d6p1q74zlsr","instructions","5f5f7faadce2060497c9e7ae","5f60e3c0a3b16e07647b2ff9","5f60eb8dda8043000a5b639e","false","3695.0850000139326","<div align=left> The actual experiment is about to start.<br>The practice trials are over!<br><br>Please always respond both fast and accurately!<br><br>Remember: <br> <br><li> Please place your index fingers on the <strong>'S'</strong> and <strong>'L'</strong> keys <br>to respond as fast and accurately as possible.</li><li> Every picture can be classified as either mechanical or non-mechanical.</li><li> If you do not respond in time or commit an error, you will receive a corresponding feedback.<br> Please try to respond as <strong> fast </strong> and as <strong> accurately as possible </strong>.</li><li> Remember the <span style='color: dodgerblue; font-size: 28px'>O</span> pictures. <br></li><li> Please minimize distractions and stay focused. </li><br><br>Press SPACE to START.</div>","32","","","","","","","","","","","","","","","","","","","",""
"html-keyboard-response","116","488278","0.0-4.0-1.0-0.0","8ok5d6p1q74zlsr","prime","5f5f7faadce2060497c9e7ae","5f60e3c0a3b16e07647b2ff9","5f60eb8dda8043000a5b639e","false","null","<span style=""color: black; font-size: 48px"">M + N</span>","null","","","","resp_prompt","","","","","","","","","","","","","","","",""
"categorize-image","117","489647","0.0-4.0-1.0-1.0","8ok5d6p1q74zlsr","prime","5f5f7faadce2060497c9e7ae","5f60e3c0a3b16e07647b2ff9","5f60eb8dda8043000a5b639e","true","1365.6900000059977","./Stimuli/SelectedImages/SN/SN187.bmp","76","","","","test","true","M + N","76","switch","SN","SN187.bmp","remember","","49","3","prime1","right","","","",""
"html-keyboard-response","118","491650","0.0-4.0-1.0-3.0","8ok5d6p1q74zlsr","prime","5f5f7faadce2060497c9e7ae","5f60e3c0a3b16e07647b2ff9","5f60eb8dda8043000a5b639e","false","null","<div style=""align-items: center; display: flex; color: dodgerblue; font-size: 90px""><b>o</b></div>","null","","","","forget_cue","","","","","","","","","","","","","","","",""
"html-keyboard-response","119","492353","0.0-4.0-1.0-0.1","8ok5d6p1q74zlsr","prime","5f5f7faadce2060497c9e7ae","5f60e3c0a3b16e07647b2ff9","5f60eb8dda8043000a5b639e","false","null","<span style=""color: black; font-size: 48px"">M + N</span>","null","","","","resp_prompt","","","","","","","","","","","","","","","",""
"categorize-image","120","493454","0.0-4.0-1.0-1.1","8ok5d6p1q74zlsr","prime","5f5f7faadce2060497c9e7ae","5f60e3c0a3b16e07647b2ff9","5f60eb8dda8043000a5b639e","true","1098.1899999896996","./Stimuli/SelectedImages/SN/SN140.bmp","76","","","","test","true","M + N","76","repetition","SN","SN140.bmp","forget","","50","3","prime1","right","","","",""
"html-keyboard-response","121","495460","0.0-4.0-1.0-3.1","8ok5d6p1q74zlsr","prime","5f5f7faadce2060497c9e7ae","5f60e3c0a3b16e07647b2ff9","5f60eb8dda8043000a5b639e","false","null","<div style=""align-items: center; display: flex; color: darkorange; font-size: 90px""><b>ø</b></div>","null","","","","forget_cue","","","","","","","","","","","","","","","",""
"html-keyboard-response","122","496161","0.0-4.0-1.0-0.2","8ok5d6p1q74zlsr","prime","5f5f7faadce2060497c9e7ae","5f60e3c0a3b16e07647b2ff9","5f60eb8dda8043000a5b639e","false","null","<span style=""color: black; font-size: 48px"">M + N</span>","null","","","","resp_prompt","","","","","","","","","","","","","","","",""
"categorize-image","123","497135","0.0-4.0-1.0-1.2","8ok5d6p1q74zlsr","prime","5f5f7faadce2060497c9e7ae","5f60e3c0a3b16e07647b2ff9","5f60eb8dda8043000a5b639e","true","969.7000000160187","./Stimuli/SelectedImages/SM/SM148.bmp","83","","","","test","true","M + N","83","repetition","SM","SM148.bmp","forget","","51","3","prime1","left","","","",""
"html-keyboard-response","124","499140","0.0-4.0-1.0-3.2","8ok5d6p1q74zlsr","prime","5f5f7faadce2060497c9e7ae","5f60e3c0a3b16e07647b2ff9","5f60eb8dda8043000a5b639e","false","null","<div style=""align-items: center; display: flex; color: darkorange; font-size: 90px""><b>ø</b></div>","null","","","","forget_cue","","","","","","","","","","","","","","","",""
"html-keyboard-response","125","499846","0.0-4.0-1.0-0.3","8ok5d6p1q74zlsr","prime","5f5f7faadce2060497c9e7ae","5f60e3c0a3b16e07647b2ff9","5f60eb8dda8043000a5b639e","false","null","<span style=""color: black; font-size: 48px"">N + M</span>","null","","","","resp_prompt","","","","","","","","","","","","","","","",""
"categorize-image","126","500813","0.0-4.0-1.0-1.3","8ok5d6p1q74zlsr","prime","5f5f7faadce2060497c9e7ae","5f60e3c0a3b16e07647b2ff9","5f60eb8dda8043000a5b639e","true","963.675000006333","./Stimuli/SelectedImages/LM/LM209.bmp","76","","","","test","true","N + M","76","repetition","LM","LM209.bmp","forget","","52","3","prime1","right","","","",""
"html-keyboard-response","127","502814","0.0-4.0-1.0-3.3","8ok5d6p1q74zlsr","prime","5f5f7faadce2060497c9e7ae","5f60e3c0a3b16e07647b2ff9","5f60eb8dda8043000a5b639e","false","null","<div style=""align-items: center; display: flex; color: darkorange; font-size: 90px""><b>ø</b></div>","null","","","","forget_cue","","","","","","","","","","","","","","","",""
"html-keyboard-response","128","503517","0.0-4.0-1.0-0.4","8ok5d6p1q74zlsr","prime","5f5f7faadce2060497c9e7ae","5f60e3c0a3b16e07647b2ff9","5f60eb8dda8043000a5b639e","false","null","<span style=""color: black; font-size: 48px"">M + N</span>","null","","","","resp_prompt","","","","","","","","","","","","","","","",""
"categorize-image","129","504677","0.0-4.0-1.0-1.4","8ok5d6p1q74zlsr","prime","5f5f7faadce2060497c9e7ae","5f60e3c0a3b16e07647b2ff9","5f60eb8dda8043000a5b639e","true","1157.854999997653","./Stimuli/SelectedImages/SN/SN64.bmp","76","","","","test","true","M + N","76","repetition","SN","SN64.bmp","remember","","53","3","prime1","right","","","",""
"html-keyboard-response","130","506683","0.0-4.0-1.0-3.4","8ok5d6p1q74zlsr","prime","5f5f7faadce2060497c9e7ae","5f60e3c0a3b16e07647b2ff9","5f60eb8dda8043000a5b639e","false","null","<div style=""align-items: center; display: flex; color: dodgerblue; font-size: 90px""><b>o</b></div>","null","","","","forget_cue","","","","","","","","","","","","","","","",""
"html-keyboard-response","131","507389","0.0-4.0-1.0-0.5","8ok5d6p1q74zlsr","prime","5f5f7faadce2060497c9e7ae","5f60e3c0a3b16e07647b2ff9","5f60eb8dda8043000a5b639e","false","null","<span style=""color: black; font-size: 48px"">N + M</span>","null","","","","resp_prompt","","","","","","","","","","","","","","","",""
"categorize-image","132","508454","0.0-4.0-1.0-1.5","8ok5d6p1q74zlsr","prime","5f5f7faadce2060497c9e7ae","5f60e3c0a3b16e07647b2ff9","5f60eb8dda8043000a5b639e","true","1062.000000034459","./Stimuli/SelectedImages/SN/SN18.bmp","83","","","","test","true","N + M","83","repetition","SN","SN18.bmp","forget","","54","3","prime1","left","","","",""
"html-keyboard-response","133","510460","0.0-4.0-1.0-3.5","8ok5d6p1q74zlsr","prime","5f5f7faadce2060497c9e7ae","5f60e3c0a3b16e07647b2ff9","5f60eb8dda8043000a5b639e","false","null","<div style=""align-items: center; display: flex; color: darkorange; font-size: 90px""><b>ø</b></div>","null","","","","forget_cue","","","","","","","","","","","","","","","",""
"html-keyboard-response","134","511163","0.0-4.0-1.0-0.6","8ok5d6p1q74zlsr","prime","5f5f7faadce2060497c9e7ae","5f60e3c0a3b16e07647b2ff9","5f60eb8dda8043000a5b639e","false","null","<span style=""color: black; font-size: 48px"">N + M</span>","null","","","","resp_prompt","","","","","","","","","","","","","","","",""
"categorize-image","135","511838","0.0-4.0-1.0-1.6","8ok5d6p1q74zlsr","prime","5f5f7faadce2060497c9e7ae","5f60e3c0a3b16e07647b2ff9","5f60eb8dda8043000a5b639e","true","672.4099999992177","./Stimuli/SelectedImages/SN/SN49.bmp","83","","","","test","true","N + M","83","repetition","SN","SN49.bmp","forget","","55","3","prime1","left","","","",""
"html-keyboard-response","136","513844","0.0-4.0-1.0-3.6","8ok5d6p1q74zlsr","prime","5f5f7faadce2060497c9e7ae","5f60e3c0a3b16e07647b2ff9","5f60eb8dda8043000a5b639e","false","null","<div style=""align-items: center; display: flex; color: darkorange; font-size: 90px""><b>ø</b></div>","null","","","","forget_cue","","","","","","","","","","","","","","","",""
"html-keyboard-response","137","514550","0.0-4.0-1.0-0.7","8ok5d6p1q74zlsr","prime","5f5f7faadce2060497c9e7ae","5f60e3c0a3b16e07647b2ff9","5f60eb8dda8043000a5b639e","false","null","<span style=""color: black; font-size: 48px"">N + M</span>","null","","","","resp_prompt","","","","","","","","","","","","","","","",""
"categorize-image","138","515597","0.0-4.0-1.0-1.7","8ok5d6p1q74zlsr","prime","5f5f7faadce2060497c9e7ae","5f60e3c0a3b16e07647b2ff9","5f60eb8dda8043000a5b639e","true","1044.1350000328384","./Stimuli/SelectedImages/LM/LM48.bmp","76","","","","test","true","N + M","76","switch","LM","LM48.bmp","forget","","56","3","prime1","right","","","",""
"html-keyboard-response","139","517603","0.0-4.0-1.0-3.7","8ok5d6p1q74zlsr","prime","5f5f7faadce2060497c9e7ae","5f60e3c0a3b16e07647b2ff9","5f60eb8dda8043000a5b639e","false","null","<div style=""align-items: center; display: flex; color: darkorange; font-size: 90px""><b>ø</b></div>","null","","","","forget_cue","","","","","","","","","","","","","","","",""
"html-keyboard-response","140","518309","0.0-4.0-1.0-0.8","8ok5d6p1q74zlsr","prime","5f5f7faadce2060497c9e7ae","5f60e3c0a3b16e07647b2ff9","5f60eb8dda8043000a5b639e","false","null","<span style=""color: black; font-size: 48px"">N + M</span>","null","","","","resp_prompt","","","","","","","","","","","","","","","",""
"categorize-image","141","519166","0.0-4.0-1.0-1.8","8ok5d6p1q74zlsr","prime","5f5f7faadce2060497c9e7ae","5f60e3c0a3b16e07647b2ff9","5f60eb8dda8043000a5b639e","true","853.1250000232831","./Stimuli/SelectedImages/SM/SM17.bmp","76","","","","test","true","N + M","76","repetition","SM","SM17.bmp","remember","","57","3","prime1","right","","","",""
"html-keyboard-response","142","521172","0.0-4.0-1.0-3.8","8ok5d6p1q74zlsr","prime","5f5f7faadce2060497c9e7ae","5f60e3c0a3b16e07647b2ff9","5f60eb8dda8043000a5b639e","false","null","<div style=""align-items: center; display: flex; color: dodgerblue; font-size: 90px""><b>o</b></div>","null","","","","forget_cue","","","","","","","","","","","","","","","",""
"html-keyboard-response","143","521878","0.0-4.0-1.0-0.9","8ok5d6p1q74zlsr","prime","5f5f7faadce2060497c9e7ae","5f60e3c0a3b16e07647b2ff9","5f60eb8dda8043000a5b639e","false","null","<span style=""color: black; font-size: 48px"">M + N</span>","null","","","","resp_prompt","","","","","","","","","","","","","","","",""
"categorize-image","144","522798","0.0-4.0-1.0-1.9","8ok5d6p1q74zlsr","prime","5f5f7faadce2060497c9e7ae","5f60e3c0a3b16e07647b2ff9","5f60eb8dda8043000a5b639e","true","917.2050000051968","./Stimuli/SelectedImages/SM/SM195.bmp","83","","","","test","true","M + N","83","switch","SM","SM195.bmp","remember","","58","3","prime1","left","","","",""
"html-keyboard-response","145","524804","0.0-4.0-1.0-3.9","8ok5d6p1q74zlsr","prime","5f5f7faadce2060497c9e7ae","5f60e3c0a3b16e07647b2ff9","5f60eb8dda8043000a5b639e","false","null","<div style=""align-items: center; display: flex; color: dodgerblue; font-size: 90px""><b>o</b></div>","null","","","","forget_cue","","","","","","","","","","","","","","","",""
"html-keyboard-response","146","525505","0.0-4.0-1.0-0.10","8ok5d6p1q74zlsr","prime","5f5f7faadce2060497c9e7ae","5f60e3c0a3b16e07647b2ff9","5f60eb8dda8043000a5b639e","false","null","<span style=""color: black; font-size: 48px"">N + M</span>","null","","","","resp_prompt","","","","","","","","","","","","","","","",""
"categorize-image","147","526269","0.0-4.0-1.0-1.10","8ok5d6p1q74zlsr","prime","5f5f7faadce2060497c9e7ae","5f60e3c0a3b16e07647b2ff9","5f60eb8dda8043000a5b639e","true","760.7299999799579","./Stimuli/SelectedImages/LM/LM157.bmp","76","","","","test","true","N + M","76","switch","LM","LM157.bmp","forget","","59","3","prime1","right","","","",""
"html-keyboard-response","148","528271","0.0-4.0-1.0-3.10","8ok5d6p1q74zlsr","prime","5f5f7faadce2060497c9e7ae","5f60e3c0a3b16e07647b2ff9","5f60eb8dda8043000a5b639e","false","null","<div style=""align-items: center; display: flex; color: darkorange; font-size: 90px""><b>ø</b></div>","null","","","","forget_cue","","","","","","","","","","","","","","","",""
"html-keyboard-response","149","528974","0.0-4.0-1.0-0.11","8ok5d6p1q74zlsr","prime","5f5f7faadce2060497c9e7ae","5f60e3c0a3b16e07647b2ff9","5f60eb8dda8043000a5b639e","false","null","<span style=""color: black; font-size: 48px"">N + M</span>","null","","","","resp_prompt","","","","","","","","","","","","","","","",""
"categorize-image","150","529637","0.0-4.0-1.0-1.11","8ok5d6p1q74zlsr","prime","5f5f7faadce2060497c9e7ae","5f60e3c0a3b16e07647b2ff9","5f60eb8dda8043000a5b639e","true","659.8200000007637","./Stimuli/SelectedImages/SN/SN93.bmp","83","","","","test","true","N + M","83","switch","SN","SN93.bmp","forget","","60","3","prime1","left","","","",""
"html-keyboard-response","151","531643","0.0-4.0-1.0-3.11","8ok5d6p1q74zlsr","prime","5f5f7faadce2060497c9e7ae","5f60e3c0a3b16e07647b2ff9","5f60eb8dda8043000a5b639e","false","null","<div style=""align-items: center; display: flex; color: darkorange; font-size: 90px""><b>ø</b></div>","null","","","","forget_cue","","","","","","","","","","","","","","","",""
"html-keyboard-response","152","532349","0.0-4.0-1.0-0.12","8ok5d6p1q74zlsr","prime","5f5f7faadce2060497c9e7ae","5f60e3c0a3b16e07647b2ff9","5f60eb8dda8043000a5b639e","false","null","<span style=""color: black; font-size: 48px"">N + M</span>","null","","","","resp_prompt","","","","","","","","","","","","","","","",""
"categorize-image","153","533174","0.0-4.0-1.0-1.12","8ok5d6p1q74zlsr","prime","5f5f7faadce2060497c9e7ae","5f60e3c0a3b16e07647b2ff9","5f60eb8dda8043000a5b639e","true","820.5550000420772","./Stimuli/SelectedImages/LN/LN101.bmp","83","","","","test","true","N + M","83","switch","LN","LN101.bmp","remember","","61","3","prime1","left","","","",""
"html-keyboard-response","154","535180","0.0-4.0-1.0-3.12","8ok5d6p1q74zlsr","prime","5f5f7faadce2060497c9e7ae","5f60e3c0a3b16e07647b2ff9","5f60eb8dda8043000a5b639e","false","null","<div style=""align-items: center; display: flex; color: dodgerblue; font-size: 90px""><b>o</b></div>","null","","","","forget_cue","","","","","","","","","","","","","","","",""
"html-keyboard-response","155","535882","0.0-4.0-1.0-0.13","8ok5d6p1q74zlsr","prime","5f5f7faadce2060497c9e7ae","5f60e3c0a3b16e07647b2ff9","5f60eb8dda8043000a5b639e","false","null","<span style=""color: black; font-size: 48px"">M + N</span>","null","","","","resp_prompt","","","","","","","","","","","","","","","",""
"categorize-image","156","536676","0.0-4.0-1.0-1.13","8ok5d6p1q74zlsr","prime","5f5f7faadce2060497c9e7ae","5f60e3c0a3b16e07647b2ff9","5f60eb8dda8043000a5b639e","true","791.399999987334","./Stimuli/SelectedImages/LM/LM59.bmp","83","","","","test","true","M + N","83","repetition","LM","LM59.bmp","remember","","62","3","prime1","left","","","",""
"html-keyboard-response","157","538682","0.0-4.0-1.0-3.13","8ok5d6p1q74zlsr","prime","5f5f7faadce2060497c9e7ae","5f60e3c0a3b16e07647b2ff9","5f60eb8dda8043000a5b639e","false","null","<div style=""align-items: center; display: flex; color: dodgerblue; font-size: 90px""><b>o</b></div>","null","","","","forget_cue","","","","","","","","","","","","","","","",""
"html-keyboard-response","158","539388","0.0-4.0-1.0-0.14","8ok5d6p1q74zlsr","prime","5f5f7faadce2060497c9e7ae","5f60e3c0a3b16e07647b2ff9","5f60eb8dda8043000a5b639e","false","null","<span style=""color: black; font-size: 48px"">M + N</span>","null","","","","resp_prompt","","","","","","","","","","","","","","","",""
"categorize-image","159","540085","0.0-4.0-1.0-1.14","8ok5d6p1q74zlsr","prime","5f5f7faadce2060497c9e7ae","5f60e3c0a3b16e07647b2ff9","5f60eb8dda8043000a5b639e","true","693.6599999899045","./Stimuli/SelectedImages/SN/SN111.bmp","76","","","","test","true","M + N","76","switch","SN","SN111.bmp","forget","","63","3","prime1","right","","","",""
"html-keyboard-response","160","542087","0.0-4.0-1.0-3.14","8ok5d6p1q74zlsr","prime","5f5f7faadce2060497c9e7ae","5f60e3c0a3b16e07647b2ff9","5f60eb8dda8043000a5b639e","false","null","<div style=""align-items: center; display: flex; color: darkorange; font-size: 90px""><b>ø</b></div>","null","","","","forget_cue","","","","","","","","","","","","","","","",""
"html-keyboard-response","161","542793","0.0-4.0-1.0-0.15","8ok5d6p1q74zlsr","prime","5f5f7faadce2060497c9e7ae","5f60e3c0a3b16e07647b2ff9","5f60eb8dda8043000a5b639e","false","null","<span style=""color: black; font-size: 48px"">M + N</span>","null","","","","resp_prompt","","","","","","","","","","","","","","","",""
"categorize-image","162","543635","0.0-4.0-1.0-1.15","8ok5d6p1q74zlsr","prime","5f5f7faadce2060497c9e7ae","5f60e3c0a3b16e07647b2ff9","5f60eb8dda8043000a5b639e","true","839.7400000249036","./Stimuli/SelectedImages/LN/LN59.bmp","76","","","","test","true","M + N","76","switch","LN","LN59.bmp","forget","","64","3","prime1","right","","","",""
"html-keyboard-response","163","545641","0.0-4.0-1.0-3.15","8ok5d6p1q74zlsr","prime","5f5f7faadce2060497c9e7ae","5f60e3c0a3b16e07647b2ff9","5f60eb8dda8043000a5b639e","false","null","<div style=""align-items: center; display: flex; color: darkorange; font-size: 90px""><b>ø</b></div>","null","","","","forget_cue","","","","","","","","","","","","","","","",""
"html-keyboard-response","164","546347","0.0-4.0-1.0-0.16","8ok5d6p1q74zlsr","prime","5f5f7faadce2060497c9e7ae","5f60e3c0a3b16e07647b2ff9","5f60eb8dda8043000a5b639e","false","null","<span style=""color: black; font-size: 48px"">M + N</span>","null","","","","resp_prompt","","","","","","","","","","","","","","","",""
"categorize-image","165","547180","0.0-4.0-1.0-1.16","8ok5d6p1q74zlsr","prime","5f5f7faadce2060497c9e7ae","5f60e3c0a3b16e07647b2ff9","5f60eb8dda8043000a5b639e","true","830.1949999877252","./Stimuli/SelectedImages/LM/LM103.bmp","83","","","","test","true","M + N","83","switch","LM","LM103.bmp","forget","","65","3","prime1","left","","","",""
"html-keyboard-response","166","549186","0.0-4.0-1.0-3.16","8ok5d6p1q74zlsr","prime","5f5f7faadce2060497c9e7ae","5f60e3c0a3b16e07647b2ff9","5f60eb8dda8043000a5b639e","false","null","<div style=""align-items: center; display: flex; color: darkorange; font-size: 90px""><b>ø</b></div>","null","","","","forget_cue","","","","","","","","","","","","","","","",""
"html-keyboard-response","167","549888","0.0-4.0-1.0-0.17","8ok5d6p1q74zlsr","prime","5f5f7faadce2060497c9e7ae","5f60e3c0a3b16e07647b2ff9","5f60eb8dda8043000a5b639e","false","null","<span style=""color: black; font-size: 48px"">M + N</span>","null","","","","resp_prompt","","","","","","","","","","","","","","","",""
"categorize-image","168","550604","0.0-4.0-1.0-1.17","8ok5d6p1q74zlsr","prime","5f5f7faadce2060497c9e7ae","5f60e3c0a3b16e07647b2ff9","5f60eb8dda8043000a5b639e","true","713.2899999851361","./Stimuli/SelectedImages/LN/LN12.bmp","76","","","","test","true","M + N","76","switch","LN","LN12.bmp","remember","","66","3","prime1","right","","","",""
"html-keyboard-response","169","552610","0.0-4.0-1.0-3.17","8ok5d6p1q74zlsr","prime","5f5f7faadce2060497c9e7ae","5f60e3c0a3b16e07647b2ff9","5f60eb8dda8043000a5b639e","false","null","<div style=""align-items: center; display: flex; color: dodgerblue; font-size: 90px""><b>o</b></div>","null","","","","forget_cue","","","","","","","","","","","","","","","",""
"html-keyboard-response","170","553316","0.0-4.0-1.0-0.18","8ok5d6p1q74zlsr","prime","5f5f7faadce2060497c9e7ae","5f60e3c0a3b16e07647b2ff9","5f60eb8dda8043000a5b639e","false","null","<span style=""color: black; font-size: 48px"">M + N</span>","null","","","","resp_prompt","","","","","","","","","","","","","","","",""
"categorize-image","171","554037","0.0-4.0-1.0-1.18","8ok5d6p1q74zlsr","prime","5f5f7faadce2060497c9e7ae","5f60e3c0a3b16e07647b2ff9","5f60eb8dda8043000a5b639e","true","717.2799999825656","./Stimuli/SelectedImages/SM/SM200.bmp","83","","","","test","true","M + N","83","switch","SM","SM200.bmp","forget","","67","3","prime1","left","","","",""
"html-keyboard-response","172","556042","0.0-4.0-1.0-3.18","8ok5d6p1q74zlsr","prime","5f5f7faadce2060497c9e7ae","5f60e3c0a3b16e07647b2ff9","5f60eb8dda8043000a5b639e","false","null","<div style=""align-items: center; display: flex; color: darkorange; font-size: 90px""><b>ø</b></div>","null","","","","forget_cue","","","","","","","","","","","","","","","",""
"html-keyboard-response","173","556743","0.0-4.0-1.0-0.19","8ok5d6p1q74zlsr","prime","5f5f7faadce2060497c9e7ae","5f60e3c0a3b16e07647b2ff9","5f60eb8dda8043000a5b639e","false","null","<span style=""color: black; font-size: 48px"">N + M</span>","null","","","","resp_prompt","","","","","","","","","","","","","","","",""
"categorize-image","174","557676","0.0-4.0-1.0-1.19","8ok5d6p1q74zlsr","prime","5f5f7faadce2060497c9e7ae","5f60e3c0a3b16e07647b2ff9","5f60eb8dda8043000a5b639e","true","930.7750000152737","./Stimuli/SelectedImages/SN/SN179.bmp","83","","","","test","true","N + M","83","switch","SN","SN179.bmp","remember","","68","3","prime1","left","","","",""
"html-keyboard-response","175","559676","0.0-4.0-1.0-3.19","8ok5d6p1q74zlsr","prime","5f5f7faadce2060497c9e7ae","5f60e3c0a3b16e07647b2ff9","5f60eb8dda8043000a5b639e","false","null","<div style=""align-items: center; display: flex; color: dodgerblue; font-size: 90px""><b>o</b></div>","null","","","","forget_cue","","","","","","","","","","","","","","","",""
"html-keyboard-response","176","560382","0.0-4.0-1.0-0.20","8ok5d6p1q74zlsr","prime","5f5f7faadce2060497c9e7ae","5f60e3c0a3b16e07647b2ff9","5f60eb8dda8043000a5b639e","false","null","<span style=""color: black; font-size: 48px"">M + N</span>","null","","","","resp_prompt","","","","","","","","","","","","","","","",""
"categorize-image","177","561243","0.0-4.0-1.0-1.20","8ok5d6p1q74zlsr","prime","5f5f7faadce2060497c9e7ae","5f60e3c0a3b16e07647b2ff9","5f60eb8dda8043000a5b639e","true","857.9599999939092","./Stimuli/SelectedImages/LN/LN28.bmp","76","","","","test","true","M + N","76","switch","LN","LN28.bmp","remember","","69","3","prime1","right","","","",""
"html-keyboard-response","178","563246","0.0-4.0-1.0-3.20","8ok5d6p1q74zlsr","prime","5f5f7faadce2060497c9e7ae","5f60e3c0a3b16e07647b2ff9","5f60eb8dda8043000a5b639e","false","null","<div style=""align-items: center; display: flex; color: dodgerblue; font-size: 90px""><b>o</b></div>","null","","","","forget_cue","","","","","","","","","","","","","","","",""
"html-keyboard-response","179","563949","0.0-4.0-1.0-0.21","8ok5d6p1q74zlsr","prime","5f5f7faadce2060497c9e7ae","5f60e3c0a3b16e07647b2ff9","5f60eb8dda8043000a5b639e","false","null","<span style=""color: black; font-size: 48px"">N + M</span>","null","","","","resp_prompt","","","","","","","","","","","","","","","",""
"categorize-image","180","565133","0.0-4.0-1.0-1.21","8ok5d6p1q74zlsr","prime","5f5f7faadce2060497c9e7ae","5f60e3c0a3b16e07647b2ff9","5f60eb8dda8043000a5b639e","true","1181.2449999852106","./Stimuli/SelectedImages/SM/SM128.bmp","76","","","","test","true","N + M","76","repetition","SM","SM128.bmp","forget","","70","3","prime1","right","","","",""
"html-keyboard-response","181","567139","0.0-4.0-1.0-3.21","8ok5d6p1q74zlsr","prime","5f5f7faadce2060497c9e7ae","5f60e3c0a3b16e07647b2ff9","5f60eb8dda8043000a5b639e","false","null","<div style=""align-items: center; display: flex; color: darkorange; font-size: 90px""><b>ø</b></div>","null","","","","forget_cue","","","","","","","","","","","","","","","",""
"html-keyboard-response","182","567845","0.0-4.0-1.0-0.22","8ok5d6p1q74zlsr","prime","5f5f7faadce2060497c9e7ae","5f60e3c0a3b16e07647b2ff9","5f60eb8dda8043000a5b639e","false","null","<span style=""color: black; font-size: 48px"">M + N</span>","null","","","","resp_prompt","","","","","","","","","","","","","","","",""
"categorize-image","183","568612","0.0-4.0-1.0-1.22","8ok5d6p1q74zlsr","prime","5f5f7faadce2060497c9e7ae","5f60e3c0a3b16e07647b2ff9","5f60eb8dda8043000a5b639e","true","763.585000007879","./Stimuli/SelectedImages/SN/SN155.bmp","76","","","","test","true","M + N","76","repetition","SN","SN155.bmp","forget","","71","3","prime1","right","","","",""
"html-keyboard-response","184","570615","0.0-4.0-1.0-3.22","8ok5d6p1q74zlsr","prime","5f5f7faadce2060497c9e7ae","5f60e3c0a3b16e07647b2ff9","5f60eb8dda8043000a5b639e","false","null","<div style=""align-items: center; display: flex; color: darkorange; font-size: 90px""><b>ø</b></div>","null","","","","forget_cue","","","","","","","","","","","","","","","",""
"html-keyboard-response","185","571321","0.0-4.0-1.0-0.23","8ok5d6p1q74zlsr","prime","5f5f7faadce2060497c9e7ae","5f60e3c0a3b16e07647b2ff9","5f60eb8dda8043000a5b639e","false","null","<span style=""color: black; font-size: 48px"">N + M</span>","null","","","","resp_prompt","","","","","","","","","","","","","","","",""
"categorize-image","186","572068","0.0-4.0-1.0-1.23","8ok5d6p1q74zlsr","prime","5f5f7faadce2060497c9e7ae","5f60e3c0a3b16e07647b2ff9","5f60eb8dda8043000a5b639e","true","743.3249999885447","./Stimuli/SelectedImages/LN/LN166.bmp","83","","","","test","true","N + M","83","repetition","LN","LN166.bmp","remember","","72","3","prime1","left","","","",""
"html-keyboard-response","187","574069","0.0-4.0-1.0-3.23","8ok5d6p1q74zlsr","prime","5f5f7faadce2060497c9e7ae","5f60e3c0a3b16e07647b2ff9","5f60eb8dda8043000a5b639e","false","null","<div style=""align-items: center; display: flex; color: dodgerblue; font-size: 90px""><b>o</b></div>","null","","","","forget_cue","","","","","","","","","","","","","","","",""
"html-keyboard-response","188","574775","0.0-4.0-1.0-0.24","8ok5d6p1q74zlsr","prime","5f5f7faadce2060497c9e7ae","5f60e3c0a3b16e07647b2ff9","5f60eb8dda8043000a5b639e","false","null","<span style=""color: black; font-size: 48px"">M + N</span>","null","","","","resp_prompt","","","","","","","","","","","","","","","",""
"categorize-image","189","576109","0.0-4.0-1.0-1.24","8ok5d6p1q74zlsr","prime","5f5f7faadce2060497c9e7ae","5f60e3c0a3b16e07647b2ff9","5f60eb8dda8043000a5b639e","true","1330.6849999935366","./Stimuli/SelectedImages/SM/SM213.bmp","83","","","","test","true","M + N","83","repetition","SM","SM213.bmp","forget","","73","3","prime1","left","","","",""
"html-keyboard-response","190","578115","0.0-4.0-1.0-3.24","8ok5d6p1q74zlsr","prime","5f5f7faadce2060497c9e7ae","5f60e3c0a3b16e07647b2ff9","5f60eb8dda8043000a5b639e","false","null","<div style=""align-items: center; display: flex; color: darkorange; font-size: 90px""><b>ø</b></div>","null","","","","forget_cue","","","","","","","","","","","","","","","",""
"html-keyboard-response","191","578821","0.0-4.0-1.0-0.25","8ok5d6p1q74zlsr","prime","5f5f7faadce2060497c9e7ae","5f60e3c0a3b16e07647b2ff9","5f60eb8dda8043000a5b639e","false","null","<span style=""color: black; font-size: 48px"">M + N</span>","null","","","","resp_prompt","","","","","","","","","","","","","","","",""
"categorize-image","192","579491","0.0-4.0-1.0-1.25","8ok5d6p1q74zlsr","prime","5f5f7faadce2060497c9e7ae","5f60e3c0a3b16e07647b2ff9","5f60eb8dda8043000a5b639e","true","667.4950000015087","./Stimuli/SelectedImages/SM/SM207.bmp","83","","","","test","true","M + N","83","repetition","SM","SM207.bmp","remember","","74","3","prime1","left","","","",""
"html-keyboard-response","193","581495","0.0-4.0-1.0-3.25","8ok5d6p1q74zlsr","prime","5f5f7faadce2060497c9e7ae","5f60e3c0a3b16e07647b2ff9","5f60eb8dda8043000a5b639e","false","null","<div style=""align-items: center; display: flex; color: dodgerblue; font-size: 90px""><b>o</b></div>","null","","","","forget_cue","","","","","","","","","","","","","","","",""
"html-keyboard-response","194","582200","0.0-4.0-1.0-0.26","8ok5d6p1q74zlsr","prime","5f5f7faadce2060497c9e7ae","5f60e3c0a3b16e07647b2ff9","5f60eb8dda8043000a5b639e","false","null","<span style=""color: black; font-size: 48px"">N + M</span>","null","","","","resp_prompt","","","","","","","","","","","","","","","",""
"categorize-image","195","583555","0.0-4.0-1.0-1.26","8ok5d6p1q74zlsr","prime","5f5f7faadce2060497c9e7ae","5f60e3c0a3b16e07647b2ff9","5f60eb8dda8043000a5b639e","true","1352.130000013858","./Stimuli/SelectedImages/SM/SM106.bmp","76","","","","test","true","N + M","76","repetition","SM","SM106.bmp","forget","","75","3","prime1","right","","","",""
"html-keyboard-response","196","585557","0.0-4.0-1.0-3.26","8ok5d6p1q74zlsr","prime","5f5f7faadce2060497c9e7ae","5f60e3c0a3b16e07647b2ff9","5f60eb8dda8043000a5b639e","false","null","<div style=""align-items: center; display: flex; color: darkorange; font-size: 90px""><b>ø</b></div>","null","","","","forget_cue","","","","","","","","","","","","","","","",""
"html-keyboard-response","197","586260","0.0-4.0-1.0-0.27","8ok5d6p1q74zlsr","prime","5f5f7faadce2060497c9e7ae","5f60e3c0a3b16e07647b2ff9","5f60eb8dda8043000a5b639e","false","null","<span style=""color: black; font-size: 48px"">M + N</span>","null","","","","resp_prompt","","","","","","","","","","","","","","","",""
"categorize-image","198","586957","0.0-4.0-1.0-1.27","8ok5d6p1q74zlsr","prime","5f5f7faadce2060497c9e7ae","5f60e3c0a3b16e07647b2ff9","5f60eb8dda8043000a5b639e","true","693.3350000181235","./Stimuli/SelectedImages/SM/SM184.bmp","83","","","","test","true","M + N","83","repetition","SM","SM184.bmp","remember","","76","3","prime1","left","","","",""
"html-keyboard-response","199","588963","0.0-4.0-1.0-3.27","8ok5d6p1q74zlsr","prime","5f5f7faadce2060497c9e7ae","5f60e3c0a3b16e07647b2ff9","5f60eb8dda8043000a5b639e","false","null","<div style=""align-items: center; display: flex; color: dodgerblue; font-size: 90px""><b>o</b></div>","null","","","","forget_cue","","","","","","","","","","","","","","","",""
"html-keyboard-response","200","589669","0.0-4.0-1.0-0.28","8ok5d6p1q74zlsr","prime","5f5f7faadce2060497c9e7ae","5f60e3c0a3b16e07647b2ff9","5f60eb8dda8043000a5b639e","false","null","<span style=""color: black; font-size: 48px"">N + M</span>","null","","","","resp_prompt","","","","","","","","","","","","","","","",""
"categorize-image","201","590771","0.0-4.0-1.0-1.28","8ok5d6p1q74zlsr","prime","5f5f7faadce2060497c9e7ae","5f60e3c0a3b16e07647b2ff9","5f60eb8dda8043000a5b639e","true","1098.7800000002608","./Stimuli/SelectedImages/SM/SM78.bmp","76","","","","test","true","N + M","76","repetition","SM","SM78.bmp","remember","","77","3","prime1","right","","","",""
"html-keyboard-response","202","592774","0.0-4.0-1.0-3.28","8ok5d6p1q74zlsr","prime","5f5f7faadce2060497c9e7ae","5f60e3c0a3b16e07647b2ff9","5f60eb8dda8043000a5b639e","false","null","<div style=""align-items: center; display: flex; color: dodgerblue; font-size: 90px""><b>o</b></div>","null","","","","forget_cue","","","","","","","","","","","","","","","",""
"html-keyboard-response","203","593477","0.0-4.0-1.0-0.29","8ok5d6p1q74zlsr","prime","5f5f7faadce2060497c9e7ae","5f60e3c0a3b16e07647b2ff9","5f60eb8dda8043000a5b639e","false","null","<span style=""color: black; font-size: 48px"">N + M</span>","null","","","","resp_prompt","","","","","","","","","","","","","","","",""
"categorize-image","204","594314","0.0-4.0-1.0-1.29","8ok5d6p1q74zlsr","prime","5f5f7faadce2060497c9e7ae","5f60e3c0a3b16e07647b2ff9","5f60eb8dda8043000a5b639e","true","834.484999999404","./Stimuli/SelectedImages/SM/SM24.bmp","76","","","","test","true","N + M","76","switch","SM","SM24.bmp","forget","","78","3","prime1","right","","","",""
"html-keyboard-response","205","596320","0.0-4.0-1.0-3.29","8ok5d6p1q74zlsr","prime","5f5f7faadce2060497c9e7ae","5f60e3c0a3b16e07647b2ff9","5f60eb8dda8043000a5b639e","false","null","<div style=""align-items: center; display: flex; color: darkorange; font-size: 90px""><b>ø</b></div>","null","","","","forget_cue","","","","","","","","","","","","","","","",""
"html-keyboard-response","206","597022","0.0-4.0-1.0-0.30","8ok5d6p1q74zlsr","prime","5f5f7faadce2060497c9e7ae","5f60e3c0a3b16e07647b2ff9","5f60eb8dda8043000a5b639e","false","null","<span style=""color: black; font-size: 48px"">N + M</span>","null","","","","resp_prompt","","","","","","","","","","","","","","","",""
"categorize-image","207","597819","0.0-4.0-1.0-1.30","8ok5d6p1q74zlsr","prime","5f5f7faadce2060497c9e7ae","5f60e3c0a3b16e07647b2ff9","5f60eb8dda8043000a5b639e","true","794.530000013765","./Stimuli/SelectedImages/SM/SM205.bmp","76","","","","test","true","N + M","76","switch","SM","SM205.bmp","remember","","79","3","prime1","right","","","",""
"html-keyboard-response","208","599825","0.0-4.0-1.0-3.30","8ok5d6p1q74zlsr","prime","5f5f7faadce2060497c9e7ae","5f60e3c0a3b16e07647b2ff9","5f60eb8dda8043000a5b639e","false","null","<div style=""align-items: center; display: flex; color: dodgerblue; font-size: 90px""><b>o</b></div>","null","","","","forget_cue","","","","","","","","","","","","","","","",""
"html-keyboard-response","209","600528","0.0-4.0-1.0-0.31","8ok5d6p1q74zlsr","prime","5f5f7faadce2060497c9e7ae","5f60e3c0a3b16e07647b2ff9","5f60eb8dda8043000a5b639e","false","null","<span style=""color: black; font-size: 48px"">N + M</span>","null","","","","resp_prompt","","","","","","","","","","","","","","","",""
"categorize-image","210","601698","0.0-4.0-1.0-1.31","8ok5d6p1q74zlsr","prime","5f5f7faadce2060497c9e7ae","5f60e3c0a3b16e07647b2ff9","5f60eb8dda8043000a5b639e","true","1167.0250000315718","./Stimuli/SelectedImages/LM/LM129.bmp","76","","","","test","true","N + M","76","repetition","LM","LM129.bmp","forget","","80","3","prime1","right","","","",""
"html-keyboard-response","211","603700","0.0-4.0-1.0-3.31","8ok5d6p1q74zlsr","prime","5f5f7faadce2060497c9e7ae","5f60e3c0a3b16e07647b2ff9","5f60eb8dda8043000a5b639e","false","null","<div style=""align-items: center; display: flex; color: darkorange; font-size: 90px""><b>ø</b></div>","null","","","","forget_cue","","","","","","","","","","","","","","","",""
"html-keyboard-response","212","604406","0.0-4.0-1.0-0.32","8ok5d6p1q74zlsr","prime","5f5f7faadce2060497c9e7ae","5f60e3c0a3b16e07647b2ff9","5f60eb8dda8043000a5b639e","false","null","<span style=""color: black; font-size: 48px"">M + N</span>","null","","","","resp_prompt","","","","","","","","","","","","","","","",""
"categorize-image","213","605618","0.0-4.0-1.0-1.32","8ok5d6p1q74zlsr","prime","5f5f7faadce2060497c9e7ae","5f60e3c0a3b16e07647b2ff9","5f60eb8dda8043000a5b639e","true","1208.5349999833852","./Stimuli/SelectedImages/SN/SN52.bmp","76","","","","test","true","M + N","76","switch","SN","SN52.bmp","remember","","81","3","prime1","right","","","",""
"html-keyboard-response","214","607624","0.0-4.0-1.0-3.32","8ok5d6p1q74zlsr","prime","5f5f7faadce2060497c9e7ae","5f60e3c0a3b16e07647b2ff9","5f60eb8dda8043000a5b639e","false","null","<div style=""align-items: center; display: flex; color: dodgerblue; font-size: 90px""><b>o</b></div>","null","","","","forget_cue","","","","","","","","","","","","","","","",""
"html-keyboard-response","215","608328","0.0-4.0-1.0-0.33","8ok5d6p1q74zlsr","prime","5f5f7faadce2060497c9e7ae","5f60e3c0a3b16e07647b2ff9","5f60eb8dda8043000a5b639e","false","null","<span style=""color: black; font-size: 48px"">N + M</span>","null","","","","resp_prompt","","","","","","","","","","","","","","","",""
"categorize-image","216","609243","0.0-4.0-1.0-1.33","8ok5d6p1q74zlsr","prime","5f5f7faadce2060497c9e7ae","5f60e3c0a3b16e07647b2ff9","5f60eb8dda8043000a5b639e","true","911.9899999932386","./Stimuli/SelectedImages/LN/LN149.bmp","83","","","","test","true","N + M","83","switch","LN","LN149.bmp","forget","","82","3","prime1","left","","","",""
"html-keyboard-response","217","611244","0.0-4.0-1.0-3.33","8ok5d6p1q74zlsr","prime","5f5f7faadce2060497c9e7ae","5f60e3c0a3b16e07647b2ff9","5f60eb8dda8043000a5b639e","false","null","<div style=""align-items: center; display: flex; color: darkorange; font-size: 90px""><b>ø</b></div>","null","","","","forget_cue","","","","","","","","","","","","","","","",""
"html-keyboard-response","218","611950","0.0-4.0-1.0-0.34","8ok5d6p1q74zlsr","prime","5f5f7faadce2060497c9e7ae","5f60e3c0a3b16e07647b2ff9","5f60eb8dda8043000a5b639e","false","null","<span style=""color: black; font-size: 48px"">M + N</span>","null","","","","resp_prompt","","","","","","","","","","","","","","","",""
"categorize-image","219","612730","0.0-4.0-1.0-1.34","8ok5d6p1q74zlsr","prime","5f5f7faadce2060497c9e7ae","5f60e3c0a3b16e07647b2ff9","5f60eb8dda8043000a5b639e","true","777.0050000399351","./Stimuli/SelectedImages/LN/LN128.bmp","76","","","","test","true","M + N","76","switch","LN","LN128.bmp","forget","","83","3","prime1","right","","","",""
"html-keyboard-response","220","614735","0.0-4.0-1.0-3.34","8ok5d6p1q74zlsr","prime","5f5f7faadce2060497c9e7ae","5f60e3c0a3b16e07647b2ff9","5f60eb8dda8043000a5b639e","false","null","<div style=""align-items: center; display: flex; color: darkorange; font-size: 90px""><b>ø</b></div>","null","","","","forget_cue","","","","","","","","","","","","","","","",""
"html-keyboard-response","221","615441","0.0-4.0-1.0-0.35","8ok5d6p1q74zlsr","prime","5f5f7faadce2060497c9e7ae","5f60e3c0a3b16e07647b2ff9","5f60eb8dda8043000a5b639e","false","null","<span style=""color: black; font-size: 48px"">M + N</span>","null","","","","resp_prompt","","","","","","","","","","","","","","","",""
"categorize-image","222","616297","0.0-4.0-1.0-1.35","8ok5d6p1q74zlsr","prime","5f5f7faadce2060497c9e7ae","5f60e3c0a3b16e07647b2ff9","5f60eb8dda8043000a5b639e","true","853.1050000456162","./Stimuli/SelectedImages/SN/SN128.bmp","76","","","","test","true","M + N","76","repetition","SN","SN128.bmp","remember","","84","3","prime1","right","","","",""
"html-keyboard-response","223","618298","0.0-4.0-1.0-3.35","8ok5d6p1q74zlsr","prime","5f5f7faadce2060497c9e7ae","5f60e3c0a3b16e07647b2ff9","5f60eb8dda8043000a5b639e","false","null","<div style=""align-items: center; display: flex; color: dodgerblue; font-size: 90px""><b>o</b></div>","null","","","","forget_cue","","","","","","","","","","","","","","","",""
"html-keyboard-response","224","619004","0.0-4.0-1.0-0.36","8ok5d6p1q74zlsr","prime","5f5f7faadce2060497c9e7ae","5f60e3c0a3b16e07647b2ff9","5f60eb8dda8043000a5b639e","false","null","<span style=""color: black; font-size: 48px"">N + M</span>","null","","","","resp_prompt","","","","","","","","","","","","","","","",""
"categorize-image","225","619610","0.0-4.0-1.0-1.36","8ok5d6p1q74zlsr","prime","5f5f7faadce2060497c9e7ae","5f60e3c0a3b16e07647b2ff9","5f60eb8dda8043000a5b639e","true","603.4300000173971","./Stimuli/SelectedImages/LN/LN92.bmp","83","","","","test","true","N + M","83","repetition","LN","LN92.bmp","forget","","85","3","prime1","left","","","",""
"html-keyboard-response","226","621616","0.0-4.0-1.0-3.36","8ok5d6p1q74zlsr","prime","5f5f7faadce2060497c9e7ae","5f60e3c0a3b16e07647b2ff9","5f60eb8dda8043000a5b639e","false","null","<div style=""align-items: center; display: flex; color: darkorange; font-size: 90px""><b>ø</b></div>","null","","","","forget_cue","","","","","","","","","","","","","","","",""
"html-keyboard-response","227","622322","0.0-4.0-1.0-0.37","8ok5d6p1q74zlsr","prime","5f5f7faadce2060497c9e7ae","5f60e3c0a3b16e07647b2ff9","5f60eb8dda8043000a5b639e","false","null","<span style=""color: black; font-size: 48px"">M + N</span>","null","","","","resp_prompt","","","","","","","","","","","","","","","",""
"categorize-image","228","623457","0.0-4.0-1.0-1.37","8ok5d6p1q74zlsr","prime","5f5f7faadce2060497c9e7ae","5f60e3c0a3b16e07647b2ff9","5f60eb8dda8043000a5b639e","true","1132.1400000015274","./Stimuli/SelectedImages/LM/LM75.bmp","83","","","","test","true","M + N","83","switch","LM","LM75.bmp","forget","","86","3","prime1","left","","","",""
"html-keyboard-response","229","625458","0.0-4.0-1.0-3.37","8ok5d6p1q74zlsr","prime","5f5f7faadce2060497c9e7ae","5f60e3c0a3b16e07647b2ff9","5f60eb8dda8043000a5b639e","false","null","<div style=""align-items: center; display: flex; color: darkorange; font-size: 90px""><b>ø</b></div>","null","","","","forget_cue","","","","","","","","","","","","","","","",""
"html-keyboard-response","230","626164","0.0-4.0-1.0-0.38","8ok5d6p1q74zlsr","prime","5f5f7faadce2060497c9e7ae","5f60e3c0a3b16e07647b2ff9","5f60eb8dda8043000a5b639e","false","null","<span style=""color: black; font-size: 48px"">M + N</span>","null","","","","resp_prompt","","","","","","","","","","","","","","","",""
"categorize-image","231","627217","0.0-4.0-1.0-1.38","8ok5d6p1q74zlsr","prime","5f5f7faadce2060497c9e7ae","5f60e3c0a3b16e07647b2ff9","5f60eb8dda8043000a5b639e","true","1050.1400000066496","./Stimuli/SelectedImages/SM/SM74.bmp","83","","","","test","true","M + N","83","switch","SM","SM74.bmp","remember","","87","3","prime1","left","","","",""
"html-keyboard-response","232","629221","0.0-4.0-1.0-3.38","8ok5d6p1q74zlsr","prime","5f5f7faadce2060497c9e7ae","5f60e3c0a3b16e07647b2ff9","5f60eb8dda8043000a5b639e","false","null","<div style=""align-items: center; display: flex; color: dodgerblue; font-size: 90px""><b>o</b></div>","null","","","","forget_cue","","","","","","","","","","","","","","","",""
"html-keyboard-response","233","629927","0.0-4.0-1.0-0.39","8ok5d6p1q74zlsr","prime","5f5f7faadce2060497c9e7ae","5f60e3c0a3b16e07647b2ff9","5f60eb8dda8043000a5b639e","false","null","<span style=""color: black; font-size: 48px"">N + M</span>","null","","","","resp_prompt","","","","","","","","","","","","","","","",""
"categorize-image","234","630602","0.0-4.0-1.0-1.39","8ok5d6p1q74zlsr","prime","5f5f7faadce2060497c9e7ae","5f60e3c0a3b16e07647b2ff9","5f60eb8dda8043000a5b639e","true","671.9399999710731","./Stimuli/SelectedImages/LM/LM58.bmp","76","","","","test","true","N + M","76","switch","LM","LM58.bmp","remember","","88","3","prime1","right","","","",""
"html-keyboard-response","235","632606","0.0-4.0-1.0-3.39","8ok5d6p1q74zlsr","prime","5f5f7faadce2060497c9e7ae","5f60e3c0a3b16e07647b2ff9","5f60eb8dda8043000a5b639e","false","null","<div style=""align-items: center; display: flex; color: dodgerblue; font-size: 90px""><b>o</b></div>","null","","","","forget_cue","","","","","","","","","","","","","","","",""
"html-keyboard-response","236","633312","0.0-4.0-1.0-0.40","8ok5d6p1q74zlsr","prime","5f5f7faadce2060497c9e7ae","5f60e3c0a3b16e07647b2ff9","5f60eb8dda8043000a5b639e","false","null","<span style=""color: black; font-size: 48px"">M + N</span>","null","","","","resp_prompt","","","","","","","","","","","","","","","",""
"categorize-image","237","634114","0.0-4.0-1.0-1.40","8ok5d6p1q74zlsr","prime","5f5f7faadce2060497c9e7ae","5f60e3c0a3b16e07647b2ff9","5f60eb8dda8043000a5b639e","true","799.2250000243075","./Stimuli/SelectedImages/LN/LN42.bmp","76","","","","test","true","M + N","76","repetition","LN","LN42.bmp","forget","","89","3","prime1","right","","","",""
"html-keyboard-response","238","636119","0.0-4.0-1.0-3.40","8ok5d6p1q74zlsr","prime","5f5f7faadce2060497c9e7ae","5f60e3c0a3b16e07647b2ff9","5f60eb8dda8043000a5b639e","false","null","<div style=""align-items: center; display: flex; color: darkorange; font-size: 90px""><b>ø</b></div>","null","","","","forget_cue","","","","","","","","","","","","","","","",""
"html-keyboard-response","239","636826","0.0-4.0-1.0-0.41","8ok5d6p1q74zlsr","prime","5f5f7faadce2060497c9e7ae","5f60e3c0a3b16e07647b2ff9","5f60eb8dda8043000a5b639e","false","null","<span style=""color: black; font-size: 48px"">N + M</span>","null","","","","resp_prompt","","","","","","","","","","","","","","","",""
"categorize-image","240","637769","0.0-4.0-1.0-1.41","8ok5d6p1q74zlsr","prime","5f5f7faadce2060497c9e7ae","5f60e3c0a3b16e07647b2ff9","5f60eb8dda8043000a5b639e","true","940.3750000055879","./Stimuli/SelectedImages/SN/SN60.bmp","83","","","","test","true","N + M","83","switch","SN","SN60.bmp","remember","","90","3","prime1","left","","","",""
"html-keyboard-response","241","639773","0.0-4.0-1.0-3.41","8ok5d6p1q74zlsr","prime","5f5f7faadce2060497c9e7ae","5f60e3c0a3b16e07647b2ff9","5f60eb8dda8043000a5b639e","false","null","<div style=""align-items: center; display: flex; color: dodgerblue; font-size: 90px""><b>o</b></div>","null","","","","forget_cue","","","","","","","","","","","","","","","",""
"html-keyboard-response","242","640478","0.0-4.0-1.0-0.42","8ok5d6p1q74zlsr","prime","5f5f7faadce2060497c9e7ae","5f60e3c0a3b16e07647b2ff9","5f60eb8dda8043000a5b639e","false","null","<span style=""color: black; font-size: 48px"">M + N</span>","null","","","","resp_prompt","","","","","","","","","","","","","","","",""
"categorize-image","243","641473","0.0-4.0-1.0-1.42","8ok5d6p1q74zlsr","prime","5f5f7faadce2060497c9e7ae","5f60e3c0a3b16e07647b2ff9","5f60eb8dda8043000a5b639e","true","992.2200000146404","./Stimuli/SelectedImages/SN/SN240.bmp","76","","","","test","true","M + N","76","switch","SN","SN240.bmp","forget","","91","3","prime1","right","","","",""
"html-keyboard-response","244","643474","0.0-4.0-1.0-3.42","8ok5d6p1q74zlsr","prime","5f5f7faadce2060497c9e7ae","5f60e3c0a3b16e07647b2ff9","5f60eb8dda8043000a5b639e","false","null","<div style=""align-items: center; display: flex; color: darkorange; font-size: 90px""><b>ø</b></div>","null","","","","forget_cue","","","","","","","","","","","","","","","",""
"html-keyboard-response","245","644180","0.0-4.0-1.0-0.43","8ok5d6p1q74zlsr","prime","5f5f7faadce2060497c9e7ae","5f60e3c0a3b16e07647b2ff9","5f60eb8dda8043000a5b639e","false","null","<span style=""color: black; font-size: 48px"">N + M</span>","null","","","","resp_prompt","","","","","","","","","","","","","","","",""
"categorize-image","246","645313","0.0-4.0-1.0-1.43","8ok5d6p1q74zlsr","prime","5f5f7faadce2060497c9e7ae","5f60e3c0a3b16e07647b2ff9","5f60eb8dda8043000a5b639e","true","1129.819999972824","./Stimuli/SelectedImages/LN/LN150.bmp","83","","","","test","true","N + M","83","repetition","LN","LN150.bmp","remember","","92","3","prime1","left","","","",""
"html-keyboard-response","247","647319","0.0-4.0-1.0-3.43","8ok5d6p1q74zlsr","prime","5f5f7faadce2060497c9e7ae","5f60e3c0a3b16e07647b2ff9","5f60eb8dda8043000a5b639e","false","null","<div style=""align-items: center; display: flex; color: dodgerblue; font-size: 90px""><b>o</b></div>","null","","","","forget_cue","","","","","","","","","","","","","","","",""
"html-keyboard-response","248","648020","0.0-4.0-1.0-0.44","8ok5d6p1q74zlsr","prime","5f5f7faadce2060497c9e7ae","5f60e3c0a3b16e07647b2ff9","5f60eb8dda8043000a5b639e","false","null","<span style=""color: black; font-size: 48px"">M + N</span>","null","","","","resp_prompt","","","","","","","","","","","","","","","",""
"categorize-image","249","648769","0.0-4.0-1.0-1.44","8ok5d6p1q74zlsr","prime","5f5f7faadce2060497c9e7ae","5f60e3c0a3b16e07647b2ff9","5f60eb8dda8043000a5b639e","true","745.0949999620207","./Stimuli/SelectedImages/LN/LN82.bmp","76","","","","test","true","M + N","76","repetition","LN","LN82.bmp","remember","","93","3","prime1","right","","","",""
"html-keyboard-response","250","650772","0.0-4.0-1.0-3.44","8ok5d6p1q74zlsr","prime","5f5f7faadce2060497c9e7ae","5f60e3c0a3b16e07647b2ff9","5f60eb8dda8043000a5b639e","false","null","<div style=""align-items: center; display: flex; color: dodgerblue; font-size: 90px""><b>o</b></div>","null","","","","forget_cue","","","","","","","","","","","","","","","",""
"html-keyboard-response","251","651473","0.0-4.0-1.0-0.45","8ok5d6p1q74zlsr","prime","5f5f7faadce2060497c9e7ae","5f60e3c0a3b16e07647b2ff9","5f60eb8dda8043000a5b639e","false","null","<span style=""color: black; font-size: 48px"">M + N</span>","null","","","","resp_prompt","","","","","","","","","","","","","","","",""
"categorize-image","252","652170","0.0-4.0-1.0-1.45","8ok5d6p1q74zlsr","prime","5f5f7faadce2060497c9e7ae","5f60e3c0a3b16e07647b2ff9","5f60eb8dda8043000a5b639e","true","693.0350000038743","./Stimuli/SelectedImages/SM/SM76.bmp","83","","","","test","true","M + N","83","switch","SM","SM76.bmp","forget","","94","3","prime1","left","","","",""
