trial_type,trial_index,exp_part,subject,rt,stimulus,key_press,test_part,correct,resp_map,correct_resp,probe_condition,category,image,forget_condition,list,trial_num,response,block_num,block,prolific_PID,study_ID,session_ID
categorize-image,117,prime,50303yjswuo92fo,741.0,./Stimuli/SelectedImages/LN/LN177.bmp,83.0,,True,N + M,83.0,repetition,LN,LN177.bmp,remember,,49.0,left,3.0,prime1,5ebeeb2d47d7182bb7855b52,5f5a55364e9b770ed21874ff,5f60d752196795054b70f2f6
categorize-image,120,prime,50303yjswuo92fo,979.0,./Stimuli/SelectedImages/LM/LM157.bmp,76.0,,True,N + M,76.0,switch,LM,LM157.bmp,remember,,50.0,right,3.0,prime1,5ebeeb2d47d7182bb7855b52,5f5a55364e9b770ed21874ff,5f60d752196795054b70f2f6
categorize-image,123,prime,50303yjswuo92fo,839.0,./Stimuli/SelectedImages/SN/SN187.bmp,83.0,,True,N + M,83.0,switch,SN,SN187.bmp,remember,,51.0,left,3.0,prime1,5ebeeb2d47d7182bb7855b52,5f5a55364e9b770ed21874ff,5f60d752196795054b70f2f6
categorize-image,126,prime,50303yjswuo92fo,897.0,./Stimuli/SelectedImages/LM/LM103.bmp,76.0,,True,N + M,76.0,switch,LM,LM103.bmp,remember,,52.0,right,3.0,prime1,5ebeeb2d47d7182bb7855b52,5f5a55364e9b770ed21874ff,5f60d752196795054b70f2f6
categorize-image,129,prime,50303yjswuo92fo,731.0,./Stimuli/SelectedImages/LN/LN59.bmp,76.0,,True,M + N,76.0,switch,LN,LN59.bmp,forget,,53.0,right,3.0,prime1,5ebeeb2d47d7182bb7855b52,5f5a55364e9b770ed21874ff,5f60d752196795054b70f2f6
categorize-image,132,prime,50303yjswuo92fo,759.0,./Stimuli/SelectedImages/LN/LN111.bmp,83.0,,True,N + M,83.0,repetition,LN,LN111.bmp,forget,,54.0,left,3.0,prime1,5ebeeb2d47d7182bb7855b52,5f5a55364e9b770ed21874ff,5f60d752196795054b70f2f6
categorize-image,135,prime,50303yjswuo92fo,871.0,./Stimuli/SelectedImages/LN/LN166.bmp,76.0,,True,M + N,76.0,repetition,LN,LN166.bmp,remember,,55.0,right,3.0,prime1,5ebeeb2d47d7182bb7855b52,5f5a55364e9b770ed21874ff,5f60d752196795054b70f2f6
categorize-image,138,prime,50303yjswuo92fo,715.0,./Stimuli/SelectedImages/SM/SM207.bmp,76.0,,True,N + M,76.0,switch,SM,SM207.bmp,forget,,56.0,right,3.0,prime1,5ebeeb2d47d7182bb7855b52,5f5a55364e9b770ed21874ff,5f60d752196795054b70f2f6
categorize-image,141,prime,50303yjswuo92fo,706.0,./Stimuli/SelectedImages/LN/LN131.bmp,76.0,,True,M + N,76.0,switch,LN,LN131.bmp,forget,,57.0,right,3.0,prime1,5ebeeb2d47d7182bb7855b52,5f5a55364e9b770ed21874ff,5f60d752196795054b70f2f6
categorize-image,144,prime,50303yjswuo92fo,747.0,./Stimuli/SelectedImages/SN/SN155.bmp,76.0,,True,M + N,76.0,switch,SN,SN155.bmp,forget,,58.0,right,3.0,prime1,5ebeeb2d47d7182bb7855b52,5f5a55364e9b770ed21874ff,5f60d752196795054b70f2f6
categorize-image,147,prime,50303yjswuo92fo,634.0,./Stimuli/SelectedImages/LM/LM51.bmp,83.0,,True,M + N,83.0,switch,LM,LM51.bmp,remember,,59.0,left,3.0,prime1,5ebeeb2d47d7182bb7855b52,5f5a55364e9b770ed21874ff,5f60d752196795054b70f2f6
categorize-image,150,prime,50303yjswuo92fo,918.0,./Stimuli/SelectedImages/SM/SM73.bmp,83.0,,True,M + N,83.0,repetition,SM,SM73.bmp,forget,,60.0,left,3.0,prime1,5ebeeb2d47d7182bb7855b52,5f5a55364e9b770ed21874ff,5f60d752196795054b70f2f6
categorize-image,153,prime,50303yjswuo92fo,628.0,./Stimuli/SelectedImages/SM/SM108.bmp,83.0,,True,M + N,83.0,switch,SM,SM108.bmp,forget,,61.0,left,3.0,prime1,5ebeeb2d47d7182bb7855b52,5f5a55364e9b770ed21874ff,5f60d752196795054b70f2f6
categorize-image,156,prime,50303yjswuo92fo,896.0,./Stimuli/SelectedImages/SN/SN64.bmp,76.0,,True,M + N,76.0,repetition,SN,SN64.bmp,remember,,62.0,right,3.0,prime1,5ebeeb2d47d7182bb7855b52,5f5a55364e9b770ed21874ff,5f60d752196795054b70f2f6
categorize-image,159,prime,50303yjswuo92fo,793.0,./Stimuli/SelectedImages/SN/SN128.bmp,83.0,,True,N + M,83.0,repetition,SN,SN128.bmp,remember,,63.0,left,3.0,prime1,5ebeeb2d47d7182bb7855b52,5f5a55364e9b770ed21874ff,5f60d752196795054b70f2f6
categorize-image,162,prime,50303yjswuo92fo,780.0,./Stimuli/SelectedImages/SM/SM17.bmp,76.0,,True,N + M,76.0,repetition,SM,SM17.bmp,remember,,64.0,right,3.0,prime1,5ebeeb2d47d7182bb7855b52,5f5a55364e9b770ed21874ff,5f60d752196795054b70f2f6
categorize-image,165,prime,50303yjswuo92fo,642.0,./Stimuli/SelectedImages/SN/SN49.bmp,76.0,,True,M + N,76.0,switch,SN,SN49.bmp,remember,,65.0,right,3.0,prime1,5ebeeb2d47d7182bb7855b52,5f5a55364e9b770ed21874ff,5f60d752196795054b70f2f6
categorize-image,168,prime,50303yjswuo92fo,633.0,./Stimuli/SelectedImages/SM/SM128.bmp,76.0,,True,N + M,76.0,repetition,SM,SM128.bmp,forget,,66.0,right,3.0,prime1,5ebeeb2d47d7182bb7855b52,5f5a55364e9b770ed21874ff,5f60d752196795054b70f2f6
categorize-image,171,prime,50303yjswuo92fo,704.0,./Stimuli/SelectedImages/LM/LM179.bmp,83.0,,True,M + N,83.0,repetition,LM,LM179.bmp,forget,,67.0,left,3.0,prime1,5ebeeb2d47d7182bb7855b52,5f5a55364e9b770ed21874ff,5f60d752196795054b70f2f6
categorize-image,174,prime,50303yjswuo92fo,776.0,./Stimuli/SelectedImages/LM/LM59.bmp,83.0,,True,M + N,83.0,repetition,LM,LM59.bmp,forget,,68.0,left,3.0,prime1,5ebeeb2d47d7182bb7855b52,5f5a55364e9b770ed21874ff,5f60d752196795054b70f2f6
categorize-image,177,prime,50303yjswuo92fo,599.0,./Stimuli/SelectedImages/LM/LM100.bmp,76.0,,True,N + M,76.0,switch,LM,LM100.bmp,forget,,69.0,right,3.0,prime1,5ebeeb2d47d7182bb7855b52,5f5a55364e9b770ed21874ff,5f60d752196795054b70f2f6
categorize-image,180,prime,50303yjswuo92fo,1283.0,./Stimuli/SelectedImages/LN/LN150.bmp,83.0,,True,N + M,83.0,repetition,LN,LN150.bmp,remember,,70.0,left,3.0,prime1,5ebeeb2d47d7182bb7855b52,5f5a55364e9b770ed21874ff,5f60d752196795054b70f2f6
categorize-image,183,prime,50303yjswuo92fo,616.0,./Stimuli/SelectedImages/LM/LM58.bmp,76.0,,True,N + M,76.0,repetition,LM,LM58.bmp,remember,,71.0,right,3.0,prime1,5ebeeb2d47d7182bb7855b52,5f5a55364e9b770ed21874ff,5f60d752196795054b70f2f6
categorize-image,186,prime,50303yjswuo92fo,783.0,./Stimuli/SelectedImages/LN/LN12.bmp,76.0,,True,M + N,76.0,repetition,LN,LN12.bmp,forget,,72.0,right,3.0,prime1,5ebeeb2d47d7182bb7855b52,5f5a55364e9b770ed21874ff,5f60d752196795054b70f2f6
categorize-image,189,prime,50303yjswuo92fo,840.0,./Stimuli/SelectedImages/SM/SM195.bmp,83.0,,True,M + N,83.0,switch,SM,SM195.bmp,remember,,73.0,left,3.0,prime1,5ebeeb2d47d7182bb7855b52,5f5a55364e9b770ed21874ff,5f60d752196795054b70f2f6
categorize-image,192,prime,50303yjswuo92fo,653.0,./Stimuli/SelectedImages/SM/SM200.bmp,83.0,,True,M + N,83.0,switch,SM,SM200.bmp,forget,,74.0,left,3.0,prime1,5ebeeb2d47d7182bb7855b52,5f5a55364e9b770ed21874ff,5f60d752196795054b70f2f6
categorize-image,195,prime,50303yjswuo92fo,789.0,./Stimuli/SelectedImages/SN/SN18.bmp,76.0,,True,M + N,76.0,switch,SN,SN18.bmp,remember,,75.0,right,3.0,prime1,5ebeeb2d47d7182bb7855b52,5f5a55364e9b770ed21874ff,5f60d752196795054b70f2f6
categorize-image,198,prime,50303yjswuo92fo,686.0,./Stimuli/SelectedImages/SM/SM76.bmp,76.0,,True,N + M,76.0,switch,SM,SM76.bmp,remember,,76.0,right,3.0,prime1,5ebeeb2d47d7182bb7855b52,5f5a55364e9b770ed21874ff,5f60d752196795054b70f2f6
categorize-image,201,prime,50303yjswuo92fo,846.0,./Stimuli/SelectedImages/SN/SN60.bmp,76.0,,True,M + N,76.0,switch,SN,SN60.bmp,forget,,77.0,right,3.0,prime1,5ebeeb2d47d7182bb7855b52,5f5a55364e9b770ed21874ff,5f60d752196795054b70f2f6
categorize-image,204,prime,50303yjswuo92fo,529.0,./Stimuli/SelectedImages/SM/SM24.bmp,76.0,,True,N + M,76.0,repetition,SM,SM24.bmp,remember,,78.0,right,3.0,prime1,5ebeeb2d47d7182bb7855b52,5f5a55364e9b770ed21874ff,5f60d752196795054b70f2f6
categorize-image,207,prime,50303yjswuo92fo,1230.0,./Stimuli/SelectedImages/LN/LN82.bmp,83.0,,True,N + M,83.0,repetition,LN,LN82.bmp,forget,,79.0,left,3.0,prime1,5ebeeb2d47d7182bb7855b52,5f5a55364e9b770ed21874ff,5f60d752196795054b70f2f6
categorize-image,210,prime,50303yjswuo92fo,598.0,./Stimuli/SelectedImages/SM/SM106.bmp,83.0,,True,M + N,83.0,repetition,SM,SM106.bmp,remember,,80.0,left,3.0,prime1,5ebeeb2d47d7182bb7855b52,5f5a55364e9b770ed21874ff,5f60d752196795054b70f2f6
categorize-image,213,prime,50303yjswuo92fo,652.0,./Stimuli/SelectedImages/SN/SN93.bmp,83.0,,True,N + M,83.0,repetition,SN,SN93.bmp,remember,,81.0,left,3.0,prime1,5ebeeb2d47d7182bb7855b52,5f5a55364e9b770ed21874ff,5f60d752196795054b70f2f6
categorize-image,216,prime,50303yjswuo92fo,587.0,./Stimuli/SelectedImages/LN/LN128.bmp,76.0,,True,M + N,76.0,repetition,LN,LN128.bmp,forget,,82.0,right,3.0,prime1,5ebeeb2d47d7182bb7855b52,5f5a55364e9b770ed21874ff,5f60d752196795054b70f2f6
categorize-image,219,prime,50303yjswuo92fo,664.0,./Stimuli/SelectedImages/SN/SN181.bmp,76.0,,True,M + N,76.0,repetition,SN,SN181.bmp,forget,,83.0,right,3.0,prime1,5ebeeb2d47d7182bb7855b52,5f5a55364e9b770ed21874ff,5f60d752196795054b70f2f6
categorize-image,222,prime,50303yjswuo92fo,692.0,./Stimuli/SelectedImages/LM/LM216.bmp,83.0,,True,M + N,83.0,switch,LM,LM216.bmp,forget,,84.0,left,3.0,prime1,5ebeeb2d47d7182bb7855b52,5f5a55364e9b770ed21874ff,5f60d752196795054b70f2f6
categorize-image,225,prime,50303yjswuo92fo,576.0,./Stimuli/SelectedImages/LM/LM167.bmp,76.0,,True,N + M,76.0,repetition,LM,LM167.bmp,forget,,85.0,right,3.0,prime1,5ebeeb2d47d7182bb7855b52,5f5a55364e9b770ed21874ff,5f60d752196795054b70f2f6
categorize-image,228,prime,50303yjswuo92fo,916.0,./Stimuli/SelectedImages/LN/LN13.bmp,83.0,,True,N + M,83.0,switch,LN,LN13.bmp,forget,,86.0,left,3.0,prime1,5ebeeb2d47d7182bb7855b52,5f5a55364e9b770ed21874ff,5f60d752196795054b70f2f6
categorize-image,231,prime,50303yjswuo92fo,565.0,./Stimuli/SelectedImages/LM/LM235.bmp,83.0,,True,M + N,83.0,repetition,LM,LM235.bmp,remember,,87.0,left,3.0,prime1,5ebeeb2d47d7182bb7855b52,5f5a55364e9b770ed21874ff,5f60d752196795054b70f2f6
categorize-image,234,prime,50303yjswuo92fo,676.0,./Stimuli/SelectedImages/LN/LN9.bmp,83.0,,True,N + M,83.0,switch,LN,LN9.bmp,forget,,88.0,left,3.0,prime1,5ebeeb2d47d7182bb7855b52,5f5a55364e9b770ed21874ff,5f60d752196795054b70f2f6
categorize-image,237,prime,50303yjswuo92fo,745.0,./Stimuli/SelectedImages/SM/SM74.bmp,83.0,,True,M + N,83.0,switch,SM,SM74.bmp,remember,,89.0,left,3.0,prime1,5ebeeb2d47d7182bb7855b52,5f5a55364e9b770ed21874ff,5f60d752196795054b70f2f6
categorize-image,240,prime,50303yjswuo92fo,802.0,./Stimuli/SelectedImages/LN/LN149.bmp,83.0,,True,N + M,83.0,switch,LN,LN149.bmp,remember,,90.0,left,3.0,prime1,5ebeeb2d47d7182bb7855b52,5f5a55364e9b770ed21874ff,5f60d752196795054b70f2f6
categorize-image,243,prime,50303yjswuo92fo,771.0,./Stimuli/SelectedImages/SM/SM78.bmp,76.0,,True,N + M,76.0,repetition,SM,SM78.bmp,forget,,91.0,right,3.0,prime1,5ebeeb2d47d7182bb7855b52,5f5a55364e9b770ed21874ff,5f60d752196795054b70f2f6
categorize-image,246,prime,50303yjswuo92fo,794.0,./Stimuli/SelectedImages/SN/SN182.bmp,83.0,,True,N + M,83.0,switch,SN,SN182.bmp,forget,,92.0,left,3.0,prime1,5ebeeb2d47d7182bb7855b52,5f5a55364e9b770ed21874ff,5f60d752196795054b70f2f6
categorize-image,249,prime,50303yjswuo92fo,977.0,./Stimuli/SelectedImages/SN/SN179.bmp,83.0,,True,N + M,83.0,switch,SN,SN179.bmp,remember,,93.0,left,3.0,prime1,5ebeeb2d47d7182bb7855b52,5f5a55364e9b770ed21874ff,5f60d752196795054b70f2f6
categorize-image,252,prime,50303yjswuo92fo,759.0,./Stimuli/SelectedImages/SN/SN52.bmp,76.0,,True,M + N,76.0,repetition,SN,SN52.bmp,remember,,94.0,right,3.0,prime1,5ebeeb2d47d7182bb7855b52,5f5a55364e9b770ed21874ff,5f60d752196795054b70f2f6
categorize-image,255,prime,50303yjswuo92fo,713.0,./Stimuli/SelectedImages/LN/LN101.bmp,76.0,,True,M + N,76.0,switch,LN,LN101.bmp,remember,,95.0,right,3.0,prime1,5ebeeb2d47d7182bb7855b52,5f5a55364e9b770ed21874ff,5f60d752196795054b70f2f6
categorize-image,258,prime,50303yjswuo92fo,586.0,./Stimuli/SelectedImages/LM/LM75.bmp,76.0,,True,N + M,76.0,switch,LM,LM75.bmp,forget,,96.0,right,3.0,prime1,5ebeeb2d47d7182bb7855b52,5f5a55364e9b770ed21874ff,5f60d752196795054b70f2f6
categorize-image,261,prime,50303yjswuo92fo,641.0,./Stimuli/SelectedImages/LN/LN28.bmp,76.0,,True,M + N,76.0,repetition,LN,LN28.bmp,remember,,97.0,right,3.0,prime1,5ebeeb2d47d7182bb7855b52,5f5a55364e9b770ed21874ff,5f60d752196795054b70f2f6
categorize-image,264,prime,50303yjswuo92fo,665.0,./Stimuli/SelectedImages/SN/SN140.bmp,83.0,,True,N + M,83.0,repetition,SN,SN140.bmp,forget,,98.0,left,3.0,prime1,5ebeeb2d47d7182bb7855b52,5f5a55364e9b770ed21874ff,5f60d752196795054b70f2f6
categorize-image,267,prime,50303yjswuo92fo,672.0,./Stimuli/SelectedImages/SM/SM148.bmp,83.0,,True,M + N,83.0,repetition,SM,SM148.bmp,remember,,99.0,left,3.0,prime1,5ebeeb2d47d7182bb7855b52,5f5a55364e9b770ed21874ff,5f60d752196795054b70f2f6
categorize-image,270,prime,50303yjswuo92fo,992.0,./Stimuli/SelectedImages/SN/SN111.bmp,83.0,,True,N + M,83.0,switch,SN,SN111.bmp,forget,,100.0,left,3.0,prime1,5ebeeb2d47d7182bb7855b52,5f5a55364e9b770ed21874ff,5f60d752196795054b70f2f6
categorize-image,273,prime,50303yjswuo92fo,663.0,./Stimuli/SelectedImages/SM/SM205.bmp,76.0,,True,N + M,76.0,switch,SM,SM205.bmp,forget,,101.0,right,3.0,prime1,5ebeeb2d47d7182bb7855b52,5f5a55364e9b770ed21874ff,5f60d752196795054b70f2f6
categorize-image,276,prime,50303yjswuo92fo,606.0,./Stimuli/SelectedImages/LM/LM129.bmp,76.0,,True,N + M,76.0,repetition,LM,LM129.bmp,remember,,102.0,right,3.0,prime1,5ebeeb2d47d7182bb7855b52,5f5a55364e9b770ed21874ff,5f60d752196795054b70f2f6
categorize-image,279,prime,50303yjswuo92fo,679.0,./Stimuli/SelectedImages/LN/LN92.bmp,83.0,,True,N + M,83.0,switch,LN,LN92.bmp,remember,,103.0,left,3.0,prime1,5ebeeb2d47d7182bb7855b52,5f5a55364e9b770ed21874ff,5f60d752196795054b70f2f6
categorize-image,282,prime,50303yjswuo92fo,664.0,./Stimuli/SelectedImages/SN/SN27.bmp,83.0,,True,N + M,83.0,repetition,SN,SN27.bmp,forget,,104.0,left,3.0,prime1,5ebeeb2d47d7182bb7855b52,5f5a55364e9b770ed21874ff,5f60d752196795054b70f2f6
categorize-image,285,prime,50303yjswuo92fo,965.0,./Stimuli/SelectedImages/LM/LM209.bmp,83.0,,True,M + N,83.0,switch,LM,LM209.bmp,remember,,105.0,left,3.0,prime1,5ebeeb2d47d7182bb7855b52,5f5a55364e9b770ed21874ff,5f60d752196795054b70f2f6
categorize-image,288,prime,50303yjswuo92fo,591.0,./Stimuli/SelectedImages/SM/SM213.bmp,83.0,,True,M + N,83.0,repetition,SM,SM213.bmp,forget,,106.0,left,3.0,prime1,5ebeeb2d47d7182bb7855b52,5f5a55364e9b770ed21874ff,5f60d752196795054b70f2f6
categorize-image,291,prime,50303yjswuo92fo,667.0,./Stimuli/SelectedImages/SM/SM184.bmp,76.0,,True,N + M,76.0,switch,SM,SM184.bmp,remember,,107.0,right,3.0,prime1,5ebeeb2d47d7182bb7855b52,5f5a55364e9b770ed21874ff,5f60d752196795054b70f2f6
categorize-image,294,prime,50303yjswuo92fo,706.0,./Stimuli/SelectedImages/SN/SN240.bmp,76.0,,True,M + N,76.0,repetition,SN,SN240.bmp,forget,,108.0,right,3.0,prime1,5ebeeb2d47d7182bb7855b52,5f5a55364e9b770ed21874ff,5f60d752196795054b70f2f6
categorize-image,297,prime,50303yjswuo92fo,537.0,./Stimuli/SelectedImages/LM/LM150.bmp,83.0,,True,M + N,83.0,switch,LM,LM150.bmp,forget,,109.0,left,3.0,prime1,5ebeeb2d47d7182bb7855b52,5f5a55364e9b770ed21874ff,5f60d752196795054b70f2f6
categorize-image,300,prime,50303yjswuo92fo,762.0,./Stimuli/SelectedImages/LM/LM57.bmp,76.0,,True,N + M,76.0,repetition,LM,LM57.bmp,forget,,110.0,right,3.0,prime1,5ebeeb2d47d7182bb7855b52,5f5a55364e9b770ed21874ff,5f60d752196795054b70f2f6
categorize-image,303,prime,50303yjswuo92fo,713.0,./Stimuli/SelectedImages/LN/LN42.bmp,76.0,,True,M + N,76.0,switch,LN,LN42.bmp,remember,,111.0,right,3.0,prime1,5ebeeb2d47d7182bb7855b52,5f5a55364e9b770ed21874ff,5f60d752196795054b70f2f6
categorize-image,306,prime,50303yjswuo92fo,767.0,./Stimuli/SelectedImages/LM/LM48.bmp,83.0,,True,M + N,83.0,repetition,LM,LM48.bmp,remember,,112.0,left,3.0,prime1,5ebeeb2d47d7182bb7855b52,5f5a55364e9b770ed21874ff,5f60d752196795054b70f2f6
categorize-image,310,prime,50303yjswuo92fo,544.0,./Stimuli/SelectedImages/LM/LM157.bmp,76.0,,True,N + M,76.0,switch,LM,LM157.bmp,remember,,113.0,right,4.0,prime2,5ebeeb2d47d7182bb7855b52,5f5a55364e9b770ed21874ff,5f60d752196795054b70f2f6
categorize-image,313,prime,50303yjswuo92fo,635.0,./Stimuli/SelectedImages/SN/SN240.bmp,76.0,,True,M + N,76.0,repetition,SN,SN240.bmp,forget,,114.0,right,4.0,prime2,5ebeeb2d47d7182bb7855b52,5f5a55364e9b770ed21874ff,5f60d752196795054b70f2f6
categorize-image,316,prime,50303yjswuo92fo,695.0,./Stimuli/SelectedImages/LN/LN111.bmp,83.0,,True,N + M,83.0,repetition,LN,LN111.bmp,forget,,115.0,left,4.0,prime2,5ebeeb2d47d7182bb7855b52,5f5a55364e9b770ed21874ff,5f60d752196795054b70f2f6
categorize-image,319,prime,50303yjswuo92fo,612.0,./Stimuli/SelectedImages/SM/SM76.bmp,76.0,,True,N + M,76.0,switch,SM,SM76.bmp,remember,,116.0,right,4.0,prime2,5ebeeb2d47d7182bb7855b52,5f5a55364e9b770ed21874ff,5f60d752196795054b70f2f6
categorize-image,322,prime,50303yjswuo92fo,751.0,./Stimuli/SelectedImages/SN/SN155.bmp,76.0,,True,M + N,76.0,switch,SN,SN155.bmp,forget,,117.0,right,4.0,prime2,5ebeeb2d47d7182bb7855b52,5f5a55364e9b770ed21874ff,5f60d752196795054b70f2f6
categorize-image,325,prime,50303yjswuo92fo,591.0,./Stimuli/SelectedImages/SM/SM195.bmp,83.0,,True,M + N,83.0,switch,SM,SM195.bmp,remember,,118.0,left,4.0,prime2,5ebeeb2d47d7182bb7855b52,5f5a55364e9b770ed21874ff,5f60d752196795054b70f2f6
categorize-image,328,prime,50303yjswuo92fo,732.0,./Stimuli/SelectedImages/SN/SN49.bmp,76.0,,True,M + N,76.0,switch,SN,SN49.bmp,remember,,119.0,right,4.0,prime2,5ebeeb2d47d7182bb7855b52,5f5a55364e9b770ed21874ff,5f60d752196795054b70f2f6
categorize-image,331,prime,50303yjswuo92fo,519.0,./Stimuli/SelectedImages/LM/LM235.bmp,83.0,,True,M + N,83.0,repetition,LM,LM235.bmp,remember,,120.0,left,4.0,prime2,5ebeeb2d47d7182bb7855b52,5f5a55364e9b770ed21874ff,5f60d752196795054b70f2f6
categorize-image,334,prime,50303yjswuo92fo,680.0,./Stimuli/SelectedImages/LN/LN131.bmp,76.0,,True,M + N,76.0,switch,LN,LN131.bmp,forget,,121.0,right,4.0,prime2,5ebeeb2d47d7182bb7855b52,5f5a55364e9b770ed21874ff,5f60d752196795054b70f2f6
categorize-image,337,prime,50303yjswuo92fo,511.0,./Stimuli/SelectedImages/SM/SM184.bmp,76.0,,True,N + M,76.0,switch,SM,SM184.bmp,remember,,122.0,right,4.0,prime2,5ebeeb2d47d7182bb7855b52,5f5a55364e9b770ed21874ff,5f60d752196795054b70f2f6
categorize-image,340,prime,50303yjswuo92fo,577.0,./Stimuli/SelectedImages/LN/LN9.bmp,83.0,,True,N + M,83.0,switch,LN,LN9.bmp,forget,,123.0,left,4.0,prime2,5ebeeb2d47d7182bb7855b52,5f5a55364e9b770ed21874ff,5f60d752196795054b70f2f6
categorize-image,343,prime,50303yjswuo92fo,627.0,./Stimuli/SelectedImages/LM/LM75.bmp,76.0,,True,N + M,76.0,switch,LM,LM75.bmp,forget,,124.0,right,4.0,prime2,5ebeeb2d47d7182bb7855b52,5f5a55364e9b770ed21874ff,5f60d752196795054b70f2f6
categorize-image,346,prime,50303yjswuo92fo,733.0,./Stimuli/SelectedImages/SN/SN18.bmp,76.0,,True,M + N,76.0,switch,SN,SN18.bmp,remember,,125.0,right,4.0,prime2,5ebeeb2d47d7182bb7855b52,5f5a55364e9b770ed21874ff,5f60d752196795054b70f2f6
categorize-image,349,prime,50303yjswuo92fo,654.0,./Stimuli/SelectedImages/LM/LM48.bmp,83.0,,True,M + N,83.0,repetition,LM,LM48.bmp,remember,,126.0,left,4.0,prime2,5ebeeb2d47d7182bb7855b52,5f5a55364e9b770ed21874ff,5f60d752196795054b70f2f6
categorize-image,352,prime,50303yjswuo92fo,995.0,./Stimuli/SelectedImages/SM/SM108.bmp,83.0,,True,M + N,83.0,switch,SM,SM108.bmp,forget,,127.0,left,4.0,prime2,5ebeeb2d47d7182bb7855b52,5f5a55364e9b770ed21874ff,5f60d752196795054b70f2f6
categorize-image,355,prime,50303yjswuo92fo,785.0,./Stimuli/SelectedImages/LN/LN13.bmp,83.0,,True,N + M,83.0,switch,LN,LN13.bmp,forget,,128.0,left,4.0,prime2,5ebeeb2d47d7182bb7855b52,5f5a55364e9b770ed21874ff,5f60d752196795054b70f2f6
categorize-image,358,prime,50303yjswuo92fo,689.0,./Stimuli/SelectedImages/LM/LM103.bmp,76.0,,True,N + M,76.0,switch,LM,LM103.bmp,remember,,129.0,right,4.0,prime2,5ebeeb2d47d7182bb7855b52,5f5a55364e9b770ed21874ff,5f60d752196795054b70f2f6
categorize-image,361,prime,50303yjswuo92fo,694.0,./Stimuli/SelectedImages/LN/LN12.bmp,76.0,,True,M + N,76.0,repetition,LN,LN12.bmp,forget,,130.0,right,4.0,prime2,5ebeeb2d47d7182bb7855b52,5f5a55364e9b770ed21874ff,5f60d752196795054b70f2f6
categorize-image,364,prime,50303yjswuo92fo,884.0,./Stimuli/SelectedImages/SN/SN27.bmp,83.0,,True,N + M,83.0,repetition,SN,SN27.bmp,forget,,131.0,left,4.0,prime2,5ebeeb2d47d7182bb7855b52,5f5a55364e9b770ed21874ff,5f60d752196795054b70f2f6
categorize-image,367,prime,50303yjswuo92fo,583.0,./Stimuli/SelectedImages/SN/SN187.bmp,83.0,,True,N + M,83.0,switch,SN,SN187.bmp,remember,,132.0,left,4.0,prime2,5ebeeb2d47d7182bb7855b52,5f5a55364e9b770ed21874ff,5f60d752196795054b70f2f6
categorize-image,370,prime,50303yjswuo92fo,570.0,./Stimuli/SelectedImages/LM/LM150.bmp,83.0,,True,M + N,83.0,switch,LM,LM150.bmp,forget,,133.0,left,4.0,prime2,5ebeeb2d47d7182bb7855b52,5f5a55364e9b770ed21874ff,5f60d752196795054b70f2f6
categorize-image,373,prime,50303yjswuo92fo,630.0,./Stimuli/SelectedImages/SM/SM17.bmp,76.0,,True,N + M,76.0,repetition,SM,SM17.bmp,remember,,134.0,right,4.0,prime2,5ebeeb2d47d7182bb7855b52,5f5a55364e9b770ed21874ff,5f60d752196795054b70f2f6
categorize-image,376,prime,50303yjswuo92fo,698.0,./Stimuli/SelectedImages/LN/LN42.bmp,76.0,,True,M + N,76.0,switch,LN,LN42.bmp,remember,,135.0,right,4.0,prime2,5ebeeb2d47d7182bb7855b52,5f5a55364e9b770ed21874ff,5f60d752196795054b70f2f6
categorize-image,379,prime,50303yjswuo92fo,631.0,./Stimuli/SelectedImages/SN/SN181.bmp,76.0,,True,M + N,76.0,repetition,SN,SN181.bmp,forget,,136.0,right,4.0,prime2,5ebeeb2d47d7182bb7855b52,5f5a55364e9b770ed21874ff,5f60d752196795054b70f2f6
categorize-image,382,prime,50303yjswuo92fo,609.0,./Stimuli/SelectedImages/LM/LM167.bmp,76.0,,True,N + M,76.0,repetition,LM,LM167.bmp,forget,,137.0,right,4.0,prime2,5ebeeb2d47d7182bb7855b52,5f5a55364e9b770ed21874ff,5f60d752196795054b70f2f6
categorize-image,385,prime,50303yjswuo92fo,635.0,./Stimuli/SelectedImages/SN/SN60.bmp,76.0,,True,M + N,76.0,switch,SN,SN60.bmp,forget,,138.0,right,4.0,prime2,5ebeeb2d47d7182bb7855b52,5f5a55364e9b770ed21874ff,5f60d752196795054b70f2f6
categorize-image,388,prime,50303yjswuo92fo,676.0,./Stimuli/SelectedImages/LN/LN149.bmp,83.0,,True,N + M,83.0,switch,LN,LN149.bmp,remember,,139.0,left,4.0,prime2,5ebeeb2d47d7182bb7855b52,5f5a55364e9b770ed21874ff,5f60d752196795054b70f2f6
categorize-image,391,prime,50303yjswuo92fo,620.0,./Stimuli/SelectedImages/SN/SN182.bmp,83.0,,True,N + M,83.0,switch,SN,SN182.bmp,forget,,140.0,left,4.0,prime2,5ebeeb2d47d7182bb7855b52,5f5a55364e9b770ed21874ff,5f60d752196795054b70f2f6
categorize-image,394,prime,50303yjswuo92fo,517.0,./Stimuli/SelectedImages/SN/SN128.bmp,83.0,,True,N + M,83.0,repetition,SN,SN128.bmp,remember,,141.0,left,4.0,prime2,5ebeeb2d47d7182bb7855b52,5f5a55364e9b770ed21874ff,5f60d752196795054b70f2f6
categorize-image,397,prime,50303yjswuo92fo,555.0,./Stimuli/SelectedImages/LM/LM58.bmp,76.0,,True,N + M,76.0,repetition,LM,LM58.bmp,remember,,142.0,right,4.0,prime2,5ebeeb2d47d7182bb7855b52,5f5a55364e9b770ed21874ff,5f60d752196795054b70f2f6
categorize-image,400,prime,50303yjswuo92fo,559.0,./Stimuli/SelectedImages/SN/SN140.bmp,83.0,,True,N + M,83.0,repetition,SN,SN140.bmp,forget,,143.0,left,4.0,prime2,5ebeeb2d47d7182bb7855b52,5f5a55364e9b770ed21874ff,5f60d752196795054b70f2f6
categorize-image,403,prime,50303yjswuo92fo,828.0,./Stimuli/SelectedImages/LN/LN150.bmp,83.0,,True,N + M,83.0,repetition,LN,LN150.bmp,remember,,144.0,left,4.0,prime2,5ebeeb2d47d7182bb7855b52,5f5a55364e9b770ed21874ff,5f60d752196795054b70f2f6
categorize-image,406,prime,50303yjswuo92fo,652.0,./Stimuli/SelectedImages/SN/SN179.bmp,83.0,,True,N + M,83.0,switch,SN,SN179.bmp,remember,,145.0,left,4.0,prime2,5ebeeb2d47d7182bb7855b52,5f5a55364e9b770ed21874ff,5f60d752196795054b70f2f6
categorize-image,409,prime,50303yjswuo92fo,644.0,./Stimuli/SelectedImages/LN/LN101.bmp,76.0,,True,M + N,76.0,switch,LN,LN101.bmp,remember,,146.0,right,4.0,prime2,5ebeeb2d47d7182bb7855b52,5f5a55364e9b770ed21874ff,5f60d752196795054b70f2f6
categorize-image,412,prime,50303yjswuo92fo,653.0,./Stimuli/SelectedImages/LM/LM51.bmp,83.0,,True,M + N,83.0,switch,LM,LM51.bmp,remember,,147.0,left,4.0,prime2,5ebeeb2d47d7182bb7855b52,5f5a55364e9b770ed21874ff,5f60d752196795054b70f2f6
categorize-image,415,prime,50303yjswuo92fo,711.0,./Stimuli/SelectedImages/LN/LN82.bmp,83.0,,True,N + M,83.0,repetition,LN,LN82.bmp,forget,,148.0,left,4.0,prime2,5ebeeb2d47d7182bb7855b52,5f5a55364e9b770ed21874ff,5f60d752196795054b70f2f6
categorize-image,418,prime,50303yjswuo92fo,636.0,./Stimuli/SelectedImages/LM/LM59.bmp,83.0,,True,M + N,83.0,repetition,LM,LM59.bmp,forget,,149.0,left,4.0,prime2,5ebeeb2d47d7182bb7855b52,5f5a55364e9b770ed21874ff,5f60d752196795054b70f2f6
categorize-image,421,prime,50303yjswuo92fo,565.0,./Stimuli/SelectedImages/SN/SN52.bmp,76.0,,True,M + N,76.0,repetition,SN,SN52.bmp,remember,,150.0,right,4.0,prime2,5ebeeb2d47d7182bb7855b52,5f5a55364e9b770ed21874ff,5f60d752196795054b70f2f6
categorize-image,424,prime,50303yjswuo92fo,720.0,./Stimuli/SelectedImages/SN/SN93.bmp,83.0,,True,N + M,83.0,repetition,SN,SN93.bmp,remember,,151.0,left,4.0,prime2,5ebeeb2d47d7182bb7855b52,5f5a55364e9b770ed21874ff,5f60d752196795054b70f2f6
categorize-image,427,prime,50303yjswuo92fo,711.0,./Stimuli/SelectedImages/SM/SM73.bmp,83.0,,True,M + N,83.0,repetition,SM,SM73.bmp,forget,,152.0,left,4.0,prime2,5ebeeb2d47d7182bb7855b52,5f5a55364e9b770ed21874ff,5f60d752196795054b70f2f6
categorize-image,430,prime,50303yjswuo92fo,788.0,./Stimuli/SelectedImages/LM/LM209.bmp,83.0,,True,M + N,83.0,switch,LM,LM209.bmp,remember,,153.0,left,4.0,prime2,5ebeeb2d47d7182bb7855b52,5f5a55364e9b770ed21874ff,5f60d752196795054b70f2f6
categorize-image,433,prime,50303yjswuo92fo,709.0,./Stimuli/SelectedImages/SN/SN111.bmp,83.0,,True,N + M,83.0,switch,SN,SN111.bmp,forget,,154.0,left,4.0,prime2,5ebeeb2d47d7182bb7855b52,5f5a55364e9b770ed21874ff,5f60d752196795054b70f2f6
categorize-image,436,prime,50303yjswuo92fo,844.0,./Stimuli/SelectedImages/LN/LN92.bmp,83.0,,True,N + M,83.0,switch,LN,LN92.bmp,remember,,155.0,left,4.0,prime2,5ebeeb2d47d7182bb7855b52,5f5a55364e9b770ed21874ff,5f60d752196795054b70f2f6
categorize-image,439,prime,50303yjswuo92fo,769.0,./Stimuli/SelectedImages/SM/SM74.bmp,83.0,,True,M + N,83.0,switch,SM,SM74.bmp,remember,,156.0,left,4.0,prime2,5ebeeb2d47d7182bb7855b52,5f5a55364e9b770ed21874ff,5f60d752196795054b70f2f6
categorize-image,442,prime,50303yjswuo92fo,632.0,./Stimuli/SelectedImages/SM/SM106.bmp,83.0,,True,M + N,83.0,repetition,SM,SM106.bmp,remember,,157.0,left,4.0,prime2,5ebeeb2d47d7182bb7855b52,5f5a55364e9b770ed21874ff,5f60d752196795054b70f2f6
categorize-image,445,prime,50303yjswuo92fo,640.0,./Stimuli/SelectedImages/SM/SM207.bmp,76.0,,True,N + M,76.0,switch,SM,SM207.bmp,forget,,158.0,right,4.0,prime2,5ebeeb2d47d7182bb7855b52,5f5a55364e9b770ed21874ff,5f60d752196795054b70f2f6
categorize-image,448,prime,50303yjswuo92fo,636.0,./Stimuli/SelectedImages/SM/SM205.bmp,76.0,,True,N + M,76.0,switch,SM,SM205.bmp,forget,,159.0,right,4.0,prime2,5ebeeb2d47d7182bb7855b52,5f5a55364e9b770ed21874ff,5f60d752196795054b70f2f6
categorize-image,451,prime,50303yjswuo92fo,746.0,./Stimuli/SelectedImages/LN/LN59.bmp,76.0,,True,M + N,76.0,switch,LN,LN59.bmp,forget,,160.0,right,4.0,prime2,5ebeeb2d47d7182bb7855b52,5f5a55364e9b770ed21874ff,5f60d752196795054b70f2f6
categorize-image,454,prime,50303yjswuo92fo,629.0,./Stimuli/SelectedImages/LM/LM179.bmp,83.0,,True,M + N,83.0,repetition,LM,LM179.bmp,forget,,161.0,left,4.0,prime2,5ebeeb2d47d7182bb7855b52,5f5a55364e9b770ed21874ff,5f60d752196795054b70f2f6
categorize-image,457,prime,50303yjswuo92fo,607.0,./Stimuli/SelectedImages/LM/LM100.bmp,76.0,,True,N + M,76.0,switch,LM,LM100.bmp,forget,,162.0,right,4.0,prime2,5ebeeb2d47d7182bb7855b52,5f5a55364e9b770ed21874ff,5f60d752196795054b70f2f6
categorize-image,460,prime,50303yjswuo92fo,653.0,./Stimuli/SelectedImages/LM/LM57.bmp,76.0,,True,N + M,76.0,repetition,LM,LM57.bmp,forget,,163.0,right,4.0,prime2,5ebeeb2d47d7182bb7855b52,5f5a55364e9b770ed21874ff,5f60d752196795054b70f2f6
categorize-image,463,prime,50303yjswuo92fo,740.0,./Stimuli/SelectedImages/SN/SN64.bmp,76.0,,True,M + N,76.0,repetition,SN,SN64.bmp,remember,,164.0,right,4.0,prime2,5ebeeb2d47d7182bb7855b52,5f5a55364e9b770ed21874ff,5f60d752196795054b70f2f6
categorize-image,466,prime,50303yjswuo92fo,667.0,./Stimuli/SelectedImages/SM/SM24.bmp,76.0,,True,N + M,76.0,repetition,SM,SM24.bmp,remember,,165.0,right,4.0,prime2,5ebeeb2d47d7182bb7855b52,5f5a55364e9b770ed21874ff,5f60d752196795054b70f2f6
categorize-image,469,prime,50303yjswuo92fo,669.0,./Stimuli/SelectedImages/LM/LM216.bmp,83.0,,True,M + N,83.0,switch,LM,LM216.bmp,forget,,166.0,left,4.0,prime2,5ebeeb2d47d7182bb7855b52,5f5a55364e9b770ed21874ff,5f60d752196795054b70f2f6
categorize-image,472,prime,50303yjswuo92fo,711.0,./Stimuli/SelectedImages/LN/LN177.bmp,83.0,,True,N + M,83.0,repetition,LN,LN177.bmp,remember,,167.0,left,4.0,prime2,5ebeeb2d47d7182bb7855b52,5f5a55364e9b770ed21874ff,5f60d752196795054b70f2f6
categorize-image,475,prime,50303yjswuo92fo,859.0,./Stimuli/SelectedImages/LN/LN128.bmp,76.0,,True,M + N,76.0,repetition,LN,LN128.bmp,forget,,168.0,right,4.0,prime2,5ebeeb2d47d7182bb7855b52,5f5a55364e9b770ed21874ff,5f60d752196795054b70f2f6
categorize-image,478,prime,50303yjswuo92fo,640.0,./Stimuli/SelectedImages/LN/LN28.bmp,76.0,,True,M + N,76.0,repetition,LN,LN28.bmp,remember,,169.0,right,4.0,prime2,5ebeeb2d47d7182bb7855b52,5f5a55364e9b770ed21874ff,5f60d752196795054b70f2f6
categorize-image,481,prime,50303yjswuo92fo,584.0,./Stimuli/SelectedImages/SM/SM148.bmp,83.0,,True,M + N,83.0,repetition,SM,SM148.bmp,remember,,170.0,left,4.0,prime2,5ebeeb2d47d7182bb7855b52,5f5a55364e9b770ed21874ff,5f60d752196795054b70f2f6
categorize-image,484,prime,50303yjswuo92fo,527.0,./Stimuli/SelectedImages/SM/SM78.bmp,76.0,,True,N + M,76.0,repetition,SM,SM78.bmp,forget,,171.0,right,4.0,prime2,5ebeeb2d47d7182bb7855b52,5f5a55364e9b770ed21874ff,5f60d752196795054b70f2f6
categorize-image,487,prime,50303yjswuo92fo,697.0,./Stimuli/SelectedImages/SM/SM128.bmp,76.0,,True,N + M,76.0,repetition,SM,SM128.bmp,forget,,172.0,right,4.0,prime2,5ebeeb2d47d7182bb7855b52,5f5a55364e9b770ed21874ff,5f60d752196795054b70f2f6
categorize-image,490,prime,50303yjswuo92fo,521.0,./Stimuli/SelectedImages/SM/SM213.bmp,83.0,,True,M + N,83.0,repetition,SM,SM213.bmp,forget,,173.0,left,4.0,prime2,5ebeeb2d47d7182bb7855b52,5f5a55364e9b770ed21874ff,5f60d752196795054b70f2f6
categorize-image,493,prime,50303yjswuo92fo,719.0,./Stimuli/SelectedImages/LN/LN166.bmp,76.0,,True,M + N,76.0,repetition,LN,LN166.bmp,remember,,174.0,right,4.0,prime2,5ebeeb2d47d7182bb7855b52,5f5a55364e9b770ed21874ff,5f60d752196795054b70f2f6
categorize-image,496,prime,50303yjswuo92fo,683.0,./Stimuli/SelectedImages/LM/LM129.bmp,76.0,,True,N + M,76.0,repetition,LM,LM129.bmp,remember,,175.0,right,4.0,prime2,5ebeeb2d47d7182bb7855b52,5f5a55364e9b770ed21874ff,5f60d752196795054b70f2f6
categorize-image,499,prime,50303yjswuo92fo,511.0,./Stimuli/SelectedImages/SM/SM200.bmp,83.0,,True,M + N,83.0,switch,SM,SM200.bmp,forget,,176.0,left,4.0,prime2,5ebeeb2d47d7182bb7855b52,5f5a55364e9b770ed21874ff,5f60d752196795054b70f2f6
categorize-image,503,prime,50303yjswuo92fo,930.0,./Stimuli/SelectedImages/SN/SN93.bmp,83.0,,True,N + M,83.0,repetition,SN,SN93.bmp,remember,,177.0,left,5.0,prime3,5ebeeb2d47d7182bb7855b52,5f5a55364e9b770ed21874ff,5f60d752196795054b70f2f6
categorize-image,506,prime,50303yjswuo92fo,596.0,./Stimuli/SelectedImages/LN/LN166.bmp,76.0,,True,M + N,76.0,repetition,LN,LN166.bmp,remember,,178.0,right,5.0,prime3,5ebeeb2d47d7182bb7855b52,5f5a55364e9b770ed21874ff,5f60d752196795054b70f2f6
categorize-image,509,prime,50303yjswuo92fo,651.0,./Stimuli/SelectedImages/LN/LN111.bmp,83.0,,True,N + M,83.0,repetition,LN,LN111.bmp,forget,,179.0,left,5.0,prime3,5ebeeb2d47d7182bb7855b52,5f5a55364e9b770ed21874ff,5f60d752196795054b70f2f6
categorize-image,512,prime,50303yjswuo92fo,853.0,./Stimuli/SelectedImages/SN/SN18.bmp,76.0,,True,M + N,76.0,switch,SN,SN18.bmp,remember,,180.0,right,5.0,prime3,5ebeeb2d47d7182bb7855b52,5f5a55364e9b770ed21874ff,5f60d752196795054b70f2f6
categorize-image,515,prime,50303yjswuo92fo,790.0,./Stimuli/SelectedImages/LN/LN13.bmp,83.0,,True,N + M,83.0,switch,LN,LN13.bmp,forget,,181.0,left,5.0,prime3,5ebeeb2d47d7182bb7855b52,5f5a55364e9b770ed21874ff,5f60d752196795054b70f2f6
categorize-image,518,prime,50303yjswuo92fo,683.0,./Stimuli/SelectedImages/SN/SN187.bmp,83.0,,True,N + M,83.0,switch,SN,SN187.bmp,remember,,182.0,left,5.0,prime3,5ebeeb2d47d7182bb7855b52,5f5a55364e9b770ed21874ff,5f60d752196795054b70f2f6
categorize-image,521,prime,50303yjswuo92fo,614.0,./Stimuli/SelectedImages/SN/SN111.bmp,83.0,,True,N + M,83.0,switch,SN,SN111.bmp,forget,,183.0,left,5.0,prime3,5ebeeb2d47d7182bb7855b52,5f5a55364e9b770ed21874ff,5f60d752196795054b70f2f6
categorize-image,524,prime,50303yjswuo92fo,513.0,./Stimuli/SelectedImages/LM/LM51.bmp,83.0,,True,M + N,83.0,switch,LM,LM51.bmp,remember,,184.0,left,5.0,prime3,5ebeeb2d47d7182bb7855b52,5f5a55364e9b770ed21874ff,5f60d752196795054b70f2f6
categorize-image,527,prime,50303yjswuo92fo,616.0,./Stimuli/SelectedImages/LM/LM103.bmp,76.0,,True,N + M,76.0,switch,LM,LM103.bmp,remember,,185.0,right,5.0,prime3,5ebeeb2d47d7182bb7855b52,5f5a55364e9b770ed21874ff,5f60d752196795054b70f2f6
categorize-image,530,prime,50303yjswuo92fo,634.0,./Stimuli/SelectedImages/SM/SM148.bmp,83.0,,True,M + N,83.0,repetition,SM,SM148.bmp,remember,,186.0,left,5.0,prime3,5ebeeb2d47d7182bb7855b52,5f5a55364e9b770ed21874ff,5f60d752196795054b70f2f6
categorize-image,533,prime,50303yjswuo92fo,666.0,./Stimuli/SelectedImages/LN/LN42.bmp,76.0,,True,M + N,76.0,switch,LN,LN42.bmp,remember,,187.0,right,5.0,prime3,5ebeeb2d47d7182bb7855b52,5f5a55364e9b770ed21874ff,5f60d752196795054b70f2f6
categorize-image,536,prime,50303yjswuo92fo,659.0,./Stimuli/SelectedImages/LM/LM235.bmp,83.0,,True,M + N,83.0,repetition,LM,LM235.bmp,remember,,188.0,left,5.0,prime3,5ebeeb2d47d7182bb7855b52,5f5a55364e9b770ed21874ff,5f60d752196795054b70f2f6
categorize-image,539,prime,50303yjswuo92fo,561.0,./Stimuli/SelectedImages/SM/SM76.bmp,76.0,,True,N + M,76.0,switch,SM,SM76.bmp,remember,,189.0,right,5.0,prime3,5ebeeb2d47d7182bb7855b52,5f5a55364e9b770ed21874ff,5f60d752196795054b70f2f6
categorize-image,542,prime,50303yjswuo92fo,626.0,./Stimuli/SelectedImages/SM/SM74.bmp,83.0,,True,M + N,83.0,switch,SM,SM74.bmp,remember,,190.0,left,5.0,prime3,5ebeeb2d47d7182bb7855b52,5f5a55364e9b770ed21874ff,5f60d752196795054b70f2f6
categorize-image,545,prime,50303yjswuo92fo,641.0,./Stimuli/SelectedImages/SN/SN64.bmp,76.0,,True,M + N,76.0,repetition,SN,SN64.bmp,remember,,191.0,right,5.0,prime3,5ebeeb2d47d7182bb7855b52,5f5a55364e9b770ed21874ff,5f60d752196795054b70f2f6
categorize-image,548,prime,50303yjswuo92fo,611.0,./Stimuli/SelectedImages/LN/LN149.bmp,83.0,,True,N + M,83.0,switch,LN,LN149.bmp,remember,,192.0,left,5.0,prime3,5ebeeb2d47d7182bb7855b52,5f5a55364e9b770ed21874ff,5f60d752196795054b70f2f6
categorize-image,551,prime,50303yjswuo92fo,648.0,./Stimuli/SelectedImages/SN/SN181.bmp,76.0,,True,M + N,76.0,repetition,SN,SN181.bmp,forget,,193.0,right,5.0,prime3,5ebeeb2d47d7182bb7855b52,5f5a55364e9b770ed21874ff,5f60d752196795054b70f2f6
categorize-image,554,prime,50303yjswuo92fo,673.0,./Stimuli/SelectedImages/LN/LN128.bmp,76.0,,True,M + N,76.0,repetition,LN,LN128.bmp,forget,,194.0,right,5.0,prime3,5ebeeb2d47d7182bb7855b52,5f5a55364e9b770ed21874ff,5f60d752196795054b70f2f6
categorize-image,557,prime,50303yjswuo92fo,581.0,./Stimuli/SelectedImages/SN/SN52.bmp,76.0,,True,M + N,76.0,repetition,SN,SN52.bmp,remember,,195.0,right,5.0,prime3,5ebeeb2d47d7182bb7855b52,5f5a55364e9b770ed21874ff,5f60d752196795054b70f2f6
categorize-image,560,prime,50303yjswuo92fo,595.0,./Stimuli/SelectedImages/SM/SM108.bmp,83.0,,True,M + N,83.0,switch,SM,SM108.bmp,forget,,196.0,left,5.0,prime3,5ebeeb2d47d7182bb7855b52,5f5a55364e9b770ed21874ff,5f60d752196795054b70f2f6
categorize-image,563,prime,50303yjswuo92fo,515.0,./Stimuli/SelectedImages/LM/LM58.bmp,76.0,,True,N + M,76.0,repetition,LM,LM58.bmp,remember,,197.0,right,5.0,prime3,5ebeeb2d47d7182bb7855b52,5f5a55364e9b770ed21874ff,5f60d752196795054b70f2f6
categorize-image,566,prime,50303yjswuo92fo,1058.0,./Stimuli/SelectedImages/LN/LN177.bmp,83.0,,True,N + M,83.0,repetition,LN,LN177.bmp,remember,,198.0,left,5.0,prime3,5ebeeb2d47d7182bb7855b52,5f5a55364e9b770ed21874ff,5f60d752196795054b70f2f6
categorize-image,569,prime,50303yjswuo92fo,544.0,./Stimuli/SelectedImages/SN/SN140.bmp,83.0,,True,N + M,83.0,repetition,SN,SN140.bmp,forget,,199.0,left,5.0,prime3,5ebeeb2d47d7182bb7855b52,5f5a55364e9b770ed21874ff,5f60d752196795054b70f2f6
categorize-image,572,prime,50303yjswuo92fo,717.0,./Stimuli/SelectedImages/SN/SN182.bmp,83.0,,True,N + M,83.0,switch,SN,SN182.bmp,forget,,200.0,left,5.0,prime3,5ebeeb2d47d7182bb7855b52,5f5a55364e9b770ed21874ff,5f60d752196795054b70f2f6
categorize-image,575,prime,50303yjswuo92fo,582.0,./Stimuli/SelectedImages/SN/SN49.bmp,76.0,,True,M + N,76.0,switch,SN,SN49.bmp,remember,,201.0,right,5.0,prime3,5ebeeb2d47d7182bb7855b52,5f5a55364e9b770ed21874ff,5f60d752196795054b70f2f6
categorize-image,578,prime,50303yjswuo92fo,601.0,./Stimuli/SelectedImages/SN/SN155.bmp,76.0,,True,M + N,76.0,switch,SN,SN155.bmp,forget,,202.0,right,5.0,prime3,5ebeeb2d47d7182bb7855b52,5f5a55364e9b770ed21874ff,5f60d752196795054b70f2f6
categorize-image,581,prime,50303yjswuo92fo,547.0,./Stimuli/SelectedImages/SM/SM128.bmp,76.0,,True,N + M,76.0,repetition,SM,SM128.bmp,forget,,203.0,right,5.0,prime3,5ebeeb2d47d7182bb7855b52,5f5a55364e9b770ed21874ff,5f60d752196795054b70f2f6
categorize-image,584,prime,50303yjswuo92fo,614.0,./Stimuli/SelectedImages/LN/LN82.bmp,83.0,,True,N + M,83.0,repetition,LN,LN82.bmp,forget,,204.0,left,5.0,prime3,5ebeeb2d47d7182bb7855b52,5f5a55364e9b770ed21874ff,5f60d752196795054b70f2f6
categorize-image,587,prime,50303yjswuo92fo,592.0,./Stimuli/SelectedImages/LM/LM59.bmp,83.0,,True,M + N,83.0,repetition,LM,LM59.bmp,forget,,205.0,left,5.0,prime3,5ebeeb2d47d7182bb7855b52,5f5a55364e9b770ed21874ff,5f60d752196795054b70f2f6
categorize-image,590,prime,50303yjswuo92fo,569.0,./Stimuli/SelectedImages/SM/SM205.bmp,76.0,,True,N + M,76.0,switch,SM,SM205.bmp,forget,,206.0,right,5.0,prime3,5ebeeb2d47d7182bb7855b52,5f5a55364e9b770ed21874ff,5f60d752196795054b70f2f6
categorize-image,593,prime,50303yjswuo92fo,680.0,./Stimuli/SelectedImages/SM/SM213.bmp,83.0,,True,M + N,83.0,repetition,SM,SM213.bmp,forget,,207.0,left,5.0,prime3,5ebeeb2d47d7182bb7855b52,5f5a55364e9b770ed21874ff,5f60d752196795054b70f2f6
categorize-image,596,prime,50303yjswuo92fo,925.0,./Stimuli/SelectedImages/LM/LM167.bmp,76.0,,True,N + M,76.0,repetition,LM,LM167.bmp,forget,,208.0,right,5.0,prime3,5ebeeb2d47d7182bb7855b52,5f5a55364e9b770ed21874ff,5f60d752196795054b70f2f6
categorize-image,599,prime,50303yjswuo92fo,624.0,./Stimuli/SelectedImages/SN/SN240.bmp,76.0,,True,M + N,76.0,repetition,SN,SN240.bmp,forget,,209.0,right,5.0,prime3,5ebeeb2d47d7182bb7855b52,5f5a55364e9b770ed21874ff,5f60d752196795054b70f2f6
categorize-image,602,prime,50303yjswuo92fo,600.0,./Stimuli/SelectedImages/LN/LN28.bmp,76.0,,True,M + N,76.0,repetition,LN,LN28.bmp,remember,,210.0,right,5.0,prime3,5ebeeb2d47d7182bb7855b52,5f5a55364e9b770ed21874ff,5f60d752196795054b70f2f6
categorize-image,605,prime,50303yjswuo92fo,649.0,./Stimuli/SelectedImages/LM/LM75.bmp,76.0,,True,N + M,76.0,switch,LM,LM75.bmp,forget,,211.0,right,5.0,prime3,5ebeeb2d47d7182bb7855b52,5f5a55364e9b770ed21874ff,5f60d752196795054b70f2f6
categorize-image,608,prime,50303yjswuo92fo,591.0,./Stimuli/SelectedImages/SN/SN179.bmp,83.0,,True,N + M,83.0,switch,SN,SN179.bmp,remember,,212.0,left,5.0,prime3,5ebeeb2d47d7182bb7855b52,5f5a55364e9b770ed21874ff,5f60d752196795054b70f2f6
categorize-image,611,prime,50303yjswuo92fo,616.0,./Stimuli/SelectedImages/LM/LM57.bmp,76.0,,True,N + M,76.0,repetition,LM,LM57.bmp,forget,,213.0,right,5.0,prime3,5ebeeb2d47d7182bb7855b52,5f5a55364e9b770ed21874ff,5f60d752196795054b70f2f6
categorize-image,614,prime,50303yjswuo92fo,619.0,./Stimuli/SelectedImages/SM/SM17.bmp,76.0,,True,N + M,76.0,repetition,SM,SM17.bmp,remember,,214.0,right,5.0,prime3,5ebeeb2d47d7182bb7855b52,5f5a55364e9b770ed21874ff,5f60d752196795054b70f2f6
categorize-image,617,prime,50303yjswuo92fo,707.0,./Stimuli/SelectedImages/LN/LN9.bmp,83.0,,True,N + M,83.0,switch,LN,LN9.bmp,forget,,215.0,left,5.0,prime3,5ebeeb2d47d7182bb7855b52,5f5a55364e9b770ed21874ff,5f60d752196795054b70f2f6
categorize-image,620,prime,50303yjswuo92fo,570.0,./Stimuli/SelectedImages/LM/LM150.bmp,83.0,,True,M + N,83.0,switch,LM,LM150.bmp,forget,,216.0,left,5.0,prime3,5ebeeb2d47d7182bb7855b52,5f5a55364e9b770ed21874ff,5f60d752196795054b70f2f6
categorize-image,623,prime,50303yjswuo92fo,591.0,./Stimuli/SelectedImages/LN/LN59.bmp,76.0,,True,M + N,76.0,switch,LN,LN59.bmp,forget,,217.0,right,5.0,prime3,5ebeeb2d47d7182bb7855b52,5f5a55364e9b770ed21874ff,5f60d752196795054b70f2f6
categorize-image,626,prime,50303yjswuo92fo,631.0,./Stimuli/SelectedImages/LM/LM216.bmp,83.0,,True,M + N,83.0,switch,LM,LM216.bmp,forget,,218.0,left,5.0,prime3,5ebeeb2d47d7182bb7855b52,5f5a55364e9b770ed21874ff,5f60d752196795054b70f2f6
categorize-image,629,prime,50303yjswuo92fo,703.0,./Stimuli/SelectedImages/SN/SN60.bmp,76.0,,True,M + N,76.0,switch,SN,SN60.bmp,forget,,219.0,right,5.0,prime3,5ebeeb2d47d7182bb7855b52,5f5a55364e9b770ed21874ff,5f60d752196795054b70f2f6
categorize-image,632,prime,50303yjswuo92fo,502.0,./Stimuli/SelectedImages/SM/SM78.bmp,76.0,,True,N + M,76.0,repetition,SM,SM78.bmp,forget,,220.0,right,5.0,prime3,5ebeeb2d47d7182bb7855b52,5f5a55364e9b770ed21874ff,5f60d752196795054b70f2f6
categorize-image,635,prime,50303yjswuo92fo,490.0,./Stimuli/SelectedImages/SM/SM73.bmp,83.0,,True,M + N,83.0,repetition,SM,SM73.bmp,forget,,221.0,left,5.0,prime3,5ebeeb2d47d7182bb7855b52,5f5a55364e9b770ed21874ff,5f60d752196795054b70f2f6
categorize-image,638,prime,50303yjswuo92fo,694.0,./Stimuli/SelectedImages/LM/LM209.bmp,83.0,,True,M + N,83.0,switch,LM,LM209.bmp,remember,,222.0,left,5.0,prime3,5ebeeb2d47d7182bb7855b52,5f5a55364e9b770ed21874ff,5f60d752196795054b70f2f6
categorize-image,641,prime,50303yjswuo92fo,664.0,./Stimuli/SelectedImages/LN/LN12.bmp,76.0,,True,M + N,76.0,repetition,LN,LN12.bmp,forget,,223.0,right,5.0,prime3,5ebeeb2d47d7182bb7855b52,5f5a55364e9b770ed21874ff,5f60d752196795054b70f2f6
categorize-image,644,prime,50303yjswuo92fo,773.0,./Stimuli/SelectedImages/SN/SN128.bmp,83.0,,True,N + M,83.0,repetition,SN,SN128.bmp,remember,,224.0,left,5.0,prime3,5ebeeb2d47d7182bb7855b52,5f5a55364e9b770ed21874ff,5f60d752196795054b70f2f6
categorize-image,647,prime,50303yjswuo92fo,613.0,./Stimuli/SelectedImages/LN/LN131.bmp,76.0,,True,M + N,76.0,switch,LN,LN131.bmp,forget,,225.0,right,5.0,prime3,5ebeeb2d47d7182bb7855b52,5f5a55364e9b770ed21874ff,5f60d752196795054b70f2f6
categorize-image,650,prime,50303yjswuo92fo,500.0,./Stimuli/SelectedImages/LM/LM179.bmp,83.0,,True,M + N,83.0,repetition,LM,LM179.bmp,forget,,226.0,left,5.0,prime3,5ebeeb2d47d7182bb7855b52,5f5a55364e9b770ed21874ff,5f60d752196795054b70f2f6
categorize-image,653,prime,50303yjswuo92fo,575.0,./Stimuli/SelectedImages/SM/SM200.bmp,83.0,,True,M + N,83.0,switch,SM,SM200.bmp,forget,,227.0,left,5.0,prime3,5ebeeb2d47d7182bb7855b52,5f5a55364e9b770ed21874ff,5f60d752196795054b70f2f6
categorize-image,656,prime,50303yjswuo92fo,513.0,./Stimuli/SelectedImages/SM/SM207.bmp,76.0,,True,N + M,76.0,switch,SM,SM207.bmp,forget,,228.0,right,5.0,prime3,5ebeeb2d47d7182bb7855b52,5f5a55364e9b770ed21874ff,5f60d752196795054b70f2f6
categorize-image,659,prime,50303yjswuo92fo,544.0,./Stimuli/SelectedImages/SM/SM106.bmp,83.0,,True,M + N,83.0,repetition,SM,SM106.bmp,remember,,229.0,left,5.0,prime3,5ebeeb2d47d7182bb7855b52,5f5a55364e9b770ed21874ff,5f60d752196795054b70f2f6
categorize-image,662,prime,50303yjswuo92fo,789.0,./Stimuli/SelectedImages/LM/LM157.bmp,76.0,,True,N + M,76.0,switch,LM,LM157.bmp,remember,,230.0,right,5.0,prime3,5ebeeb2d47d7182bb7855b52,5f5a55364e9b770ed21874ff,5f60d752196795054b70f2f6
categorize-image,665,prime,50303yjswuo92fo,624.0,./Stimuli/SelectedImages/SN/SN27.bmp,83.0,,True,N + M,83.0,repetition,SN,SN27.bmp,forget,,231.0,left,5.0,prime3,5ebeeb2d47d7182bb7855b52,5f5a55364e9b770ed21874ff,5f60d752196795054b70f2f6
categorize-image,668,prime,50303yjswuo92fo,586.0,./Stimuli/SelectedImages/LN/LN92.bmp,83.0,,True,N + M,83.0,switch,LN,LN92.bmp,remember,,232.0,left,5.0,prime3,5ebeeb2d47d7182bb7855b52,5f5a55364e9b770ed21874ff,5f60d752196795054b70f2f6
categorize-image,671,prime,50303yjswuo92fo,483.0,./Stimuli/SelectedImages/LM/LM100.bmp,76.0,,True,N + M,76.0,switch,LM,LM100.bmp,forget,,233.0,right,5.0,prime3,5ebeeb2d47d7182bb7855b52,5f5a55364e9b770ed21874ff,5f60d752196795054b70f2f6
categorize-image,674,prime,50303yjswuo92fo,595.0,./Stimuli/SelectedImages/LM/LM129.bmp,76.0,,True,N + M,76.0,repetition,LM,LM129.bmp,remember,,234.0,right,5.0,prime3,5ebeeb2d47d7182bb7855b52,5f5a55364e9b770ed21874ff,5f60d752196795054b70f2f6
categorize-image,677,prime,50303yjswuo92fo,534.0,./Stimuli/SelectedImages/SM/SM184.bmp,76.0,,True,N + M,76.0,switch,SM,SM184.bmp,remember,,235.0,right,5.0,prime3,5ebeeb2d47d7182bb7855b52,5f5a55364e9b770ed21874ff,5f60d752196795054b70f2f6
categorize-image,680,prime,50303yjswuo92fo,428.0,./Stimuli/SelectedImages/LM/LM48.bmp,83.0,,True,M + N,83.0,repetition,LM,LM48.bmp,remember,,236.0,left,5.0,prime3,5ebeeb2d47d7182bb7855b52,5f5a55364e9b770ed21874ff,5f60d752196795054b70f2f6
categorize-image,683,prime,50303yjswuo92fo,633.0,./Stimuli/SelectedImages/LN/LN150.bmp,83.0,,True,N + M,83.0,repetition,LN,LN150.bmp,remember,,237.0,left,5.0,prime3,5ebeeb2d47d7182bb7855b52,5f5a55364e9b770ed21874ff,5f60d752196795054b70f2f6
categorize-image,686,prime,50303yjswuo92fo,614.0,./Stimuli/SelectedImages/SM/SM195.bmp,83.0,,True,M + N,83.0,switch,SM,SM195.bmp,remember,,238.0,left,5.0,prime3,5ebeeb2d47d7182bb7855b52,5f5a55364e9b770ed21874ff,5f60d752196795054b70f2f6
categorize-image,689,prime,50303yjswuo92fo,709.0,./Stimuli/SelectedImages/LN/LN101.bmp,76.0,,True,M + N,76.0,switch,LN,LN101.bmp,remember,,239.0,right,5.0,prime3,5ebeeb2d47d7182bb7855b52,5f5a55364e9b770ed21874ff,5f60d752196795054b70f2f6
categorize-image,692,prime,50303yjswuo92fo,559.0,./Stimuli/SelectedImages/SM/SM24.bmp,76.0,,True,N + M,76.0,repetition,SM,SM24.bmp,remember,,240.0,right,5.0,prime3,5ebeeb2d47d7182bb7855b52,5f5a55364e9b770ed21874ff,5f60d752196795054b70f2f6
categorize-image,696,prime,50303yjswuo92fo,537.0,./Stimuli/SelectedImages/SN/SN155.bmp,76.0,,True,M + N,76.0,switch,SN,SN155.bmp,forget,,241.0,right,6.0,prime4,5ebeeb2d47d7182bb7855b52,5f5a55364e9b770ed21874ff,5f60d752196795054b70f2f6
categorize-image,699,prime,50303yjswuo92fo,453.0,./Stimuli/SelectedImages/SM/SM205.bmp,76.0,,True,N + M,76.0,switch,SM,SM205.bmp,forget,,242.0,right,6.0,prime4,5ebeeb2d47d7182bb7855b52,5f5a55364e9b770ed21874ff,5f60d752196795054b70f2f6
categorize-image,702,prime,50303yjswuo92fo,444.0,./Stimuli/SelectedImages/LM/LM167.bmp,76.0,,True,N + M,76.0,repetition,LM,LM167.bmp,forget,,243.0,right,6.0,prime4,5ebeeb2d47d7182bb7855b52,5f5a55364e9b770ed21874ff,5f60d752196795054b70f2f6
categorize-image,705,prime,50303yjswuo92fo,671.0,./Stimuli/SelectedImages/LN/LN111.bmp,83.0,,True,N + M,83.0,repetition,LN,LN111.bmp,forget,,244.0,left,6.0,prime4,5ebeeb2d47d7182bb7855b52,5f5a55364e9b770ed21874ff,5f60d752196795054b70f2f6
categorize-image,708,prime,50303yjswuo92fo,465.0,./Stimuli/SelectedImages/LM/LM103.bmp,76.0,,True,N + M,76.0,switch,LM,LM103.bmp,remember,,245.0,right,6.0,prime4,5ebeeb2d47d7182bb7855b52,5f5a55364e9b770ed21874ff,5f60d752196795054b70f2f6
categorize-image,711,prime,50303yjswuo92fo,557.0,./Stimuli/SelectedImages/LN/LN150.bmp,83.0,,True,N + M,83.0,repetition,LN,LN150.bmp,remember,,246.0,left,6.0,prime4,5ebeeb2d47d7182bb7855b52,5f5a55364e9b770ed21874ff,5f60d752196795054b70f2f6
categorize-image,714,prime,50303yjswuo92fo,658.0,./Stimuli/SelectedImages/SM/SM78.bmp,76.0,,True,N + M,76.0,repetition,SM,SM78.bmp,forget,,247.0,right,6.0,prime4,5ebeeb2d47d7182bb7855b52,5f5a55364e9b770ed21874ff,5f60d752196795054b70f2f6
categorize-image,717,prime,50303yjswuo92fo,555.0,./Stimuli/SelectedImages/SM/SM17.bmp,76.0,,True,N + M,76.0,repetition,SM,SM17.bmp,remember,,248.0,right,6.0,prime4,5ebeeb2d47d7182bb7855b52,5f5a55364e9b770ed21874ff,5f60d752196795054b70f2f6
categorize-image,720,prime,50303yjswuo92fo,549.0,./Stimuli/SelectedImages/SM/SM207.bmp,76.0,,True,N + M,76.0,switch,SM,SM207.bmp,forget,,249.0,right,6.0,prime4,5ebeeb2d47d7182bb7855b52,5f5a55364e9b770ed21874ff,5f60d752196795054b70f2f6
categorize-image,723,prime,50303yjswuo92fo,585.0,./Stimuli/SelectedImages/SN/SN49.bmp,76.0,,True,M + N,76.0,switch,SN,SN49.bmp,remember,,250.0,right,6.0,prime4,5ebeeb2d47d7182bb7855b52,5f5a55364e9b770ed21874ff,5f60d752196795054b70f2f6
categorize-image,726,prime,50303yjswuo92fo,592.0,./Stimuli/SelectedImages/SM/SM108.bmp,83.0,,True,M + N,83.0,switch,SM,SM108.bmp,forget,,251.0,left,6.0,prime4,5ebeeb2d47d7182bb7855b52,5f5a55364e9b770ed21874ff,5f60d752196795054b70f2f6
categorize-image,729,prime,50303yjswuo92fo,717.0,./Stimuli/SelectedImages/SN/SN187.bmp,83.0,,True,N + M,83.0,switch,SN,SN187.bmp,remember,,252.0,left,6.0,prime4,5ebeeb2d47d7182bb7855b52,5f5a55364e9b770ed21874ff,5f60d752196795054b70f2f6
categorize-image,732,prime,50303yjswuo92fo,899.0,./Stimuli/SelectedImages/LM/LM235.bmp,83.0,,True,M + N,83.0,repetition,LM,LM235.bmp,remember,,253.0,left,6.0,prime4,5ebeeb2d47d7182bb7855b52,5f5a55364e9b770ed21874ff,5f60d752196795054b70f2f6
categorize-image,735,prime,50303yjswuo92fo,663.0,./Stimuli/SelectedImages/LN/LN92.bmp,83.0,,True,N + M,83.0,switch,LN,LN92.bmp,remember,,254.0,left,6.0,prime4,5ebeeb2d47d7182bb7855b52,5f5a55364e9b770ed21874ff,5f60d752196795054b70f2f6
categorize-image,738,prime,50303yjswuo92fo,471.0,./Stimuli/SelectedImages/SM/SM128.bmp,76.0,,True,N + M,76.0,repetition,SM,SM128.bmp,forget,,255.0,right,6.0,prime4,5ebeeb2d47d7182bb7855b52,5f5a55364e9b770ed21874ff,5f60d752196795054b70f2f6
categorize-image,741,prime,50303yjswuo92fo,952.0,./Stimuli/SelectedImages/LN/LN101.bmp,76.0,,True,M + N,76.0,switch,LN,LN101.bmp,remember,,256.0,right,6.0,prime4,5ebeeb2d47d7182bb7855b52,5f5a55364e9b770ed21874ff,5f60d752196795054b70f2f6
categorize-image,744,prime,50303yjswuo92fo,524.0,./Stimuli/SelectedImages/LN/LN28.bmp,76.0,,True,M + N,76.0,repetition,LN,LN28.bmp,remember,,257.0,right,6.0,prime4,5ebeeb2d47d7182bb7855b52,5f5a55364e9b770ed21874ff,5f60d752196795054b70f2f6
categorize-image,747,prime,50303yjswuo92fo,507.0,./Stimuli/SelectedImages/SM/SM106.bmp,83.0,,True,M + N,83.0,repetition,SM,SM106.bmp,remember,,258.0,left,6.0,prime4,5ebeeb2d47d7182bb7855b52,5f5a55364e9b770ed21874ff,5f60d752196795054b70f2f6
categorize-image,750,prime,50303yjswuo92fo,640.0,./Stimuli/SelectedImages/LM/LM57.bmp,76.0,,True,N + M,76.0,repetition,LM,LM57.bmp,forget,,259.0,right,6.0,prime4,5ebeeb2d47d7182bb7855b52,5f5a55364e9b770ed21874ff,5f60d752196795054b70f2f6
categorize-image,753,prime,50303yjswuo92fo,519.0,./Stimuli/SelectedImages/LM/LM100.bmp,76.0,,True,N + M,76.0,switch,LM,LM100.bmp,forget,,260.0,right,6.0,prime4,5ebeeb2d47d7182bb7855b52,5f5a55364e9b770ed21874ff,5f60d752196795054b70f2f6
categorize-image,756,prime,50303yjswuo92fo,615.0,./Stimuli/SelectedImages/LN/LN12.bmp,76.0,,True,M + N,76.0,repetition,LN,LN12.bmp,forget,,261.0,right,6.0,prime4,5ebeeb2d47d7182bb7855b52,5f5a55364e9b770ed21874ff,5f60d752196795054b70f2f6
categorize-image,759,prime,50303yjswuo92fo,591.0,./Stimuli/SelectedImages/LN/LN13.bmp,83.0,,True,N + M,83.0,switch,LN,LN13.bmp,forget,,262.0,left,6.0,prime4,5ebeeb2d47d7182bb7855b52,5f5a55364e9b770ed21874ff,5f60d752196795054b70f2f6
categorize-image,762,prime,50303yjswuo92fo,1018.0,./Stimuli/SelectedImages/SM/SM74.bmp,83.0,,True,M + N,83.0,switch,SM,SM74.bmp,remember,,263.0,left,6.0,prime4,5ebeeb2d47d7182bb7855b52,5f5a55364e9b770ed21874ff,5f60d752196795054b70f2f6
categorize-image,765,prime,50303yjswuo92fo,433.0,./Stimuli/SelectedImages/LM/LM157.bmp,76.0,,True,N + M,76.0,switch,LM,LM157.bmp,remember,,264.0,right,6.0,prime4,5ebeeb2d47d7182bb7855b52,5f5a55364e9b770ed21874ff,5f60d752196795054b70f2f6
categorize-image,768,prime,50303yjswuo92fo,568.0,./Stimuli/SelectedImages/SN/SN111.bmp,83.0,,True,N + M,83.0,switch,SN,SN111.bmp,forget,,265.0,left,6.0,prime4,5ebeeb2d47d7182bb7855b52,5f5a55364e9b770ed21874ff,5f60d752196795054b70f2f6
categorize-image,771,prime,50303yjswuo92fo,605.0,./Stimuli/SelectedImages/LM/LM129.bmp,76.0,,True,N + M,76.0,repetition,LM,LM129.bmp,remember,,266.0,right,6.0,prime4,5ebeeb2d47d7182bb7855b52,5f5a55364e9b770ed21874ff,5f60d752196795054b70f2f6
categorize-image,774,prime,50303yjswuo92fo,715.0,./Stimuli/SelectedImages/SN/SN128.bmp,83.0,,True,N + M,83.0,repetition,SN,SN128.bmp,remember,,267.0,left,6.0,prime4,5ebeeb2d47d7182bb7855b52,5f5a55364e9b770ed21874ff,5f60d752196795054b70f2f6
categorize-image,777,prime,50303yjswuo92fo,554.0,./Stimuli/SelectedImages/LM/LM216.bmp,83.0,,True,M + N,83.0,switch,LM,LM216.bmp,forget,,268.0,left,6.0,prime4,5ebeeb2d47d7182bb7855b52,5f5a55364e9b770ed21874ff,5f60d752196795054b70f2f6
categorize-image,780,prime,50303yjswuo92fo,561.0,./Stimuli/SelectedImages/SN/SN93.bmp,83.0,,True,N + M,83.0,repetition,SN,SN93.bmp,remember,,269.0,left,6.0,prime4,5ebeeb2d47d7182bb7855b52,5f5a55364e9b770ed21874ff,5f60d752196795054b70f2f6
categorize-image,783,prime,50303yjswuo92fo,538.0,./Stimuli/SelectedImages/SM/SM213.bmp,83.0,,True,M + N,83.0,repetition,SM,SM213.bmp,forget,,270.0,left,6.0,prime4,5ebeeb2d47d7182bb7855b52,5f5a55364e9b770ed21874ff,5f60d752196795054b70f2f6
categorize-image,786,prime,50303yjswuo92fo,593.0,./Stimuli/SelectedImages/SN/SN60.bmp,76.0,,True,M + N,76.0,switch,SN,SN60.bmp,forget,,271.0,right,6.0,prime4,5ebeeb2d47d7182bb7855b52,5f5a55364e9b770ed21874ff,5f60d752196795054b70f2f6
categorize-image,789,prime,50303yjswuo92fo,501.0,./Stimuli/SelectedImages/SM/SM73.bmp,83.0,,True,M + N,83.0,repetition,SM,SM73.bmp,forget,,272.0,left,6.0,prime4,5ebeeb2d47d7182bb7855b52,5f5a55364e9b770ed21874ff,5f60d752196795054b70f2f6
categorize-image,792,prime,50303yjswuo92fo,522.0,./Stimuli/SelectedImages/SM/SM148.bmp,83.0,,True,M + N,83.0,repetition,SM,SM148.bmp,remember,,273.0,left,6.0,prime4,5ebeeb2d47d7182bb7855b52,5f5a55364e9b770ed21874ff,5f60d752196795054b70f2f6
categorize-image,795,prime,50303yjswuo92fo,650.0,./Stimuli/SelectedImages/LN/LN128.bmp,76.0,,True,M + N,76.0,repetition,LN,LN128.bmp,forget,,274.0,right,6.0,prime4,5ebeeb2d47d7182bb7855b52,5f5a55364e9b770ed21874ff,5f60d752196795054b70f2f6
categorize-image,798,prime,50303yjswuo92fo,522.0,./Stimuli/SelectedImages/LM/LM51.bmp,83.0,,True,M + N,83.0,switch,LM,LM51.bmp,remember,,275.0,left,6.0,prime4,5ebeeb2d47d7182bb7855b52,5f5a55364e9b770ed21874ff,5f60d752196795054b70f2f6
categorize-image,801,prime,50303yjswuo92fo,624.0,./Stimuli/SelectedImages/SN/SN64.bmp,76.0,,True,M + N,76.0,repetition,SN,SN64.bmp,remember,,276.0,right,6.0,prime4,5ebeeb2d47d7182bb7855b52,5f5a55364e9b770ed21874ff,5f60d752196795054b70f2f6
categorize-image,804,prime,50303yjswuo92fo,545.0,./Stimuli/SelectedImages/SN/SN52.bmp,76.0,,True,M + N,76.0,repetition,SN,SN52.bmp,remember,,277.0,right,6.0,prime4,5ebeeb2d47d7182bb7855b52,5f5a55364e9b770ed21874ff,5f60d752196795054b70f2f6
categorize-image,807,prime,50303yjswuo92fo,481.0,./Stimuli/SelectedImages/LM/LM48.bmp,83.0,,True,M + N,83.0,repetition,LM,LM48.bmp,remember,,278.0,left,6.0,prime4,5ebeeb2d47d7182bb7855b52,5f5a55364e9b770ed21874ff,5f60d752196795054b70f2f6
categorize-image,810,prime,50303yjswuo92fo,505.0,./Stimuli/SelectedImages/SN/SN18.bmp,76.0,,True,M + N,76.0,switch,SN,SN18.bmp,remember,,279.0,right,6.0,prime4,5ebeeb2d47d7182bb7855b52,5f5a55364e9b770ed21874ff,5f60d752196795054b70f2f6
categorize-image,813,prime,50303yjswuo92fo,623.0,./Stimuli/SelectedImages/LN/LN59.bmp,76.0,,True,M + N,76.0,switch,LN,LN59.bmp,forget,,280.0,right,6.0,prime4,5ebeeb2d47d7182bb7855b52,5f5a55364e9b770ed21874ff,5f60d752196795054b70f2f6
categorize-image,816,prime,50303yjswuo92fo,593.0,./Stimuli/SelectedImages/SN/SN182.bmp,83.0,,True,N + M,83.0,switch,SN,SN182.bmp,forget,,281.0,left,6.0,prime4,5ebeeb2d47d7182bb7855b52,5f5a55364e9b770ed21874ff,5f60d752196795054b70f2f6
categorize-image,819,prime,50303yjswuo92fo,609.0,./Stimuli/SelectedImages/SN/SN181.bmp,76.0,,True,M + N,76.0,repetition,SN,SN181.bmp,forget,,282.0,right,6.0,prime4,5ebeeb2d47d7182bb7855b52,5f5a55364e9b770ed21874ff,5f60d752196795054b70f2f6
categorize-image,822,prime,50303yjswuo92fo,732.0,./Stimuli/SelectedImages/SN/SN140.bmp,83.0,,True,N + M,83.0,repetition,SN,SN140.bmp,forget,,283.0,left,6.0,prime4,5ebeeb2d47d7182bb7855b52,5f5a55364e9b770ed21874ff,5f60d752196795054b70f2f6
categorize-image,825,prime,50303yjswuo92fo,759.0,./Stimuli/SelectedImages/SN/SN240.bmp,76.0,,True,M + N,76.0,repetition,SN,SN240.bmp,forget,,284.0,right,6.0,prime4,5ebeeb2d47d7182bb7855b52,5f5a55364e9b770ed21874ff,5f60d752196795054b70f2f6
categorize-image,828,prime,50303yjswuo92fo,601.0,./Stimuli/SelectedImages/LN/LN166.bmp,76.0,,True,M + N,76.0,repetition,LN,LN166.bmp,remember,,285.0,right,6.0,prime4,5ebeeb2d47d7182bb7855b52,5f5a55364e9b770ed21874ff,5f60d752196795054b70f2f6
categorize-image,831,prime,50303yjswuo92fo,448.0,./Stimuli/SelectedImages/SM/SM195.bmp,83.0,,True,M + N,83.0,switch,SM,SM195.bmp,remember,,286.0,left,6.0,prime4,5ebeeb2d47d7182bb7855b52,5f5a55364e9b770ed21874ff,5f60d752196795054b70f2f6
categorize-image,834,prime,50303yjswuo92fo,573.0,./Stimuli/SelectedImages/SN/SN27.bmp,83.0,,True,N + M,83.0,repetition,SN,SN27.bmp,forget,,287.0,left,6.0,prime4,5ebeeb2d47d7182bb7855b52,5f5a55364e9b770ed21874ff,5f60d752196795054b70f2f6
categorize-image,837,prime,50303yjswuo92fo,590.0,./Stimuli/SelectedImages/SM/SM200.bmp,83.0,,True,M + N,83.0,switch,SM,SM200.bmp,forget,,288.0,left,6.0,prime4,5ebeeb2d47d7182bb7855b52,5f5a55364e9b770ed21874ff,5f60d752196795054b70f2f6
categorize-image,840,prime,50303yjswuo92fo,502.0,./Stimuli/SelectedImages/LM/LM59.bmp,83.0,,True,M + N,83.0,repetition,LM,LM59.bmp,forget,,289.0,left,6.0,prime4,5ebeeb2d47d7182bb7855b52,5f5a55364e9b770ed21874ff,5f60d752196795054b70f2f6
categorize-image,843,prime,50303yjswuo92fo,619.0,./Stimuli/SelectedImages/LN/LN42.bmp,76.0,,True,M + N,76.0,switch,LN,LN42.bmp,remember,,290.0,right,6.0,prime4,5ebeeb2d47d7182bb7855b52,5f5a55364e9b770ed21874ff,5f60d752196795054b70f2f6
categorize-image,846,prime,50303yjswuo92fo,591.0,./Stimuli/SelectedImages/LM/LM75.bmp,76.0,,True,N + M,76.0,switch,LM,LM75.bmp,forget,,291.0,right,6.0,prime4,5ebeeb2d47d7182bb7855b52,5f5a55364e9b770ed21874ff,5f60d752196795054b70f2f6
categorize-image,849,prime,50303yjswuo92fo,615.0,./Stimuli/SelectedImages/LN/LN82.bmp,83.0,,True,N + M,83.0,repetition,LN,LN82.bmp,forget,,292.0,left,6.0,prime4,5ebeeb2d47d7182bb7855b52,5f5a55364e9b770ed21874ff,5f60d752196795054b70f2f6
categorize-image,852,prime,50303yjswuo92fo,491.0,./Stimuli/SelectedImages/SM/SM24.bmp,76.0,,True,N + M,76.0,repetition,SM,SM24.bmp,remember,,293.0,right,6.0,prime4,5ebeeb2d47d7182bb7855b52,5f5a55364e9b770ed21874ff,5f60d752196795054b70f2f6
categorize-image,855,prime,50303yjswuo92fo,519.0,./Stimuli/SelectedImages/LM/LM179.bmp,83.0,,True,M + N,83.0,repetition,LM,LM179.bmp,forget,,294.0,left,6.0,prime4,5ebeeb2d47d7182bb7855b52,5f5a55364e9b770ed21874ff,5f60d752196795054b70f2f6
categorize-image,858,prime,50303yjswuo92fo,496.0,./Stimuli/SelectedImages/LM/LM58.bmp,76.0,,True,N + M,76.0,repetition,LM,LM58.bmp,remember,,295.0,right,6.0,prime4,5ebeeb2d47d7182bb7855b52,5f5a55364e9b770ed21874ff,5f60d752196795054b70f2f6
categorize-image,861,prime,50303yjswuo92fo,669.0,./Stimuli/SelectedImages/LN/LN149.bmp,83.0,,True,N + M,83.0,switch,LN,LN149.bmp,remember,,296.0,left,6.0,prime4,5ebeeb2d47d7182bb7855b52,5f5a55364e9b770ed21874ff,5f60d752196795054b70f2f6
categorize-image,864,prime,50303yjswuo92fo,613.0,./Stimuli/SelectedImages/LN/LN9.bmp,83.0,,True,N + M,83.0,switch,LN,LN9.bmp,forget,,297.0,left,6.0,prime4,5ebeeb2d47d7182bb7855b52,5f5a55364e9b770ed21874ff,5f60d752196795054b70f2f6
categorize-image,867,prime,50303yjswuo92fo,656.0,./Stimuli/SelectedImages/LM/LM209.bmp,83.0,,True,M + N,83.0,switch,LM,LM209.bmp,remember,,298.0,left,6.0,prime4,5ebeeb2d47d7182bb7855b52,5f5a55364e9b770ed21874ff,5f60d752196795054b70f2f6
categorize-image,870,prime,50303yjswuo92fo,607.0,./Stimuli/SelectedImages/LM/LM150.bmp,83.0,,True,M + N,83.0,switch,LM,LM150.bmp,forget,,299.0,left,6.0,prime4,5ebeeb2d47d7182bb7855b52,5f5a55364e9b770ed21874ff,5f60d752196795054b70f2f6
categorize-image,873,prime,50303yjswuo92fo,538.0,./Stimuli/SelectedImages/SM/SM184.bmp,76.0,,True,N + M,76.0,switch,SM,SM184.bmp,remember,,300.0,right,6.0,prime4,5ebeeb2d47d7182bb7855b52,5f5a55364e9b770ed21874ff,5f60d752196795054b70f2f6
categorize-image,876,prime,50303yjswuo92fo,425.0,./Stimuli/SelectedImages/SM/SM76.bmp,76.0,,True,N + M,76.0,switch,SM,SM76.bmp,remember,,301.0,right,6.0,prime4,5ebeeb2d47d7182bb7855b52,5f5a55364e9b770ed21874ff,5f60d752196795054b70f2f6
categorize-image,879,prime,50303yjswuo92fo,598.0,./Stimuli/SelectedImages/LN/LN177.bmp,83.0,,True,N + M,83.0,repetition,LN,LN177.bmp,remember,,302.0,left,6.0,prime4,5ebeeb2d47d7182bb7855b52,5f5a55364e9b770ed21874ff,5f60d752196795054b70f2f6
categorize-image,882,prime,50303yjswuo92fo,605.0,./Stimuli/SelectedImages/SN/SN179.bmp,83.0,,True,N + M,83.0,switch,SN,SN179.bmp,remember,,303.0,left,6.0,prime4,5ebeeb2d47d7182bb7855b52,5f5a55364e9b770ed21874ff,5f60d752196795054b70f2f6
categorize-image,885,prime,50303yjswuo92fo,591.0,./Stimuli/SelectedImages/LN/LN131.bmp,76.0,,True,M + N,76.0,switch,LN,LN131.bmp,forget,,304.0,right,6.0,prime4,5ebeeb2d47d7182bb7855b52,5f5a55364e9b770ed21874ff,5f60d752196795054b70f2f6
categorize-image,998,probe,50303yjswuo92fo,913.0,./Stimuli/SelectedImages/SM/SM195.bmp,76.0,,True,N + M,76.0,switch,SM,SM195.bmp,remember,,305.0,right,39.0,probe1,5ebeeb2d47d7182bb7855b52,5f5a55364e9b770ed21874ff,5f60d752196795054b70f2f6
categorize-image,1000,probe,50303yjswuo92fo,597.0,./Stimuli/SelectedImages/SM/SM24.bmp,76.0,,True,N + M,76.0,repetition,SM,SM24.bmp,remember,,306.0,right,39.0,probe1,5ebeeb2d47d7182bb7855b52,5f5a55364e9b770ed21874ff,5f60d752196795054b70f2f6
categorize-image,1002,probe,50303yjswuo92fo,443.0,./Stimuli/SelectedImages/LM/LM58.bmp,76.0,,True,N + M,76.0,repetition,LM,LM58.bmp,remember,,307.0,right,39.0,probe1,5ebeeb2d47d7182bb7855b52,5f5a55364e9b770ed21874ff,5f60d752196795054b70f2f6
categorize-image,1004,probe,50303yjswuo92fo,499.0,./Stimuli/SelectedImages/LM/LM235.bmp,83.0,,True,M + N,83.0,repetition,LM,LM235.bmp,remember,,308.0,left,39.0,probe1,5ebeeb2d47d7182bb7855b52,5f5a55364e9b770ed21874ff,5f60d752196795054b70f2f6
categorize-image,1006,probe,50303yjswuo92fo,582.0,./Stimuli/SelectedImages/SN/SN27.bmp,83.0,,True,N + M,83.0,repetition,SN,SN27.bmp,forget,,309.0,left,39.0,probe1,5ebeeb2d47d7182bb7855b52,5f5a55364e9b770ed21874ff,5f60d752196795054b70f2f6
categorize-image,1008,probe,50303yjswuo92fo,483.0,./Stimuli/SelectedImages/SM/SM17.bmp,76.0,,True,N + M,76.0,repetition,SM,SM17.bmp,remember,,310.0,right,39.0,probe1,5ebeeb2d47d7182bb7855b52,5f5a55364e9b770ed21874ff,5f60d752196795054b70f2f6
categorize-image,1010,probe,50303yjswuo92fo,447.0,./Stimuli/SelectedImages/LM/LM167.bmp,76.0,,True,N + M,76.0,repetition,LM,LM167.bmp,forget,,311.0,right,39.0,probe1,5ebeeb2d47d7182bb7855b52,5f5a55364e9b770ed21874ff,5f60d752196795054b70f2f6
categorize-image,1012,probe,50303yjswuo92fo,488.0,./Stimuli/SelectedImages/SM/SM207.bmp,83.0,,True,M + N,83.0,switch,SM,SM207.bmp,forget,,312.0,left,39.0,probe1,5ebeeb2d47d7182bb7855b52,5f5a55364e9b770ed21874ff,5f60d752196795054b70f2f6
categorize-image,1014,probe,50303yjswuo92fo,607.0,./Stimuli/SelectedImages/SN/SN93.bmp,83.0,,True,N + M,83.0,repetition,SN,SN93.bmp,remember,,313.0,left,39.0,probe1,5ebeeb2d47d7182bb7855b52,5f5a55364e9b770ed21874ff,5f60d752196795054b70f2f6
categorize-image,1016,probe,50303yjswuo92fo,564.0,./Stimuli/SelectedImages/LN/LN166.bmp,76.0,,True,M + N,76.0,repetition,LN,LN166.bmp,remember,,314.0,right,39.0,probe1,5ebeeb2d47d7182bb7855b52,5f5a55364e9b770ed21874ff,5f60d752196795054b70f2f6
categorize-image,1018,probe,50303yjswuo92fo,590.0,./Stimuli/SelectedImages/SN/SN111.bmp,76.0,,True,M + N,76.0,switch,SN,SN111.bmp,forget,,315.0,right,39.0,probe1,5ebeeb2d47d7182bb7855b52,5f5a55364e9b770ed21874ff,5f60d752196795054b70f2f6
categorize-image,1020,probe,50303yjswuo92fo,625.0,./Stimuli/SelectedImages/LN/LN150.bmp,83.0,,True,N + M,83.0,repetition,LN,LN150.bmp,remember,,316.0,left,39.0,probe1,5ebeeb2d47d7182bb7855b52,5f5a55364e9b770ed21874ff,5f60d752196795054b70f2f6
categorize-image,1022,probe,50303yjswuo92fo,530.0,./Stimuli/SelectedImages/SN/SN49.bmp,83.0,,True,N + M,83.0,switch,SN,SN49.bmp,remember,,317.0,left,39.0,probe1,5ebeeb2d47d7182bb7855b52,5f5a55364e9b770ed21874ff,5f60d752196795054b70f2f6
categorize-image,1024,probe,50303yjswuo92fo,510.0,./Stimuli/SelectedImages/LM/LM216.bmp,76.0,,True,N + M,76.0,switch,LM,LM216.bmp,forget,,318.0,right,39.0,probe1,5ebeeb2d47d7182bb7855b52,5f5a55364e9b770ed21874ff,5f60d752196795054b70f2f6
categorize-image,1026,probe,50303yjswuo92fo,576.0,./Stimuli/SelectedImages/LN/LN82.bmp,83.0,,True,N + M,83.0,repetition,LN,LN82.bmp,forget,,319.0,left,39.0,probe1,5ebeeb2d47d7182bb7855b52,5f5a55364e9b770ed21874ff,5f60d752196795054b70f2f6
categorize-image,1028,probe,50303yjswuo92fo,534.0,./Stimuli/SelectedImages/SM/SM200.bmp,76.0,,True,N + M,76.0,switch,SM,SM200.bmp,forget,,320.0,right,39.0,probe1,5ebeeb2d47d7182bb7855b52,5f5a55364e9b770ed21874ff,5f60d752196795054b70f2f6
categorize-image,1030,probe,50303yjswuo92fo,634.0,./Stimuli/SelectedImages/LM/LM209.bmp,76.0,,True,N + M,76.0,switch,LM,LM209.bmp,remember,,321.0,right,39.0,probe1,5ebeeb2d47d7182bb7855b52,5f5a55364e9b770ed21874ff,5f60d752196795054b70f2f6
categorize-image,1032,probe,50303yjswuo92fo,564.0,./Stimuli/SelectedImages/LN/LN92.bmp,76.0,,True,M + N,76.0,switch,LN,LN92.bmp,remember,,322.0,right,39.0,probe1,5ebeeb2d47d7182bb7855b52,5f5a55364e9b770ed21874ff,5f60d752196795054b70f2f6
categorize-image,1034,probe,50303yjswuo92fo,528.0,./Stimuli/SelectedImages/SM/SM205.bmp,83.0,,True,M + N,83.0,switch,SM,SM205.bmp,forget,,323.0,left,39.0,probe1,5ebeeb2d47d7182bb7855b52,5f5a55364e9b770ed21874ff,5f60d752196795054b70f2f6
categorize-image,1036,probe,50303yjswuo92fo,653.0,./Stimuli/SelectedImages/SN/SN181.bmp,76.0,,True,M + N,76.0,repetition,SN,SN181.bmp,forget,,324.0,right,39.0,probe1,5ebeeb2d47d7182bb7855b52,5f5a55364e9b770ed21874ff,5f60d752196795054b70f2f6
categorize-image,1038,probe,50303yjswuo92fo,566.0,./Stimuli/SelectedImages/LM/LM59.bmp,83.0,,True,M + N,83.0,repetition,LM,LM59.bmp,forget,,325.0,left,39.0,probe1,5ebeeb2d47d7182bb7855b52,5f5a55364e9b770ed21874ff,5f60d752196795054b70f2f6
categorize-image,1040,probe,50303yjswuo92fo,555.0,./Stimuli/SelectedImages/LM/LM75.bmp,83.0,,True,M + N,83.0,switch,LM,LM75.bmp,forget,,326.0,left,39.0,probe1,5ebeeb2d47d7182bb7855b52,5f5a55364e9b770ed21874ff,5f60d752196795054b70f2f6
categorize-image,1042,probe,50303yjswuo92fo,601.0,./Stimuli/SelectedImages/SN/SN155.bmp,83.0,,True,N + M,83.0,switch,SN,SN155.bmp,forget,,327.0,left,39.0,probe1,5ebeeb2d47d7182bb7855b52,5f5a55364e9b770ed21874ff,5f60d752196795054b70f2f6
categorize-image,1044,probe,50303yjswuo92fo,543.0,./Stimuli/SelectedImages/SN/SN128.bmp,83.0,,True,N + M,83.0,repetition,SN,SN128.bmp,remember,,328.0,left,39.0,probe1,5ebeeb2d47d7182bb7855b52,5f5a55364e9b770ed21874ff,5f60d752196795054b70f2f6
categorize-image,1046,probe,50303yjswuo92fo,496.0,./Stimuli/SelectedImages/LM/LM179.bmp,83.0,,True,M + N,83.0,repetition,LM,LM179.bmp,forget,,329.0,left,39.0,probe1,5ebeeb2d47d7182bb7855b52,5f5a55364e9b770ed21874ff,5f60d752196795054b70f2f6
categorize-image,1048,probe,50303yjswuo92fo,669.0,./Stimuli/SelectedImages/SN/SN179.bmp,76.0,,True,M + N,76.0,switch,SN,SN179.bmp,remember,,330.0,right,39.0,probe1,5ebeeb2d47d7182bb7855b52,5f5a55364e9b770ed21874ff,5f60d752196795054b70f2f6
categorize-image,1050,probe,50303yjswuo92fo,533.0,./Stimuli/SelectedImages/SM/SM78.bmp,76.0,,True,N + M,76.0,repetition,SM,SM78.bmp,forget,,331.0,right,39.0,probe1,5ebeeb2d47d7182bb7855b52,5f5a55364e9b770ed21874ff,5f60d752196795054b70f2f6
categorize-image,1052,probe,50303yjswuo92fo,583.0,./Stimuli/SelectedImages/LN/LN101.bmp,83.0,,True,N + M,83.0,switch,LN,LN101.bmp,remember,,332.0,left,39.0,probe1,5ebeeb2d47d7182bb7855b52,5f5a55364e9b770ed21874ff,5f60d752196795054b70f2f6
categorize-image,1054,probe,50303yjswuo92fo,596.0,./Stimuli/SelectedImages/SN/SN187.bmp,76.0,,True,M + N,76.0,switch,SN,SN187.bmp,remember,,333.0,right,39.0,probe1,5ebeeb2d47d7182bb7855b52,5f5a55364e9b770ed21874ff,5f60d752196795054b70f2f6
categorize-image,1056,probe,50303yjswuo92fo,420.0,./Stimuli/SelectedImages/LM/LM103.bmp,83.0,,True,M + N,83.0,switch,LM,LM103.bmp,remember,,334.0,left,39.0,probe1,5ebeeb2d47d7182bb7855b52,5f5a55364e9b770ed21874ff,5f60d752196795054b70f2f6
categorize-image,1058,probe,50303yjswuo92fo,468.0,./Stimuli/SelectedImages/SM/SM184.bmp,83.0,,True,M + N,83.0,switch,SM,SM184.bmp,remember,,335.0,left,39.0,probe1,5ebeeb2d47d7182bb7855b52,5f5a55364e9b770ed21874ff,5f60d752196795054b70f2f6
categorize-image,1060,probe,50303yjswuo92fo,446.0,./Stimuli/SelectedImages/LM/LM100.bmp,83.0,,True,M + N,83.0,switch,LM,LM100.bmp,forget,,336.0,left,39.0,probe1,5ebeeb2d47d7182bb7855b52,5f5a55364e9b770ed21874ff,5f60d752196795054b70f2f6
categorize-image,1062,probe,50303yjswuo92fo,661.0,./Stimuli/SelectedImages/LN/LN42.bmp,83.0,,True,N + M,83.0,switch,LN,LN42.bmp,remember,,337.0,left,39.0,probe1,5ebeeb2d47d7182bb7855b52,5f5a55364e9b770ed21874ff,5f60d752196795054b70f2f6
categorize-image,1064,probe,50303yjswuo92fo,569.0,./Stimuli/SelectedImages/SN/SN140.bmp,83.0,,True,N + M,83.0,repetition,SN,SN140.bmp,forget,,338.0,left,39.0,probe1,5ebeeb2d47d7182bb7855b52,5f5a55364e9b770ed21874ff,5f60d752196795054b70f2f6
categorize-image,1066,probe,50303yjswuo92fo,703.0,./Stimuli/SelectedImages/LN/LN131.bmp,83.0,,True,N + M,83.0,switch,LN,LN131.bmp,forget,,339.0,left,39.0,probe1,5ebeeb2d47d7182bb7855b52,5f5a55364e9b770ed21874ff,5f60d752196795054b70f2f6
categorize-image,1068,probe,50303yjswuo92fo,560.0,./Stimuli/SelectedImages/SN/SN64.bmp,76.0,,True,M + N,76.0,repetition,SN,SN64.bmp,remember,,340.0,right,39.0,probe1,5ebeeb2d47d7182bb7855b52,5f5a55364e9b770ed21874ff,5f60d752196795054b70f2f6
categorize-image,1070,probe,50303yjswuo92fo,540.0,./Stimuli/SelectedImages/SM/SM108.bmp,76.0,,True,N + M,76.0,switch,SM,SM108.bmp,forget,,341.0,right,39.0,probe1,5ebeeb2d47d7182bb7855b52,5f5a55364e9b770ed21874ff,5f60d752196795054b70f2f6
categorize-image,1072,probe,50303yjswuo92fo,483.0,./Stimuli/SelectedImages/SM/SM73.bmp,83.0,,True,M + N,83.0,repetition,SM,SM73.bmp,forget,,342.0,left,39.0,probe1,5ebeeb2d47d7182bb7855b52,5f5a55364e9b770ed21874ff,5f60d752196795054b70f2f6
categorize-image,1074,probe,50303yjswuo92fo,523.0,./Stimuli/SelectedImages/SM/SM106.bmp,83.0,,True,M + N,83.0,repetition,SM,SM106.bmp,remember,,343.0,left,39.0,probe1,5ebeeb2d47d7182bb7855b52,5f5a55364e9b770ed21874ff,5f60d752196795054b70f2f6
categorize-image,1076,probe,50303yjswuo92fo,598.0,./Stimuli/SelectedImages/LN/LN128.bmp,76.0,,True,M + N,76.0,repetition,LN,LN128.bmp,forget,,344.0,right,39.0,probe1,5ebeeb2d47d7182bb7855b52,5f5a55364e9b770ed21874ff,5f60d752196795054b70f2f6
categorize-image,1078,probe,50303yjswuo92fo,489.0,./Stimuli/SelectedImages/LN/LN12.bmp,76.0,,True,M + N,76.0,repetition,LN,LN12.bmp,forget,,345.0,right,39.0,probe1,5ebeeb2d47d7182bb7855b52,5f5a55364e9b770ed21874ff,5f60d752196795054b70f2f6
categorize-image,1080,probe,50303yjswuo92fo,659.0,./Stimuli/SelectedImages/LN/LN28.bmp,76.0,,True,M + N,76.0,repetition,LN,LN28.bmp,remember,,346.0,right,39.0,probe1,5ebeeb2d47d7182bb7855b52,5f5a55364e9b770ed21874ff,5f60d752196795054b70f2f6
categorize-image,1082,probe,50303yjswuo92fo,464.0,./Stimuli/SelectedImages/LM/LM57.bmp,76.0,,True,N + M,76.0,repetition,LM,LM57.bmp,forget,,347.0,right,39.0,probe1,5ebeeb2d47d7182bb7855b52,5f5a55364e9b770ed21874ff,5f60d752196795054b70f2f6
categorize-image,1084,probe,50303yjswuo92fo,663.0,./Stimuli/SelectedImages/SN/SN182.bmp,76.0,,True,M + N,76.0,switch,SN,SN182.bmp,forget,,348.0,right,39.0,probe1,5ebeeb2d47d7182bb7855b52,5f5a55364e9b770ed21874ff,5f60d752196795054b70f2f6
categorize-image,1086,probe,50303yjswuo92fo,547.0,./Stimuli/SelectedImages/SM/SM128.bmp,76.0,,True,N + M,76.0,repetition,SM,SM128.bmp,forget,,349.0,right,39.0,probe1,5ebeeb2d47d7182bb7855b52,5f5a55364e9b770ed21874ff,5f60d752196795054b70f2f6
categorize-image,1088,probe,50303yjswuo92fo,442.0,./Stimuli/SelectedImages/SM/SM76.bmp,83.0,,True,M + N,83.0,switch,SM,SM76.bmp,remember,,350.0,left,39.0,probe1,5ebeeb2d47d7182bb7855b52,5f5a55364e9b770ed21874ff,5f60d752196795054b70f2f6
categorize-image,1090,probe,50303yjswuo92fo,426.0,./Stimuli/SelectedImages/LN/LN9.bmp,76.0,,True,M + N,76.0,switch,LN,LN9.bmp,forget,,351.0,right,39.0,probe1,5ebeeb2d47d7182bb7855b52,5f5a55364e9b770ed21874ff,5f60d752196795054b70f2f6
categorize-image,1092,probe,50303yjswuo92fo,676.0,./Stimuli/SelectedImages/SN/SN52.bmp,76.0,,True,M + N,76.0,repetition,SN,SN52.bmp,remember,,352.0,right,39.0,probe1,5ebeeb2d47d7182bb7855b52,5f5a55364e9b770ed21874ff,5f60d752196795054b70f2f6
categorize-image,1094,probe,50303yjswuo92fo,549.0,./Stimuli/SelectedImages/LM/LM48.bmp,83.0,,True,M + N,83.0,repetition,LM,LM48.bmp,remember,,353.0,left,39.0,probe1,5ebeeb2d47d7182bb7855b52,5f5a55364e9b770ed21874ff,5f60d752196795054b70f2f6
categorize-image,1096,probe,50303yjswuo92fo,505.0,./Stimuli/SelectedImages/SM/SM213.bmp,83.0,,True,M + N,83.0,repetition,SM,SM213.bmp,forget,,354.0,left,39.0,probe1,5ebeeb2d47d7182bb7855b52,5f5a55364e9b770ed21874ff,5f60d752196795054b70f2f6
categorize-image,1098,probe,50303yjswuo92fo,457.0,./Stimuli/SelectedImages/SM/SM74.bmp,76.0,,True,N + M,76.0,switch,SM,SM74.bmp,remember,,355.0,right,39.0,probe1,5ebeeb2d47d7182bb7855b52,5f5a55364e9b770ed21874ff,5f60d752196795054b70f2f6
categorize-image,1100,probe,50303yjswuo92fo,447.0,./Stimuli/SelectedImages/LM/LM157.bmp,83.0,,True,M + N,83.0,switch,LM,LM157.bmp,remember,,356.0,left,39.0,probe1,5ebeeb2d47d7182bb7855b52,5f5a55364e9b770ed21874ff,5f60d752196795054b70f2f6
categorize-image,1102,probe,50303yjswuo92fo,474.0,./Stimuli/SelectedImages/SN/SN240.bmp,76.0,,True,M + N,76.0,repetition,SN,SN240.bmp,forget,,357.0,right,39.0,probe1,5ebeeb2d47d7182bb7855b52,5f5a55364e9b770ed21874ff,5f60d752196795054b70f2f6
categorize-image,1104,probe,50303yjswuo92fo,390.0,./Stimuli/SelectedImages/LM/LM150.bmp,76.0,,True,N + M,76.0,switch,LM,LM150.bmp,forget,,358.0,right,39.0,probe1,5ebeeb2d47d7182bb7855b52,5f5a55364e9b770ed21874ff,5f60d752196795054b70f2f6
categorize-image,1106,probe,50303yjswuo92fo,520.0,./Stimuli/SelectedImages/LN/LN59.bmp,83.0,,True,N + M,83.0,switch,LN,LN59.bmp,forget,,359.0,left,39.0,probe1,5ebeeb2d47d7182bb7855b52,5f5a55364e9b770ed21874ff,5f60d752196795054b70f2f6
categorize-image,1108,probe,50303yjswuo92fo,524.0,./Stimuli/SelectedImages/SM/SM148.bmp,83.0,,True,M + N,83.0,repetition,SM,SM148.bmp,remember,,360.0,left,39.0,probe1,5ebeeb2d47d7182bb7855b52,5f5a55364e9b770ed21874ff,5f60d752196795054b70f2f6
categorize-image,1110,probe,50303yjswuo92fo,758.0,./Stimuli/SelectedImages/SN/SN18.bmp,83.0,,True,N + M,83.0,switch,SN,SN18.bmp,remember,,361.0,left,39.0,probe1,5ebeeb2d47d7182bb7855b52,5f5a55364e9b770ed21874ff,5f60d752196795054b70f2f6
categorize-image,1112,probe,50303yjswuo92fo,484.0,./Stimuli/SelectedImages/LM/LM51.bmp,76.0,,True,N + M,76.0,switch,LM,LM51.bmp,remember,,362.0,right,39.0,probe1,5ebeeb2d47d7182bb7855b52,5f5a55364e9b770ed21874ff,5f60d752196795054b70f2f6
categorize-image,1114,probe,50303yjswuo92fo,524.0,./Stimuli/SelectedImages/LN/LN111.bmp,83.0,,True,N + M,83.0,repetition,LN,LN111.bmp,forget,,363.0,left,39.0,probe1,5ebeeb2d47d7182bb7855b52,5f5a55364e9b770ed21874ff,5f60d752196795054b70f2f6
categorize-image,1116,probe,50303yjswuo92fo,535.0,./Stimuli/SelectedImages/LN/LN13.bmp,76.0,,True,M + N,76.0,switch,LN,LN13.bmp,forget,,364.0,right,39.0,probe1,5ebeeb2d47d7182bb7855b52,5f5a55364e9b770ed21874ff,5f60d752196795054b70f2f6
categorize-image,1118,probe,50303yjswuo92fo,576.0,./Stimuli/SelectedImages/LN/LN177.bmp,83.0,,True,N + M,83.0,repetition,LN,LN177.bmp,remember,,365.0,left,39.0,probe1,5ebeeb2d47d7182bb7855b52,5f5a55364e9b770ed21874ff,5f60d752196795054b70f2f6
categorize-image,1120,probe,50303yjswuo92fo,716.0,./Stimuli/SelectedImages/SN/SN60.bmp,83.0,,True,N + M,83.0,switch,SN,SN60.bmp,forget,,366.0,left,39.0,probe1,5ebeeb2d47d7182bb7855b52,5f5a55364e9b770ed21874ff,5f60d752196795054b70f2f6
categorize-image,1122,probe,50303yjswuo92fo,523.0,./Stimuli/SelectedImages/LM/LM129.bmp,76.0,,True,N + M,76.0,repetition,LM,LM129.bmp,remember,,367.0,right,39.0,probe1,5ebeeb2d47d7182bb7855b52,5f5a55364e9b770ed21874ff,5f60d752196795054b70f2f6
categorize-image,1124,probe,50303yjswuo92fo,608.0,./Stimuli/SelectedImages/LN/LN149.bmp,76.0,,True,M + N,76.0,switch,LN,LN149.bmp,remember,,368.0,right,39.0,probe1,5ebeeb2d47d7182bb7855b52,5f5a55364e9b770ed21874ff,5f60d752196795054b70f2f6
categorize-image,120,prime,bu5uxt5s13e01cg,644.6849999483675,./Stimuli/SelectedImages/SN/SN182.bmp,83.0,,True,N + M,83.0,switch,SN,SN182.bmp,remember,,49.0,left,3.0,prime1,5d5b1ca95d31e300163ddf44,5f5a55364e9b770ed21874ff,5f60d7c84e199105f3e991f3
categorize-image,123,prime,bu5uxt5s13e01cg,839.1950000077486,./Stimuli/SelectedImages/SN/SN155.bmp,76.0,,True,M + N,76.0,switch,SN,SN155.bmp,remember,,50.0,right,3.0,prime1,5d5b1ca95d31e300163ddf44,5f5a55364e9b770ed21874ff,5f60d7c84e199105f3e991f3
categorize-image,126,prime,bu5uxt5s13e01cg,766.0300000570713,./Stimuli/SelectedImages/SM/SM213.bmp,83.0,,False,N + M,76.0,switch,SM,SM213.bmp,remember,,51.0,left,3.0,prime1,5d5b1ca95d31e300163ddf44,5f5a55364e9b770ed21874ff,5f60d7c84e199105f3e991f3
categorize-image,130,prime,bu5uxt5s13e01cg,748.1249999254942,./Stimuli/SelectedImages/SM/SM195.bmp,83.0,,True,M + N,83.0,switch,SM,SM195.bmp,remember,,52.0,left,3.0,prime1,5d5b1ca95d31e300163ddf44,5f5a55364e9b770ed21874ff,5f60d7c84e199105f3e991f3
categorize-image,133,prime,bu5uxt5s13e01cg,749.5649999473244,./Stimuli/SelectedImages/SN/SN240.bmp,76.0,,True,M + N,76.0,switch,SN,SN240.bmp,forget,,53.0,right,3.0,prime1,5d5b1ca95d31e300163ddf44,5f5a55364e9b770ed21874ff,5f60d7c84e199105f3e991f3
categorize-image,136,prime,bu5uxt5s13e01cg,762.2200001496823,./Stimuli/SelectedImages/LM/LM103.bmp,83.0,,False,N + M,76.0,switch,LM,LM103.bmp,remember,,54.0,left,3.0,prime1,5d5b1ca95d31e300163ddf44,5f5a55364e9b770ed21874ff,5f60d7c84e199105f3e991f3
categorize-image,140,prime,bu5uxt5s13e01cg,548.1000000145286,./Stimuli/SelectedImages/LM/LM179.bmp,83.0,,True,M + N,83.0,repetition,LM,LM179.bmp,remember,,55.0,left,3.0,prime1,5d5b1ca95d31e300163ddf44,5f5a55364e9b770ed21874ff,5f60d7c84e199105f3e991f3
categorize-image,143,prime,bu5uxt5s13e01cg,578.660000115633,./Stimuli/SelectedImages/SN/SN187.bmp,76.0,,True,M + N,76.0,repetition,SN,SN187.bmp,forget,,56.0,right,3.0,prime1,5d5b1ca95d31e300163ddf44,5f5a55364e9b770ed21874ff,5f60d7c84e199105f3e991f3
categorize-image,146,prime,bu5uxt5s13e01cg,677.3149999789894,./Stimuli/SelectedImages/LM/LM235.bmp,76.0,,True,N + M,76.0,repetition,LM,LM235.bmp,remember,,57.0,right,3.0,prime1,5d5b1ca95d31e300163ddf44,5f5a55364e9b770ed21874ff,5f60d7c84e199105f3e991f3
categorize-image,149,prime,bu5uxt5s13e01cg,611.7099998518825,./Stimuli/SelectedImages/LN/LN101.bmp,83.0,,True,N + M,83.0,switch,LN,LN101.bmp,forget,,58.0,left,3.0,prime1,5d5b1ca95d31e300163ddf44,5f5a55364e9b770ed21874ff,5f60d7c84e199105f3e991f3
categorize-image,152,prime,bu5uxt5s13e01cg,594.2200000863522,./Stimuli/SelectedImages/SM/SM73.bmp,83.0,,True,M + N,83.0,repetition,SM,SM73.bmp,remember,,59.0,left,3.0,prime1,5d5b1ca95d31e300163ddf44,5f5a55364e9b770ed21874ff,5f60d7c84e199105f3e991f3
categorize-image,155,prime,bu5uxt5s13e01cg,574.9099999666214,./Stimuli/SelectedImages/SN/SN140.bmp,76.0,,True,M + N,76.0,repetition,SN,SN140.bmp,remember,,60.0,right,3.0,prime1,5d5b1ca95d31e300163ddf44,5f5a55364e9b770ed21874ff,5f60d7c84e199105f3e991f3
categorize-image,158,prime,bu5uxt5s13e01cg,688.8550000730902,./Stimuli/SelectedImages/SM/SM207.bmp,76.0,,True,N + M,76.0,repetition,SM,SM207.bmp,remember,,61.0,right,3.0,prime1,5d5b1ca95d31e300163ddf44,5f5a55364e9b770ed21874ff,5f60d7c84e199105f3e991f3
categorize-image,161,prime,bu5uxt5s13e01cg,810.374999884516,./Stimuli/SelectedImages/SM/SM74.bmp,83.0,,True,M + N,83.0,switch,SM,SM74.bmp,forget,,62.0,left,3.0,prime1,5d5b1ca95d31e300163ddf44,5f5a55364e9b770ed21874ff,5f60d7c84e199105f3e991f3
categorize-image,164,prime,bu5uxt5s13e01cg,600.109999999404,./Stimuli/SelectedImages/LN/LN12.bmp,83.0,,True,N + M,83.0,switch,LN,LN12.bmp,remember,,63.0,left,3.0,prime1,5d5b1ca95d31e300163ddf44,5f5a55364e9b770ed21874ff,5f60d7c84e199105f3e991f3
categorize-image,167,prime,bu5uxt5s13e01cg,638.7950000353158,./Stimuli/SelectedImages/SM/SM200.bmp,83.0,,True,M + N,83.0,switch,SM,SM200.bmp,remember,,64.0,left,3.0,prime1,5d5b1ca95d31e300163ddf44,5f5a55364e9b770ed21874ff,5f60d7c84e199105f3e991f3
categorize-image,170,prime,bu5uxt5s13e01cg,621.4449999388307,./Stimuli/SelectedImages/LM/LM100.bmp,76.0,,True,N + M,76.0,switch,LM,LM100.bmp,forget,,65.0,right,3.0,prime1,5d5b1ca95d31e300163ddf44,5f5a55364e9b770ed21874ff,5f60d7c84e199105f3e991f3
categorize-image,173,prime,bu5uxt5s13e01cg,817.805000115186,./Stimuli/SelectedImages/LM/LM150.bmp,83.0,,False,N + M,76.0,repetition,LM,LM150.bmp,forget,,66.0,left,3.0,prime1,5d5b1ca95d31e300163ddf44,5f5a55364e9b770ed21874ff,5f60d7c84e199105f3e991f3
categorize-image,177,prime,bu5uxt5s13e01cg,598.0549999512733,./Stimuli/SelectedImages/LM/LM129.bmp,76.0,,True,N + M,76.0,repetition,LM,LM129.bmp,forget,,67.0,right,3.0,prime1,5d5b1ca95d31e300163ddf44,5f5a55364e9b770ed21874ff,5f60d7c84e199105f3e991f3
categorize-image,180,prime,bu5uxt5s13e01cg,575.5500001832842,./Stimuli/SelectedImages/LN/LN128.bmp,83.0,,True,N + M,83.0,switch,LN,LN128.bmp,forget,,68.0,left,3.0,prime1,5d5b1ca95d31e300163ddf44,5f5a55364e9b770ed21874ff,5f60d7c84e199105f3e991f3
categorize-image,183,prime,bu5uxt5s13e01cg,577.2149998228998,./Stimuli/SelectedImages/SN/SN52.bmp,83.0,,True,N + M,83.0,switch,SN,SN52.bmp,forget,,69.0,left,3.0,prime1,5d5b1ca95d31e300163ddf44,5f5a55364e9b770ed21874ff,5f60d7c84e199105f3e991f3
categorize-image,186,prime,bu5uxt5s13e01cg,656.2000000849366,./Stimuli/SelectedImages/LN/LN131.bmp,76.0,,True,M + N,76.0,switch,LN,LN131.bmp,remember,,70.0,right,3.0,prime1,5d5b1ca95d31e300163ddf44,5f5a55364e9b770ed21874ff,5f60d7c84e199105f3e991f3
categorize-image,189,prime,bu5uxt5s13e01cg,711.0399999655783,./Stimuli/SelectedImages/LN/LN82.bmp,83.0,,False,M + N,76.0,switch,LN,LN82.bmp,remember,,71.0,left,3.0,prime1,5d5b1ca95d31e300163ddf44,5f5a55364e9b770ed21874ff,5f60d7c84e199105f3e991f3
categorize-image,193,prime,bu5uxt5s13e01cg,623.0299999006093,./Stimuli/SelectedImages/SM/SM184.bmp,76.0,,True,N + M,76.0,repetition,SM,SM184.bmp,remember,,72.0,right,3.0,prime1,5d5b1ca95d31e300163ddf44,5f5a55364e9b770ed21874ff,5f60d7c84e199105f3e991f3
categorize-image,196,prime,bu5uxt5s13e01cg,539.619999937713,./Stimuli/SelectedImages/SM/SM108.bmp,76.0,,True,N + M,76.0,switch,SM,SM108.bmp,remember,,73.0,right,3.0,prime1,5d5b1ca95d31e300163ddf44,5f5a55364e9b770ed21874ff,5f60d7c84e199105f3e991f3
categorize-image,199,prime,bu5uxt5s13e01cg,559.2099998611957,./Stimuli/SelectedImages/LM/LM51.bmp,76.0,,True,N + M,76.0,switch,LM,LM51.bmp,forget,,74.0,right,3.0,prime1,5d5b1ca95d31e300163ddf44,5f5a55364e9b770ed21874ff,5f60d7c84e199105f3e991f3
categorize-image,202,prime,bu5uxt5s13e01cg,905.7149998843671,./Stimuli/SelectedImages/LM/LM216.bmp,83.0,,True,M + N,83.0,repetition,LM,LM216.bmp,remember,,75.0,left,3.0,prime1,5d5b1ca95d31e300163ddf44,5f5a55364e9b770ed21874ff,5f60d7c84e199105f3e991f3
categorize-image,205,prime,bu5uxt5s13e01cg,769.3700001109391,./Stimuli/SelectedImages/LM/LM48.bmp,83.0,,True,M + N,83.0,switch,LM,LM48.bmp,forget,,76.0,left,3.0,prime1,5d5b1ca95d31e300163ddf44,5f5a55364e9b770ed21874ff,5f60d7c84e199105f3e991f3
categorize-image,208,prime,bu5uxt5s13e01cg,706.4649998210369,./Stimuli/SelectedImages/LN/LN177.bmp,76.0,,True,M + N,76.0,repetition,LN,LN177.bmp,remember,,77.0,right,3.0,prime1,5d5b1ca95d31e300163ddf44,5f5a55364e9b770ed21874ff,5f60d7c84e199105f3e991f3
categorize-image,211,prime,bu5uxt5s13e01cg,877.8450000099838,./Stimuli/SelectedImages/SM/SM205.bmp,83.0,,False,N + M,76.0,switch,SM,SM205.bmp,forget,,78.0,left,3.0,prime1,5d5b1ca95d31e300163ddf44,5f5a55364e9b770ed21874ff,5f60d7c84e199105f3e991f3
categorize-image,215,prime,bu5uxt5s13e01cg,704.7949999105185,./Stimuli/SelectedImages/LN/LN166.bmp,83.0,,True,N + M,83.0,repetition,LN,LN166.bmp,forget,,79.0,left,3.0,prime1,5d5b1ca95d31e300163ddf44,5f5a55364e9b770ed21874ff,5f60d7c84e199105f3e991f3
categorize-image,218,prime,bu5uxt5s13e01cg,884.2499998863786,./Stimuli/SelectedImages/SN/SN64.bmp,83.0,,True,N + M,83.0,repetition,SN,SN64.bmp,remember,,80.0,left,3.0,prime1,5d5b1ca95d31e300163ddf44,5f5a55364e9b770ed21874ff,5f60d7c84e199105f3e991f3
categorize-image,221,prime,bu5uxt5s13e01cg,687.3850000556558,./Stimuli/SelectedImages/LN/LN92.bmp,83.0,,True,N + M,83.0,switch,LN,LN92.bmp,remember,,81.0,left,3.0,prime1,5d5b1ca95d31e300163ddf44,5f5a55364e9b770ed21874ff,5f60d7c84e199105f3e991f3
categorize-image,224,prime,bu5uxt5s13e01cg,968.8200000673532,./Stimuli/SelectedImages/SN/SN93.bmp,76.0,,True,M + N,76.0,repetition,SN,SN93.bmp,remember,,82.0,right,3.0,prime1,5d5b1ca95d31e300163ddf44,5f5a55364e9b770ed21874ff,5f60d7c84e199105f3e991f3
categorize-image,227,prime,bu5uxt5s13e01cg,936.1149999313056,./Stimuli/SelectedImages/LN/LN149.bmp,76.0,,True,M + N,76.0,switch,LN,LN149.bmp,forget,,83.0,right,3.0,prime1,5d5b1ca95d31e300163ddf44,5f5a55364e9b770ed21874ff,5f60d7c84e199105f3e991f3
categorize-image,230,prime,bu5uxt5s13e01cg,891.4550000336021,./Stimuli/SelectedImages/LM/LM157.bmp,83.0,,True,M + N,83.0,switch,LM,LM157.bmp,forget,,84.0,left,3.0,prime1,5d5b1ca95d31e300163ddf44,5f5a55364e9b770ed21874ff,5f60d7c84e199105f3e991f3
categorize-image,233,prime,bu5uxt5s13e01cg,736.0999998636544,./Stimuli/SelectedImages/SN/SN49.bmp,83.0,,True,N + M,83.0,switch,SN,SN49.bmp,remember,,85.0,left,3.0,prime1,5d5b1ca95d31e300163ddf44,5f5a55364e9b770ed21874ff,5f60d7c84e199105f3e991f3
categorize-image,236,prime,bu5uxt5s13e01cg,863.5899999644607,./Stimuli/SelectedImages/LN/LN42.bmp,83.0,,True,N + M,83.0,repetition,LN,LN42.bmp,remember,,86.0,left,3.0,prime1,5d5b1ca95d31e300163ddf44,5f5a55364e9b770ed21874ff,5f60d7c84e199105f3e991f3
categorize-image,239,prime,bu5uxt5s13e01cg,1085.6850000564011,./Stimuli/SelectedImages/LM/LM209.bmp,83.0,,True,M + N,83.0,repetition,LM,LM209.bmp,forget,,87.0,left,3.0,prime1,5d5b1ca95d31e300163ddf44,5f5a55364e9b770ed21874ff,5f60d7c84e199105f3e991f3
categorize-image,242,prime,bu5uxt5s13e01cg,851.9900001119822,./Stimuli/SelectedImages/LM/LM58.bmp,76.0,,True,N + M,76.0,repetition,LM,LM58.bmp,remember,,88.0,right,3.0,prime1,5d5b1ca95d31e300163ddf44,5f5a55364e9b770ed21874ff,5f60d7c84e199105f3e991f3
categorize-image,245,prime,bu5uxt5s13e01cg,751.6100001521409,./Stimuli/SelectedImages/LM/LM167.bmp,83.0,,True,M + N,83.0,repetition,LM,LM167.bmp,forget,,89.0,left,3.0,prime1,5d5b1ca95d31e300163ddf44,5f5a55364e9b770ed21874ff,5f60d7c84e199105f3e991f3
categorize-image,248,prime,bu5uxt5s13e01cg,800.1449999865144,./Stimuli/SelectedImages/SN/SN179.bmp,83.0,,True,N + M,83.0,repetition,SN,SN179.bmp,remember,,90.0,left,3.0,prime1,5d5b1ca95d31e300163ddf44,5f5a55364e9b770ed21874ff,5f60d7c84e199105f3e991f3
categorize-image,251,prime,bu5uxt5s13e01cg,1272.5700000301006,./Stimuli/SelectedImages/LM/LM57.bmp,83.0,,True,M + N,83.0,switch,LM,LM57.bmp,remember,,91.0,left,3.0,prime1,5d5b1ca95d31e300163ddf44,5f5a55364e9b770ed21874ff,5f60d7c84e199105f3e991f3
categorize-image,254,prime,bu5uxt5s13e01cg,1164.240000071004,./Stimuli/SelectedImages/SN/SN18.bmp,83.0,,False,M + N,76.0,repetition,SN,SN18.bmp,forget,,92.0,left,3.0,prime1,5d5b1ca95d31e300163ddf44,5f5a55364e9b770ed21874ff,5f60d7c84e199105f3e991f3
categorize-image,258,prime,bu5uxt5s13e01cg,914.6549999713898,./Stimuli/SelectedImages/LM/LM59.bmp,83.0,,True,M + N,83.0,switch,LM,LM59.bmp,remember,,93.0,left,3.0,prime1,5d5b1ca95d31e300163ddf44,5f5a55364e9b770ed21874ff,5f60d7c84e199105f3e991f3
categorize-image,261,prime,bu5uxt5s13e01cg,889.2749999649823,./Stimuli/SelectedImages/SM/SM78.bmp,83.0,,True,M + N,83.0,repetition,SM,SM78.bmp,forget,,94.0,left,3.0,prime1,5d5b1ca95d31e300163ddf44,5f5a55364e9b770ed21874ff,5f60d7c84e199105f3e991f3
categorize-image,264,prime,bu5uxt5s13e01cg,842.1950000338256,./Stimuli/SelectedImages/LN/LN59.bmp,83.0,,True,N + M,83.0,repetition,LN,LN59.bmp,remember,,95.0,left,3.0,prime1,5d5b1ca95d31e300163ddf44,5f5a55364e9b770ed21874ff,5f60d7c84e199105f3e991f3
categorize-image,267,prime,bu5uxt5s13e01cg,727.3550000973047,./Stimuli/SelectedImages/SM/SM24.bmp,83.0,,True,M + N,83.0,switch,SM,SM24.bmp,forget,,96.0,left,3.0,prime1,5d5b1ca95d31e300163ddf44,5f5a55364e9b770ed21874ff,5f60d7c84e199105f3e991f3
categorize-image,270,prime,bu5uxt5s13e01cg,941.8000001460314,./Stimuli/SelectedImages/SN/SN181.bmp,83.0,,True,N + M,83.0,switch,SN,SN181.bmp,forget,,97.0,left,3.0,prime1,5d5b1ca95d31e300163ddf44,5f5a55364e9b770ed21874ff,5f60d7c84e199105f3e991f3
categorize-image,273,prime,bu5uxt5s13e01cg,654.1399999987334,./Stimuli/SelectedImages/SM/SM106.bmp,83.0,,True,M + N,83.0,repetition,SM,SM106.bmp,forget,,98.0,left,3.0,prime1,5d5b1ca95d31e300163ddf44,5f5a55364e9b770ed21874ff,5f60d7c84e199105f3e991f3
categorize-image,276,prime,bu5uxt5s13e01cg,719.2049999721347,./Stimuli/SelectedImages/SN/SN27.bmp,76.0,,True,M + N,76.0,switch,SN,SN27.bmp,remember,,99.0,right,3.0,prime1,5d5b1ca95d31e300163ddf44,5f5a55364e9b770ed21874ff,5f60d7c84e199105f3e991f3
categorize-image,279,prime,bu5uxt5s13e01cg,928.8049999158831,./Stimuli/SelectedImages/LN/LN111.bmp,76.0,,True,M + N,76.0,repetition,LN,LN111.bmp,forget,,100.0,right,3.0,prime1,5d5b1ca95d31e300163ddf44,5f5a55364e9b770ed21874ff,5f60d7c84e199105f3e991f3
categorize-image,282,prime,bu5uxt5s13e01cg,1006.8300000857562,./Stimuli/SelectedImages/LN/LN9.bmp,83.0,,True,N + M,83.0,repetition,LN,LN9.bmp,forget,,101.0,left,3.0,prime1,5d5b1ca95d31e300163ddf44,5f5a55364e9b770ed21874ff,5f60d7c84e199105f3e991f3
categorize-image,285,prime,bu5uxt5s13e01cg,899.6999999508263,./Stimuli/SelectedImages/SM/SM76.bmp,83.0,,True,M + N,83.0,repetition,SM,SM76.bmp,remember,,102.0,left,3.0,prime1,5d5b1ca95d31e300163ddf44,5f5a55364e9b770ed21874ff,5f60d7c84e199105f3e991f3
categorize-image,288,prime,bu5uxt5s13e01cg,938.3450001478196,./Stimuli/SelectedImages/SM/SM17.bmp,76.0,,True,N + M,76.0,repetition,SM,SM17.bmp,forget,,103.0,right,3.0,prime1,5d5b1ca95d31e300163ddf44,5f5a55364e9b770ed21874ff,5f60d7c84e199105f3e991f3
categorize-image,291,prime,bu5uxt5s13e01cg,997.8499999269844,./Stimuli/SelectedImages/LN/LN150.bmp,83.0,,False,M + N,76.0,repetition,LN,LN150.bmp,remember,,104.0,left,3.0,prime1,5d5b1ca95d31e300163ddf44,5f5a55364e9b770ed21874ff,5f60d7c84e199105f3e991f3
categorize-image,295,prime,bu5uxt5s13e01cg,938.4299998637288,./Stimuli/SelectedImages/LN/LN13.bmp,76.0,,True,M + N,76.0,switch,LN,LN13.bmp,forget,,105.0,right,3.0,prime1,5d5b1ca95d31e300163ddf44,5f5a55364e9b770ed21874ff,5f60d7c84e199105f3e991f3
categorize-image,298,prime,bu5uxt5s13e01cg,1038.7199998367578,./Stimuli/SelectedImages/LM/LM75.bmp,76.0,,True,N + M,76.0,switch,LM,LM75.bmp,remember,,106.0,right,3.0,prime1,5d5b1ca95d31e300163ddf44,5f5a55364e9b770ed21874ff,5f60d7c84e199105f3e991f3
categorize-image,301,prime,bu5uxt5s13e01cg,852.4650000035762,./Stimuli/SelectedImages/LN/LN28.bmp,83.0,,False,M + N,76.0,repetition,LN,LN28.bmp,forget,,107.0,left,3.0,prime1,5d5b1ca95d31e300163ddf44,5f5a55364e9b770ed21874ff,5f60d7c84e199105f3e991f3
categorize-image,305,prime,bu5uxt5s13e01cg,885.414999909699,./Stimuli/SelectedImages/SN/SN128.bmp,76.0,,True,M + N,76.0,switch,SN,SN128.bmp,forget,,108.0,right,3.0,prime1,5d5b1ca95d31e300163ddf44,5f5a55364e9b770ed21874ff,5f60d7c84e199105f3e991f3
categorize-image,308,prime,bu5uxt5s13e01cg,984.4649999868125,./Stimuli/SelectedImages/SM/SM128.bmp,83.0,,False,N + M,76.0,switch,SM,SM128.bmp,forget,,109.0,left,3.0,prime1,5d5b1ca95d31e300163ddf44,5f5a55364e9b770ed21874ff,5f60d7c84e199105f3e991f3
categorize-image,312,prime,bu5uxt5s13e01cg,1035.9950000420213,./Stimuli/SelectedImages/SM/SM148.bmp,76.0,,True,N + M,76.0,repetition,SM,SM148.bmp,forget,,110.0,right,3.0,prime1,5d5b1ca95d31e300163ddf44,5f5a55364e9b770ed21874ff,5f60d7c84e199105f3e991f3
categorize-image,315,prime,bu5uxt5s13e01cg,838.9200000092387,./Stimuli/SelectedImages/SN/SN111.bmp,83.0,,True,N + M,83.0,repetition,SN,SN111.bmp,forget,,111.0,left,3.0,prime1,5d5b1ca95d31e300163ddf44,5f5a55364e9b770ed21874ff,5f60d7c84e199105f3e991f3
categorize-image,318,prime,bu5uxt5s13e01cg,907.6749999076128,./Stimuli/SelectedImages/SN/SN60.bmp,83.0,,True,N + M,83.0,repetition,SN,SN60.bmp,forget,,112.0,left,3.0,prime1,5d5b1ca95d31e300163ddf44,5f5a55364e9b770ed21874ff,5f60d7c84e199105f3e991f3
categorize-image,322,prime,bu5uxt5s13e01cg,888.0099998787045,./Stimuli/SelectedImages/LN/LN12.bmp,83.0,,True,N + M,83.0,switch,LN,LN12.bmp,remember,,113.0,left,4.0,prime2,5d5b1ca95d31e300163ddf44,5f5a55364e9b770ed21874ff,5f60d7c84e199105f3e991f3
categorize-image,325,prime,bu5uxt5s13e01cg,728.8849998731166,./Stimuli/SelectedImages/SM/SM76.bmp,83.0,,True,M + N,83.0,repetition,SM,SM76.bmp,remember,,114.0,left,4.0,prime2,5d5b1ca95d31e300163ddf44,5f5a55364e9b770ed21874ff,5f60d7c84e199105f3e991f3
categorize-image,328,prime,bu5uxt5s13e01cg,871.199999935925,./Stimuli/SelectedImages/LM/LM59.bmp,83.0,,True,M + N,83.0,switch,LM,LM59.bmp,remember,,115.0,left,4.0,prime2,5d5b1ca95d31e300163ddf44,5f5a55364e9b770ed21874ff,5f60d7c84e199105f3e991f3
categorize-image,331,prime,bu5uxt5s13e01cg,593.3800002094357,./Stimuli/SelectedImages/SM/SM73.bmp,83.0,,True,M + N,83.0,repetition,SM,SM73.bmp,remember,,116.0,left,4.0,prime2,5d5b1ca95d31e300163ddf44,5f5a55364e9b770ed21874ff,5f60d7c84e199105f3e991f3
categorize-image,334,prime,bu5uxt5s13e01cg,962.0450001675637,./Stimuli/SelectedImages/LM/LM75.bmp,76.0,,True,N + M,76.0,switch,LM,LM75.bmp,remember,,117.0,right,4.0,prime2,5d5b1ca95d31e300163ddf44,5f5a55364e9b770ed21874ff,5f60d7c84e199105f3e991f3
categorize-image,337,prime,bu5uxt5s13e01cg,653.2099999021739,./Stimuli/SelectedImages/SN/SN18.bmp,76.0,,True,M + N,76.0,repetition,SN,SN18.bmp,forget,,118.0,right,4.0,prime2,5d5b1ca95d31e300163ddf44,5f5a55364e9b770ed21874ff,5f60d7c84e199105f3e991f3
categorize-image,340,prime,bu5uxt5s13e01cg,943.974999943748,./Stimuli/SelectedImages/SN/SN52.bmp,83.0,,True,N + M,83.0,switch,SN,SN52.bmp,forget,,119.0,left,4.0,prime2,5d5b1ca95d31e300163ddf44,5f5a55364e9b770ed21874ff,5f60d7c84e199105f3e991f3
categorize-image,343,prime,bu5uxt5s13e01cg,649.5450001675637,./Stimuli/SelectedImages/SN/SN240.bmp,76.0,,True,M + N,76.0,switch,SN,SN240.bmp,forget,,120.0,right,4.0,prime2,5d5b1ca95d31e300163ddf44,5f5a55364e9b770ed21874ff,5f60d7c84e199105f3e991f3
categorize-image,346,prime,bu5uxt5s13e01cg,731.195000000298,./Stimuli/SelectedImages/LN/LN42.bmp,83.0,,True,N + M,83.0,repetition,LN,LN42.bmp,remember,,121.0,left,4.0,prime2,5d5b1ca95d31e300163ddf44,5f5a55364e9b770ed21874ff,5f60d7c84e199105f3e991f3
categorize-image,349,prime,bu5uxt5s13e01cg,930.2699998952447,./Stimuli/SelectedImages/LN/LN9.bmp,83.0,,True,N + M,83.0,repetition,LN,LN9.bmp,forget,,122.0,left,4.0,prime2,5d5b1ca95d31e300163ddf44,5f5a55364e9b770ed21874ff,5f60d7c84e199105f3e991f3
categorize-image,352,prime,bu5uxt5s13e01cg,711.515000090003,./Stimuli/SelectedImages/SN/SN27.bmp,76.0,,True,M + N,76.0,switch,SN,SN27.bmp,remember,,123.0,right,4.0,prime2,5d5b1ca95d31e300163ddf44,5f5a55364e9b770ed21874ff,5f60d7c84e199105f3e991f3
categorize-image,355,prime,bu5uxt5s13e01cg,648.4100001398474,./Stimuli/SelectedImages/SM/SM78.bmp,83.0,,True,M + N,83.0,repetition,SM,SM78.bmp,forget,,124.0,left,4.0,prime2,5d5b1ca95d31e300163ddf44,5f5a55364e9b770ed21874ff,5f60d7c84e199105f3e991f3
categorize-image,358,prime,bu5uxt5s13e01cg,638.9199998229742,./Stimuli/SelectedImages/LN/LN13.bmp,76.0,,True,M + N,76.0,switch,LN,LN13.bmp,forget,,125.0,right,4.0,prime2,5d5b1ca95d31e300163ddf44,5f5a55364e9b770ed21874ff,5f60d7c84e199105f3e991f3
categorize-image,361,prime,bu5uxt5s13e01cg,947.5950000341983,./Stimuli/SelectedImages/LN/LN111.bmp,76.0,,True,M + N,76.0,repetition,LN,LN111.bmp,forget,,126.0,right,4.0,prime2,5d5b1ca95d31e300163ddf44,5f5a55364e9b770ed21874ff,5f60d7c84e199105f3e991f3
categorize-image,364,prime,bu5uxt5s13e01cg,925.3650000318884,./Stimuli/SelectedImages/LM/LM103.bmp,76.0,,True,N + M,76.0,switch,LM,LM103.bmp,remember,,127.0,right,4.0,prime2,5d5b1ca95d31e300163ddf44,5f5a55364e9b770ed21874ff,5f60d7c84e199105f3e991f3
categorize-image,367,prime,bu5uxt5s13e01cg,758.7599998805673,./Stimuli/SelectedImages/SN/SN181.bmp,83.0,,True,N + M,83.0,switch,SN,SN181.bmp,forget,,128.0,left,4.0,prime2,5d5b1ca95d31e300163ddf44,5f5a55364e9b770ed21874ff,5f60d7c84e199105f3e991f3
categorize-image,370,prime,bu5uxt5s13e01cg,729.5349999330937,./Stimuli/SelectedImages/LN/LN82.bmp,76.0,,True,M + N,76.0,switch,LN,LN82.bmp,remember,,129.0,right,4.0,prime2,5d5b1ca95d31e300163ddf44,5f5a55364e9b770ed21874ff,5f60d7c84e199105f3e991f3
categorize-image,373,prime,bu5uxt5s13e01cg,656.9149999413639,./Stimuli/SelectedImages/SN/SN49.bmp,83.0,,True,N + M,83.0,switch,SN,SN49.bmp,remember,,130.0,left,4.0,prime2,5d5b1ca95d31e300163ddf44,5f5a55364e9b770ed21874ff,5f60d7c84e199105f3e991f3
categorize-image,376,prime,bu5uxt5s13e01cg,686.7700000293553,./Stimuli/SelectedImages/LM/LM167.bmp,83.0,,True,M + N,83.0,repetition,LM,LM167.bmp,forget,,131.0,left,4.0,prime2,5d5b1ca95d31e300163ddf44,5f5a55364e9b770ed21874ff,5f60d7c84e199105f3e991f3
categorize-image,379,prime,bu5uxt5s13e01cg,626.674999948591,./Stimuli/SelectedImages/SN/SN179.bmp,83.0,,True,N + M,83.0,repetition,SN,SN179.bmp,remember,,132.0,left,4.0,prime2,5d5b1ca95d31e300163ddf44,5f5a55364e9b770ed21874ff,5f60d7c84e199105f3e991f3
categorize-image,382,prime,bu5uxt5s13e01cg,771.0800000932068,./Stimuli/SelectedImages/LN/LN28.bmp,76.0,,True,M + N,76.0,repetition,LN,LN28.bmp,forget,,133.0,right,4.0,prime2,5d5b1ca95d31e300163ddf44,5f5a55364e9b770ed21874ff,5f60d7c84e199105f3e991f3
categorize-image,385,prime,bu5uxt5s13e01cg,714.729999890551,./Stimuli/SelectedImages/LM/LM51.bmp,76.0,,True,N + M,76.0,switch,LM,LM51.bmp,forget,,134.0,right,4.0,prime2,5d5b1ca95d31e300163ddf44,5f5a55364e9b770ed21874ff,5f60d7c84e199105f3e991f3
categorize-image,388,prime,bu5uxt5s13e01cg,863.8700000010431,./Stimuli/SelectedImages/LN/LN128.bmp,83.0,,True,N + M,83.0,switch,LN,LN128.bmp,forget,,135.0,left,4.0,prime2,5d5b1ca95d31e300163ddf44,5f5a55364e9b770ed21874ff,5f60d7c84e199105f3e991f3
categorize-image,391,prime,bu5uxt5s13e01cg,779.1550001129507,./Stimuli/SelectedImages/LN/LN101.bmp,83.0,,True,N + M,83.0,switch,LN,LN101.bmp,forget,,136.0,left,4.0,prime2,5d5b1ca95d31e300163ddf44,5f5a55364e9b770ed21874ff,5f60d7c84e199105f3e991f3
categorize-image,394,prime,bu5uxt5s13e01cg,729.0149999316783,./Stimuli/SelectedImages/SN/SN128.bmp,76.0,,True,M + N,76.0,switch,SN,SN128.bmp,forget,,137.0,right,4.0,prime2,5d5b1ca95d31e300163ddf44,5f5a55364e9b770ed21874ff,5f60d7c84e199105f3e991f3
categorize-image,397,prime,bu5uxt5s13e01cg,851.3299999758601,./Stimuli/SelectedImages/LN/LN149.bmp,83.0,,False,M + N,76.0,switch,LN,LN149.bmp,forget,,138.0,left,4.0,prime2,5d5b1ca95d31e300163ddf44,5f5a55364e9b770ed21874ff,5f60d7c84e199105f3e991f3
categorize-image,401,prime,bu5uxt5s13e01cg,703.8499999325721,./Stimuli/SelectedImages/LM/LM216.bmp,83.0,,True,M + N,83.0,repetition,LM,LM216.bmp,remember,,139.0,left,4.0,prime2,5d5b1ca95d31e300163ddf44,5f5a55364e9b770ed21874ff,5f60d7c84e199105f3e991f3
categorize-image,404,prime,bu5uxt5s13e01cg,693.4400000609457,./Stimuli/SelectedImages/LM/LM235.bmp,76.0,,True,N + M,76.0,repetition,LM,LM235.bmp,remember,,140.0,right,4.0,prime2,5d5b1ca95d31e300163ddf44,5f5a55364e9b770ed21874ff,5f60d7c84e199105f3e991f3
categorize-image,407,prime,bu5uxt5s13e01cg,1024.0950000006706,./Stimuli/SelectedImages/LN/LN92.bmp,83.0,,True,N + M,83.0,switch,LN,LN92.bmp,remember,,141.0,left,4.0,prime2,5d5b1ca95d31e300163ddf44,5f5a55364e9b770ed21874ff,5f60d7c84e199105f3e991f3
categorize-image,410,prime,bu5uxt5s13e01cg,916.4299999829383,./Stimuli/SelectedImages/SM/SM106.bmp,83.0,,True,M + N,83.0,repetition,SM,SM106.bmp,forget,,142.0,left,4.0,prime2,5d5b1ca95d31e300163ddf44,5f5a55364e9b770ed21874ff,5f60d7c84e199105f3e991f3
categorize-image,413,prime,bu5uxt5s13e01cg,890.9599999897183,./Stimuli/SelectedImages/SN/SN182.bmp,83.0,,True,N + M,83.0,switch,SN,SN182.bmp,remember,,143.0,left,4.0,prime2,5d5b1ca95d31e300163ddf44,5f5a55364e9b770ed21874ff,5f60d7c84e199105f3e991f3
categorize-image,416,prime,bu5uxt5s13e01cg,773.0700001120567,./Stimuli/SelectedImages/SN/SN64.bmp,83.0,,True,N + M,83.0,repetition,SN,SN64.bmp,remember,,144.0,left,4.0,prime2,5d5b1ca95d31e300163ddf44,5f5a55364e9b770ed21874ff,5f60d7c84e199105f3e991f3
